timestamp,accX,accY,accZ
2051028053,-0.90,-0.44,0.04
2051029992,-0.90,-0.44,0.04
2051031991,-0.90,-0.44,0.04
2051033984,-0.90,-0.44,0.04
2051035987,-0.90,-0.44,0.04
2051037989,-0.90,-0.43,0.04
2051039989,-0.90,-0.43,0.04
2051041991,-0.90,-0.43,0.04
2051043984,-0.90,-0.43,0.04
2051045990,-0.90,-0.43,0.04
2051047987,-0.90,-0.43,0.04
2051049992,-0.90,-0.43,0.04
2051052113,-0.90,-0.43,0.04
2051053989,-0.90,-0.43,0.04
2051055991,-0.90,-0.43,0.04
2051057989,-0.90,-0.43,0.04
2051059986,-0.90,-0.43,0.04
2051061986,-0.90,-0.43,0.04
2051063990,-0.90,-0.43,0.04
2051065990,-0.90,-0.43,0.04
2051068058,-0.90,-0.43,0.04
2051070030,-0.90,-0.43,0.04
2051072010,-0.90,-0.43,0.04
2051074006,-0.90,-0.43,0.04
2051076113,-0.90,-0.43,0.04
2051078010,-0.90,-0.43,0.04
2051080008,-0.90,-0.43,0.04
2051082010,-0.90,-0.43,0.04
2051083990,-0.90,-0.43,0.04
2051085992,-0.90,-0.43,0.04
2051087994,-0.91,-0.43,0.04
2051089996,-0.91,-0.43,0.04
2051091987,-0.91,-0.43,0.04
2051093995,-0.91,-0.43,0.04
2051095996,-0.91,-0.43,0.04
2051097985,-0.91,-0.44,0.04
2051099987,-0.91,-0.44,0.04
2051102090,-0.91,-0.44,0.04
2051103992,-0.91,-0.44,0.04
2051106003,-0.91,-0.44,0.04
2051108045,-0.90,-0.43,0.05
2051110008,-0.90,-0.43,0.05
2051112015,-0.90,-0.43,0.05
2051114010,-0.90,-0.43,0.05
2051116008,-0.90,-0.43,0.05
2051118014,-0.90,-0.43,0.04
2051120015,-0.90,-0.43,0.04
2051121991,-0.90,-0.43,0.04
2051123991,-0.90,-0.43,0.04
2051126099,-0.90,-0.43,0.04
2051127996,-0.89,-0.44,0.05
2051129991,-0.89,-0.44,0.05
2051131992,-0.89,-0.44,0.05
2051133987,-0.89,-0.44,0.05
2051135990,-0.89,-0.44,0.05
2051137991,-0.90,-0.44,0.05
2051139991,-0.90,-0.44,0.05
2051141987,-0.90,-0.44,0.05
2051143992,-0.90,-0.44,0.05
2051145991,-0.90,-0.44,0.05
2051148019,-0.89,-0.44,0.04
2051150014,-0.89,-0.44,0.04
2051152148,-0.89,-0.44,0.04
2051154012,-0.89,-0.44,0.04
2051156028,-0.89,-0.44,0.04
2051158046,-0.89,-0.44,0.06
2051160015,-0.89,-0.44,0.06
2051162017,-0.89,-0.44,0.06
2051163990,-0.89,-0.44,0.06
2051165987,-0.89,-0.44,0.06
2051167987,-0.90,-0.43,0.05
2051169994,-0.90,-0.43,0.05
2051171998,-0.90,-0.43,0.05
2051173992,-0.90,-0.43,0.05
2051176103,-0.90,-0.43,0.05
2051177995,-0.90,-0.44,0.06
2051180016,-0.90,-0.44,0.06
2051182025,-0.90,-0.44,0.06
2051183991,-0.90,-0.44,0.06
2051185991,-0.90,-0.44,0.06
2051188030,-0.90,-0.43,0.06
2051190014,-0.90,-0.43,0.06
2051192013,-0.90,-0.43,0.06
2051194015,-0.90,-0.43,0.06
2051196020,-0.90,-0.43,0.06
2051198013,-0.90,-0.43,0.06
2051200018,-0.91,-0.42,0.05
2051202109,-0.91,-0.42,0.05
2051203991,-0.91,-0.42,0.05
2051205991,-0.91,-0.42,0.05
2051207992,-0.91,-0.42,0.05
2051210029,-0.91,-0.43,0.04
2051211995,-0.91,-0.43,0.04
2051213993,-0.91,-0.43,0.04
2051215992,-0.91,-0.43,0.04
2051217986,-0.91,-0.43,0.04
2051219991,-0.89,-0.43,0.04
2051221992,-0.89,-0.43,0.04
2051223988,-0.89,-0.43,0.04
2051226080,-0.89,-0.43,0.04
2051228030,-0.89,-0.43,0.04
2051230015,-0.90,-0.43,0.04
2051232009,-0.90,-0.43,0.04
2051234009,-0.90,-0.43,0.04
2051236011,-0.90,-0.43,0.04
2051238008,-0.90,-0.43,0.04
2051240013,-0.90,-0.43,0.05
2051241991,-0.90,-0.43,0.05
2051243992,-0.90,-0.43,0.05
2051245991,-0.90,-0.43,0.05
2051247987,-0.90,-0.43,0.05
2051249989,-0.89,-0.43,0.05
2051252121,-0.89,-0.43,0.05
2051253987,-0.89,-0.43,0.05
2051255987,-0.89,-0.43,0.05
2051257986,-0.89,-0.43,0.05
2051259985,-0.90,-0.44,0.04
2051261986,-0.90,-0.44,0.04
2051263990,-0.90,-0.44,0.04
2051265986,-0.90,-0.44,0.04
2051268020,-0.90,-0.44,0.04
2051270026,-0.90,-0.44,0.04
2051272030,-0.90,-0.44,0.04
2051273967,-0.90,-0.44,0.04
2051276082,-0.90,-0.44,0.04
2051277989,-0.90,-0.44,0.04
2051280052,-0.89,-0.43,0.05
2051282016,-0.89,-0.43,0.05
2051284009,-0.89,-0.43,0.05
2051286009,-0.89,-0.43,0.05
2051288008,-0.89,-0.43,0.05
2051290013,-0.90,-0.43,0.06
2051291991,-0.90,-0.43,0.06
2051293989,-0.90,-0.43,0.06
2051295997,-0.90,-0.43,0.06
2051297986,-0.90,-0.43,0.06
2051299987,-0.90,-0.42,0.05
2051302108,-0.90,-0.42,0.05
2051303984,-0.90,-0.42,0.05
2051305983,-0.90,-0.42,0.05
2051308016,-0.90,-0.42,0.05
2051310014,-0.91,-0.42,0.05
2051312009,-0.91,-0.42,0.05
2051314013,-0.91,-0.42,0.05
2051316010,-0.91,-0.42,0.05
2051318008,-0.91,-0.42,0.05
2051320004,-0.89,-0.43,0.05
2051321991,-0.89,-0.43,0.05
2051323992,-0.89,-0.43,0.05
2051326087,-0.89,-0.43,0.05
2051327996,-0.89,-0.43,0.05
2051330008,-0.90,-0.43,0.05
2051332024,-0.90,-0.43,0.05
2051333999,-0.90,-0.43,0.05
2051336122,-0.90,-0.43,0.05
2051338021,-0.90,-0.43,0.05
2051339992,-0.89,-0.43,0.06
2051341992,-0.89,-0.43,0.06
2051343996,-0.89,-0.43,0.06
2051345991,-0.89,-0.43,0.06
2051348026,-0.89,-0.43,0.06
2051350009,-0.91,-0.44,0.07
2051352158,-0.91,-0.44,0.07
2051354011,-0.91,-0.44,0.07
2051356008,-0.91,-0.44,0.07
2051358011,-0.91,-0.44,0.07
2051360009,-0.90,-0.44,0.05
2051361987,-0.90,-0.44,0.05
2051363990,-0.90,-0.44,0.05
2051365985,-0.90,-0.44,0.05
2051367991,-0.90,-0.44,0.05
2051369991,-0.90,-0.44,0.04
2051371991,-0.90,-0.44,0.04
2051373984,-0.90,-0.44,0.04
2051376090,-0.90,-0.44,0.04
2051377996,-0.90,-0.44,0.04
2051379991,-0.90,-0.44,0.04
2051381991,-0.89,-0.43,0.04
2051383987,-0.89,-0.43,0.04
2051385990,-0.89,-0.43,0.04
2051388017,-0.89,-0.43,0.04
2051390018,-0.89,-0.43,0.04
2051392011,-0.91,-0.43,0.05
2051394010,-0.91,-0.43,0.05
2051396015,-0.91,-0.43,0.05
2051398009,-0.91,-0.43,0.05
2051400011,-0.91,-0.43,0.05
2051402093,-0.91,-0.43,0.05
2051403991,-0.91,-0.43,0.05
2051405987,-0.91,-0.43,0.05
2051407992,-0.91,-0.43,0.05
2051409991,-0.91,-0.43,0.05
2051411993,-0.90,-0.44,0.04
2051413991,-0.90,-0.44,0.04
2051415991,-0.90,-0.44,0.04
2051417991,-0.90,-0.44,0.04
2051419992,-0.90,-0.44,0.04
2051421998,-0.89,-0.43,0.03
2051423991,-0.89,-0.43,0.03
2051426076,-0.89,-0.43,0.03
2051428020,-0.89,-0.43,0.03
2051430013,-0.89,-0.43,0.03
2051432013,-0.90,-0.44,0.04
2051434014,-0.90,-0.44,0.04
2051436048,-0.90,-0.44,0.04
2051438068,-0.90,-0.44,0.04
2051440032,-0.90,-0.44,0.04
2051442017,-0.90,-0.44,0.04
2051444017,-0.90,-0.44,0.04
2051445986,-0.90,-0.44,0.04
2051447986,-0.90,-0.44,0.04
2051449993,-0.90,-0.44,0.04
2051452135,-0.90,-0.44,0.03
2051453990,-0.90,-0.44,0.03
2051455989,-0.90,-0.44,0.03
2051457990,-0.90,-0.44,0.03
2051459989,-0.90,-0.44,0.03
2051461986,-0.90,-0.43,0.04
2051463990,-0.90,-0.43,0.04
2051465984,-0.90,-0.43,0.04
2051468023,-0.90,-0.43,0.04
2051470012,-0.90,-0.43,0.04
2051472014,-0.90,-0.44,0.04
2051474017,-0.90,-0.44,0.04
2051476106,-0.90,-0.44,0.04
2051478012,-0.90,-0.44,0.04
2051480012,-0.90,-0.44,0.04
2051481992,-0.90,-0.44,0.05
2051483991,-0.90,-0.44,0.05
2051485992,-0.90,-0.44,0.05
2051487992,-0.90,-0.44,0.05
2051489996,-0.90,-0.44,0.05
2051491989,-0.89,-0.44,0.04
2051493991,-0.89,-0.44,0.04
2051495996,-0.89,-0.44,0.04
2051497989,-0.89,-0.44,0.04
2051499982,-0.89,-0.44,0.04
2051502090,-0.89,-0.45,0.04
2051503991,-0.89,-0.45,0.04
2051505989,-0.89,-0.45,0.04
2051508019,-0.89,-0.45,0.04
2051510009,-0.89,-0.45,0.04
2051512016,-0.89,-0.45,0.05
2051514015,-0.89,-0.45,0.05
2051516050,-0.89,-0.45,0.05
2051518016,-0.89,-0.45,0.05
2051520010,-0.89,-0.45,0.05
2051521990,-0.90,-0.45,0.05
2051523992,-0.90,-0.45,0.05
2051526103,-0.90,-0.45,0.05
2051527996,-0.90,-0.45,0.05
2051529986,-0.90,-0.45,0.05
2051531990,-0.90,-0.44,0.04
2051533990,-0.90,-0.44,0.04
2051535989,-0.90,-0.44,0.04
2051537991,-0.90,-0.44,0.04
2051539997,-0.90,-0.44,0.04
2051541990,-0.90,-0.45,0.05
2051543992,-0.90,-0.45,0.05
2051545990,-0.90,-0.45,0.05
2051548019,-0.90,-0.45,0.05
2051550044,-0.90,-0.45,0.05
2051552152,-0.89,-0.44,0.05
2051553966,-0.89,-0.44,0.05
2051555965,-0.89,-0.44,0.05
2051557965,-0.89,-0.44,0.05
2051559964,-0.89,-0.44,0.05
2051561962,-0.89,-0.44,0.05
2051563965,-0.90,-0.44,0.05
2051565965,-0.90,-0.44,0.05
2051567965,-0.90,-0.44,0.05
2051569965,-0.90,-0.44,0.05
2051571964,-0.90,-0.44,0.05
2051573965,-0.90,-0.44,0.04
2051576043,-0.90,-0.44,0.04
2051577978,-0.90,-0.44,0.04
2051579965,-0.90,-0.44,0.04
2051581965,-0.90,-0.44,0.04
2051583964,-0.89,-0.43,0.04
2051586042,-0.89,-0.43,0.04
2051588041,-0.89,-0.43,0.04
2051590018,-0.89,-0.43,0.04
2051592013,-0.89,-0.43,0.04
2051594018,-0.90,-0.44,0.05
2051596019,-0.90,-0.44,0.05
2051598023,-0.90,-0.44,0.05
2051600014,-0.90,-0.44,0.05
2051602133,-0.90,-0.44,0.05
2051604013,-0.90,-0.43,0.04
2051606011,-0.90,-0.43,0.04
2051608017,-0.90,-0.43,0.04
2051610015,-0.90,-0.43,0.04
2051612014,-0.90,-0.43,0.04
2051614014,-0.90,-0.43,0.05
2051615991,-0.90,-0.43,0.05
2051618007,-0.90,-0.43,0.05
2051620024,-0.90,-0.43,0.05
2051622059,-0.90,-0.43,0.05
2051623991,-0.90,-0.43,0.04
2051626091,-0.90,-0.43,0.04
2051627996,-0.90,-0.43,0.04
2051629989,-0.90,-0.43,0.04
2051631991,-0.90,-0.43,0.04
2051633985,-0.90,-0.43,0.04
2051635990,-0.90,-0.43,0.04
2051638052,-0.90,-0.43,0.04
2051640062,-0.90,-0.43,0.04
2051642046,-0.90,-0.43,0.04
2051644018,-0.90,-0.43,0.05
2051646009,-0.90,-0.43,0.05
2051648012,-0.90,-0.43,0.05
2051650010,-0.90,-0.43,0.05
2051652155,-0.90,-0.43,0.05
2051654014,-0.90,-0.43,0.04
2051656009,-0.90,-0.43,0.04
2051657990,-0.90,-0.43,0.04
2051659991,-0.90,-0.43,0.04
2051661987,-0.90,-0.43,0.04
2051663987,-0.89,-0.43,0.05
2051665984,-0.89,-0.43,0.05
2051667987,-0.89,-0.43,0.05
2051669990,-0.89,-0.43,0.05
2051671997,-0.89,-0.43,0.05
2051673991,-0.90,-0.43,0.05
2051676092,-0.90,-0.43,0.05
2051678025,-0.90,-0.43,0.05
2051680015,-0.90,-0.43,0.05
2051682019,-0.90,-0.43,0.05
2051684013,-0.90,-0.44,0.05
2051686014,-0.90,-0.44,0.05
2051688012,-0.90,-0.44,0.05
2051690016,-0.90,-0.44,0.05
2051691989,-0.90,-0.44,0.05
2051693991,-0.90,-0.45,0.05
2051696000,-0.90,-0.45,0.05
2051697984,-0.90,-0.45,0.05
2051699986,-0.90,-0.45,0.05
2051702091,-0.90,-0.45,0.05
2051703986,-0.90,-0.44,0.05
2051705984,-0.90,-0.44,0.05
2051707984,-0.90,-0.44,0.05
2051709987,-0.90,-0.44,0.05
2051711987,-0.90,-0.44,0.05
2051713989,-0.90,-0.43,0.05
2051715986,-0.90,-0.43,0.05
2051718022,-0.90,-0.43,0.05
2051720013,-0.90,-0.43,0.05
2051722009,-0.90,-0.43,0.05
2051724013,-0.90,-0.43,0.04
2051726115,-0.90,-0.43,0.04
2051728038,-0.90,-0.43,0.04
2051730019,-0.90,-0.43,0.04
2051732013,-0.90,-0.43,0.04
2051733992,-0.90,-0.43,0.04
2051735994,-0.90,-0.43,0.04
2051737991,-0.90,-0.43,0.04
2051740003,-0.90,-0.43,0.04
2051742074,-0.90,-0.43,0.04
2051743992,-0.90,-0.43,0.04
2051745987,-0.90,-0.43,0.04
2051747989,-0.90,-0.43,0.04
2051749993,-0.90,-0.43,0.04
2051752130,-0.90,-0.43,0.04
2051753992,-0.90,-0.43,0.04
2051755989,-0.90,-0.43,0.04
2051758023,-0.90,-0.43,0.04
2051760015,-0.90,-0.43,0.04
2051762009,-0.90,-0.43,0.04
2051764010,-0.90,-0.43,0.04
2051766008,-0.90,-0.43,0.04
2051768013,-0.90,-0.43,0.04
2051770006,-0.90,-0.43,0.04
2051771992,-0.90,-0.43,0.04
2051773992,-0.90,-0.43,0.04
2051776093,-0.90,-0.44,0.03
2051777995,-0.90,-0.44,0.03
2051779992,-0.90,-0.44,0.03
2051781992,-0.90,-0.44,0.03
2051783991,-0.90,-0.44,0.03
2051785991,-0.90,-0.43,0.04
2051787992,-0.90,-0.43,0.04
2051789996,-0.90,-0.43,0.04
2051791991,-0.90,-0.43,0.04
2051793990,-0.90,-0.43,0.04
2051795998,-0.89,-0.44,0.04
2051798014,-0.89,-0.44,0.04
2051800013,-0.89,-0.44,0.04
2051802131,-0.89,-0.44,0.04
2051804014,-0.89,-0.44,0.04
2051806010,-0.90,-0.43,0.04
2051808015,-0.90,-0.43,0.04
2051810007,-0.90,-0.43,0.04
2051811992,-0.90,-0.43,0.04
2051813990,-0.90,-0.43,0.04
2051815990,-0.89,-0.44,0.04
2051817992,-0.89,-0.44,0.04
2051820003,-0.89,-0.44,0.04
2051821977,-0.89,-0.44,0.04
2051824031,-0.89,-0.44,0.04
2051826086,-0.90,-0.44,0.05
2051827990,-0.90,-0.44,0.05
2051829976,-0.90,-0.44,0.05
2051831978,-0.90,-0.44,0.05
2051833974,-0.90,-0.44,0.05
2051835979,-0.89,-0.45,0.05
2051838011,-0.89,-0.45,0.05
2051840022,-0.89,-0.45,0.05
2051842013,-0.89,-0.45,0.05
2051844036,-0.89,-0.45,0.05
2051846025,-0.89,-0.44,0.05
2051848004,-0.89,-0.44,0.05
2051850004,-0.89,-0.44,0.05
2051852160,-0.89,-0.44,0.05
2051854008,-0.89,-0.44,0.05
2051856012,-0.89,-0.45,0.05
2051857981,-0.89,-0.45,0.05
2051859981,-0.89,-0.45,0.05
2051861975,-0.89,-0.45,0.05
2051863979,-0.89,-0.45,0.05
2051865979,-0.89,-0.45,0.04
2051867986,-0.89,-0.45,0.04
2051869977,-0.89,-0.45,0.04
2051871979,-0.89,-0.45,0.04
2051873981,-0.89,-0.45,0.04
2051875998,-0.90,-0.45,0.04
2051878012,-0.90,-0.45,0.04
2051880005,-0.90,-0.45,0.04
2051882005,-0.90,-0.45,0.04
2051884005,-0.90,-0.45,0.04
2051886000,-0.90,-0.45,0.04
2051888002,-0.90,-0.45,0.04
2051890014,-0.90,-0.45,0.04
2051891977,-0.90,-0.45,0.04
2051893980,-0.90,-0.45,0.04
2051895992,-0.90,-0.44,0.03
2051897974,-0.90,-0.44,0.03
2051899975,-0.90,-0.44,0.03
2051901997,-0.90,-0.44,0.03
2051903974,-0.90,-0.44,0.03
2051905977,-0.90,-0.44,0.04
2051907978,-0.90,-0.44,0.04
2051909976,-0.90,-0.44,0.04
2051911976,-0.90,-0.44,0.04
2051913978,-0.90,-0.44,0.04
2051915976,-0.90,-0.43,0.03
2051918009,-0.90,-0.43,0.03
2051920004,-0.90,-0.43,0.03
2051922013,-0.90,-0.43,0.03
2051924002,-0.90,-0.43,0.03
2051926022,-0.90,-0.43,0.03
2051928034,-0.90,-0.43,0.03
2051930011,-0.90,-0.43,0.03
2051931957,-0.90,-0.43,0.03
2051933961,-0.90,-0.43,0.03
2051935957,-0.90,-0.43,0.03
2051937958,-0.89,-0.43,0.04
2051939957,-0.89,-0.43,0.04
2051941955,-0.89,-0.43,0.04
2051943957,-0.89,-0.43,0.04
2051946040,-0.89,-0.43,0.04
2051948040,-0.90,-0.43,0.03
2051950008,-0.90,-0.43,0.03
2051952032,-0.90,-0.43,0.03
2051953979,-0.90,-0.43,0.03
2051955977,-0.90,-0.43,0.03
2051958011,-0.90,-0.43,0.04
2051960006,-0.90,-0.43,0.04
2051961998,-0.90,-0.43,0.04
2051964004,-0.90,-0.43,0.04
2051966000,-0.90,-0.43,0.04
2051968006,-0.89,-0.43,0.05
2051969992,-0.89,-0.43,0.05
2051971976,-0.89,-0.43,0.05
2051973975,-0.89,-0.43,0.05
2051976002,-0.89,-0.43,0.05
2051977985,-0.89,-0.44,0.05
2051979977,-0.89,-0.44,0.05
2051981977,-0.89,-0.44,0.05
2051983981,-0.89,-0.44,0.05
2051985977,-0.89,-0.44,0.05
2051987981,-0.89,-0.44,0.05
2051989987,-0.89,-0.44,0.05
2051991976,-0.89,-0.44,0.05
2051993977,-0.89,-0.44,0.05
2051995993,-0.89,-0.44,0.05
2051998013,-0.89,-0.44,0.05
2052000008,-0.89,-0.44,0.05
2052002028,-0.89,-0.44,0.05
2052004002,-0.89,-0.44,0.05
2052006002,-0.89,-0.44,0.05
2052008006,-0.89,-0.45,0.05
2052010005,-0.89,-0.45,0.05
2052011979,-0.89,-0.45,0.05
2052013978,-0.89,-0.45,0.05
2052015979,-0.89,-0.45,0.05
2052017980,-0.89,-0.44,0.05
2052019979,-0.89,-0.44,0.05
2052021979,-0.89,-0.44,0.05
2052023974,-0.89,-0.44,0.05
2052025996,-0.89,-0.44,0.05
2052028021,-0.89,-0.44,0.05
2052029992,-0.89,-0.44,0.05
2052031975,-0.89,-0.44,0.05
2052033976,-0.89,-0.44,0.05
2052035976,-0.89,-0.44,0.05
2052038020,-0.90,-0.44,0.05
2052040005,-0.90,-0.44,0.05
2052042003,-0.90,-0.44,0.05
2052044034,-0.90,-0.44,0.05
2052046043,-0.90,-0.44,0.05
2052048011,-0.90,-0.43,0.04
2052050007,-0.90,-0.43,0.04
2052052065,-0.90,-0.43,0.04
2052054013,-0.90,-0.43,0.04
2052055976,-0.90,-0.43,0.04
2052057981,-0.90,-0.43,0.04
2052059979,-0.90,-0.43,0.04
2052061976,-0.90,-0.43,0.04
2052063993,-0.90,-0.43,0.04
2052065979,-0.90,-0.43,0.04
2052067979,-0.89,-0.43,0.04
2052069976,-0.89,-0.43,0.04
2052071975,-0.89,-0.43,0.04
2052073975,-0.89,-0.43,0.04
2052075999,-0.89,-0.43,0.04
2052078016,-0.90,-0.43,0.04
2052080007,-0.90,-0.43,0.04
2052082006,-0.90,-0.43,0.04
2052084008,-0.90,-0.43,0.04
2052086004,-0.90,-0.43,0.04
2052088011,-0.90,-0.43,0.03
2052089990,-0.90,-0.43,0.03
2052091977,-0.90,-0.43,0.03
2052093981,-0.90,-0.43,0.03
2052095987,-0.90,-0.43,0.03
2052097975,-0.90,-0.43,0.03
2052099974,-0.90,-0.43,0.03
2052101995,-0.90,-0.43,0.03
2052103979,-0.90,-0.43,0.03
2052105977,-0.90,-0.43,0.03
2052107976,-0.90,-0.43,0.03
2052109977,-0.89,-0.44,0.04
2052111979,-0.89,-0.44,0.04
2052113978,-0.89,-0.44,0.04
2052115977,-0.89,-0.44,0.04
2052118009,-0.89,-0.44,0.04
2052120009,-0.89,-0.44,0.04
2052122005,-0.89,-0.44,0.04
2052124008,-0.89,-0.44,0.04
2052126017,-0.89,-0.44,0.04
2052128013,-0.89,-0.44,0.04
2052129980,-0.90,-0.44,0.04
2052132025,-0.90,-0.44,0.04
2052134066,-0.90,-0.44,0.04
2052136019,-0.90,-0.44,0.04
2052137979,-0.90,-0.44,0.04
2052139978,-0.89,-0.44,0.04
2052141978,-0.89,-0.44,0.04
2052143977,-0.89,-0.44,0.04
2052145979,-0.89,-0.44,0.04
2052147976,-0.89,-0.44,0.04
2052149979,-0.89,-0.45,0.05
2052152037,-0.89,-0.45,0.05
2052153976,-0.89,-0.45,0.05
2052155975,-0.89,-0.45,0.05
2052158026,-0.89,-0.45,0.05
2052160005,-0.90,-0.45,0.05
2052162006,-0.90,-0.45,0.05
2052164010,-0.90,-0.45,0.05
2052166014,-0.90,-0.45,0.05
2052168008,-0.90,-0.45,0.05
2052170006,-0.89,-0.45,0.05
2052171991,-0.89,-0.45,0.05
2052173975,-0.89,-0.45,0.05
2052176000,-0.89,-0.45,0.05
2052177981,-0.89,-0.45,0.05
2052179974,-0.89,-0.45,0.05
2052181976,-0.89,-0.45,0.05
2052183976,-0.89,-0.45,0.05
2052185976,-0.89,-0.45,0.05
2052187978,-0.89,-0.45,0.05
2052189988,-0.89,-0.45,0.05
2052191975,-0.89,-0.45,0.05
2052193977,-0.89,-0.45,0.05
2052195993,-0.89,-0.45,0.05
2052198016,-0.89,-0.45,0.05
2052200006,-0.89,-0.44,0.04
2052202034,-0.89,-0.44,0.04
2052204009,-0.89,-0.44,0.04
2052206009,-0.89,-0.44,0.04
2052208013,-0.89,-0.44,0.04
2052209977,-0.89,-0.44,0.04
2052211979,-0.89,-0.44,0.04
2052213977,-0.89,-0.44,0.04
2052215976,-0.89,-0.44,0.04
2052217976,-0.89,-0.44,0.04
2052219980,-0.90,-0.43,0.04
2052221975,-0.90,-0.43,0.04
2052223978,-0.90,-0.43,0.04
2052226159,-0.90,-0.43,0.04
2052228062,-0.90,-0.43,0.04
2052230057,-0.90,-0.43,0.04
2052232027,-0.90,-0.43,0.04
2052234047,-0.90,-0.43,0.04
2052236021,-0.90,-0.43,0.04
2052238027,-0.90,-0.43,0.04
2052240000,-0.90,-0.43,0.04
2052242003,-0.90,-0.43,0.04
2052244005,-0.90,-0.43,0.04
2052246002,-0.90,-0.43,0.04
2052248005,-0.90,-0.43,0.04
2052250004,-0.91,-0.42,0.03
2052252040,-0.91,-0.42,0.03
2052253978,-0.91,-0.42,0.03
2052255979,-0.91,-0.42,0.03
2052257980,-0.91,-0.42,0.03
2052259983,-0.90,-0.43,0.03
2052261979,-0.90,-0.43,0.03
2052263975,-0.90,-0.43,0.03
2052265976,-0.90,-0.43,0.03
2052267979,-0.90,-0.43,0.03
2052269974,-0.90,-0.43,0.04
2052271979,-0.90,-0.43,0.04
2052273979,-0.90,-0.43,0.04
2052275986,-0.90,-0.43,0.04
2052278018,-0.90,-0.43,0.04
2052280003,-0.90,-0.43,0.05
2052282053,-0.90,-0.43,0.05
2052284041,-0.90,-0.43,0.05
2052286006,-0.90,-0.43,0.05
2052288003,-0.90,-0.43,0.05
2052290010,-0.89,-0.43,0.04
2052292005,-0.89,-0.43,0.04
2052294008,-0.89,-0.43,0.04
2052295989,-0.89,-0.43,0.04
2052297978,-0.89,-0.43,0.04
2052299977,-0.89,-0.43,0.04
2052302001,-0.89,-0.44,0.05
2052303980,-0.89,-0.44,0.05
2052305978,-0.89,-0.44,0.05
2052307975,-0.89,-0.44,0.05
2052309979,-0.89,-0.44,0.05
2052311979,-0.89,-0.45,0.05
2052313977,-0.89,-0.45,0.05
2052315979,-0.89,-0.45,0.05
2052318007,-0.89,-0.45,0.05
2052320003,-0.89,-0.45,0.05
2052322004,-0.89,-0.45,0.05
2052324005,-0.89,-0.45,0.05
2052326017,-0.89,-0.45,0.05
2052328006,-0.89,-0.45,0.05
2052330023,-0.89,-0.45,0.05
2052332067,-0.89,-0.45,0.05
2052334020,-0.89,-0.45,0.05
2052335982,-0.89,-0.45,0.05
2052338017,-0.89,-0.45,0.05
2052339977,-0.89,-0.45,0.05
2052341974,-0.89,-0.45,0.05
2052343975,-0.89,-0.45,0.05
2052345976,-0.89,-0.45,0.05
2052347977,-0.89,-0.45,0.05
2052349976,-0.89,-0.45,0.05
2052352038,-0.89,-0.44,0.05
2052353978,-0.89,-0.44,0.05
2052355980,-0.89,-0.44,0.05
2052358015,-0.89,-0.44,0.05
2052360001,-0.89,-0.44,0.05
2052361999,-0.90,-0.44,0.05
2052364007,-0.90,-0.44,0.05
2052366004,-0.90,-0.44,0.05
2052368000,-0.90,-0.44,0.05
2052370006,-0.90,-0.44,0.05
2052371979,-0.90,-0.44,0.04
2052373977,-0.90,-0.44,0.04
2052376003,-0.90,-0.44,0.04
2052377985,-0.90,-0.44,0.04
2052379976,-0.90,-0.44,0.04
2052381985,-0.90,-0.44,0.04
2052383977,-0.90,-0.44,0.04
2052385978,-0.90,-0.44,0.04
2052387983,-0.90,-0.44,0.04
2052389986,-0.90,-0.44,0.04
2052392007,-0.89,-0.43,0.04
2052394054,-0.89,-0.43,0.04
2052396011,-0.89,-0.43,0.04
2052398015,-0.89,-0.43,0.04
2052400004,-0.89,-0.43,0.04
2052402030,-0.90,-0.43,0.04
2052404005,-0.90,-0.43,0.04
2052406005,-0.90,-0.43,0.04
2052408001,-0.90,-0.43,0.04
2052410005,-0.90,-0.43,0.04
2052411979,-0.90,-0.44,0.04
2052413980,-0.90,-0.44,0.04
2052415976,-0.90,-0.44,0.04
2052417976,-0.90,-0.44,0.04
2052419986,-0.90,-0.44,0.04
2052421993,-0.90,-0.43,0.04
2052423976,-0.90,-0.43,0.04
2052425997,-0.90,-0.43,0.04
2052427981,-0.90,-0.43,0.04
2052429975,-0.90,-0.43,0.04
2052431979,-0.89,-0.43,0.04
2052433977,-0.89,-0.43,0.04
2052435976,-0.89,-0.43,0.04
2052438046,-0.89,-0.43,0.04
2052440005,-0.89,-0.43,0.04
2052442008,-0.90,-0.42,0.04
2052444006,-0.90,-0.42,0.04
2052446005,-0.90,-0.42,0.04
2052448005,-0.90,-0.42,0.04
2052450008,-0.90,-0.42,0.04
2052452037,-0.89,-0.43,0.04
2052453977,-0.89,-0.43,0.04
2052455977,-0.89,-0.43,0.04
2052457977,-0.89,-0.43,0.04
2052459976,-0.89,-0.43,0.04
2052461974,-0.90,-0.44,0.07
2052463973,-0.90,-0.44,0.07
2052465976,-0.90,-0.44,0.07
2052468029,-0.90,-0.44,0.07
2052470026,-0.90,-0.44,0.07
2052472034,-0.90,-0.44,0.04
2052473979,-0.90,-0.44,0.04
2052475998,-0.90,-0.44,0.04
2052478025,-0.90,-0.44,0.04
2052480002,-0.90,-0.44,0.04
2052482001,-0.90,-0.44,0.04
2052484007,-0.88,-0.44,0.05
2052486005,-0.88,-0.44,0.05
2052488002,-0.88,-0.44,0.05
2052490015,-0.88,-0.44,0.05
2052491994,-0.88,-0.44,0.05
2052493979,-0.90,-0.45,0.05
2052495988,-0.90,-0.45,0.05
2052497979,-0.90,-0.45,0.05
2052499979,-0.90,-0.45,0.05
2052502002,-0.90,-0.45,0.05
2052503976,-0.89,-0.44,0.05
2052505981,-0.89,-0.44,0.05
2052507978,-0.89,-0.44,0.05
2052509975,-0.89,-0.44,0.05
2052511982,-0.89,-0.44,0.05
2052513981,-0.90,-0.44,0.04
2052516107,-0.90,-0.44,0.04
2052518047,-0.90,-0.44,0.04
2052520005,-0.90,-0.44,0.04
2052522020,-0.90,-0.44,0.04
2052524003,-0.89,-0.43,0.05
2052526020,-0.89,-0.43,0.05
2052528010,-0.89,-0.43,0.05
2052529999,-0.89,-0.43,0.05
2052531976,-0.89,-0.43,0.05
2052533979,-0.90,-0.44,0.05
2052535979,-0.90,-0.44,0.05
2052537974,-0.90,-0.44,0.05
2052539980,-0.90,-0.44,0.05
2052542019,-0.90,-0.44,0.05
2052543975,-0.91,-0.43,0.05
2052545976,-0.91,-0.43,0.05
2052547977,-0.91,-0.43,0.05
2052549977,-0.91,-0.43,0.05
2052552034,-0.91,-0.43,0.05
2052553978,-0.90,-0.44,0.05
2052555977,-0.90,-0.44,0.05
2052558021,-0.90,-0.44,0.05
2052560005,-0.90,-0.44,0.05
2052562006,-0.90,-0.44,0.05
2052564068,-0.90,-0.44,0.04
2052566045,-0.90,-0.44,0.04
2052568005,-0.90,-0.44,0.04
2052570007,-0.90,-0.44,0.04
2052572001,-0.90,-0.44,0.04
2052574008,-0.89,-0.44,0.04
2052576097,-0.89,-0.44,0.04
2052577991,-0.89,-0.44,0.04
2052579976,-0.89,-0.44,0.04
2052581974,-0.89,-0.44,0.04
2052583979,-0.89,-0.44,0.04
2052585978,-0.89,-0.44,0.04
2052587979,-0.89,-0.44,0.04
2052589992,-0.89,-0.44,0.04
2052591977,-0.89,-0.44,0.04
2052593981,-0.90,-0.44,0.04
2052595992,-0.90,-0.44,0.04
2052598014,-0.90,-0.44,0.04
2052600005,-0.90,-0.44,0.04
2052602028,-0.90,-0.44,0.04
2052604004,-0.91,-0.44,0.04
2052606004,-0.91,-0.44,0.04
2052608000,-0.91,-0.44,0.04
2052610044,-0.91,-0.44,0.04
2052612032,-0.91,-0.44,0.04
2052613992,-0.89,-0.45,0.05
2052615973,-0.89,-0.45,0.05
2052617975,-0.89,-0.45,0.05
2052619975,-0.89,-0.45,0.05
2052622048,-0.89,-0.45,0.05
2052623973,-0.89,-0.45,0.04
2052626092,-0.89,-0.45,0.04
2052627987,-0.89,-0.45,0.04
2052629975,-0.89,-0.45,0.04
2052631979,-0.89,-0.45,0.04
2052633974,-0.88,-0.44,0.04
2052635981,-0.88,-0.44,0.04
2052638020,-0.88,-0.44,0.04
2052640003,-0.88,-0.44,0.04
2052642011,-0.88,-0.44,0.04
2052644045,-0.90,-0.45,0.05
2052646006,-0.90,-0.45,0.05
2052648007,-0.90,-0.45,0.05
2052650005,-0.90,-0.45,0.05
2052652065,-0.90,-0.45,0.05
2052653976,-0.90,-0.45,0.05
2052655981,-0.89,-0.43,0.04
2052657978,-0.89,-0.43,0.04
2052659976,-0.89,-0.43,0.04
2052661979,-0.89,-0.43,0.04
2052663977,-0.89,-0.43,0.04
2052665974,-0.91,-0.43,0.04
2052667976,-0.91,-0.43,0.04
2052669979,-0.91,-0.43,0.04
2052672033,-0.91,-0.43,0.04
2052674036,-0.91,-0.43,0.04
2052676019,-0.90,-0.43,0.04
2052678023,-0.90,-0.43,0.04
2052680007,-0.90,-0.43,0.04
2052682003,-0.90,-0.43,0.04
2052684007,-0.90,-0.43,0.04
2052686003,-0.90,-0.43,0.05
2052688004,-0.90,-0.43,0.05
2052690014,-0.90,-0.43,0.05
2052691979,-0.90,-0.43,0.05
2052693979,-0.90,-0.43,0.05
2052695994,-0.89,-0.44,0.05
2052697975,-0.89,-0.44,0.05
2052699976,-0.89,-0.44,0.05
2052701995,-0.89,-0.44,0.05
2052703979,-0.89,-0.44,0.05
2052705980,-0.88,-0.43,0.05
2052707979,-0.88,-0.43,0.05
2052709980,-0.88,-0.43,0.05
2052711976,-0.88,-0.43,0.05
2052713979,-0.88,-0.43,0.05
2052715978,-0.91,-0.44,0.06
2052718008,-0.91,-0.44,0.06
2052720057,-0.91,-0.44,0.06
2052722040,-0.91,-0.44,0.06
2052724005,-0.91,-0.44,0.06
2052726023,-0.90,-0.42,0.05
2052728008,-0.90,-0.42,0.05
2052730003,-0.90,-0.42,0.05
2052732000,-0.90,-0.42,0.05
2052733982,-0.90,-0.42,0.05
2052735980,-0.91,-0.44,0.04
2052737979,-0.91,-0.44,0.04
2052739979,-0.91,-0.44,0.04
2052741975,-0.91,-0.44,0.04
2052743979,-0.91,-0.44,0.04
2052746008,-0.89,-0.43,0.04
2052747977,-0.89,-0.43,0.04
2052749981,-0.89,-0.43,0.04
2052752038,-0.89,-0.43,0.04
2052753975,-0.89,-0.43,0.04
2052755976,-0.89,-0.43,0.04
2052758018,-0.89,-0.43,0.04
2052760008,-0.89,-0.43,0.04
2052762040,-0.89,-0.43,0.04
2052764004,-0.89,-0.43,0.04
2052766000,-0.91,-0.45,0.07
2052768002,-0.91,-0.45,0.07
2052770007,-0.91,-0.45,0.07
2052771979,-0.91,-0.45,0.07
2052773981,-0.91,-0.45,0.07
2052776007,-0.89,-0.42,0.06
2052777987,-0.89,-0.42,0.06
2052779979,-0.89,-0.42,0.06
2052781979,-0.89,-0.42,0.06
2052783979,-0.89,-0.42,0.06
2052785986,-0.92,-0.44,0.04
2052787978,-0.92,-0.44,0.04
2052789986,-0.92,-0.44,0.04
2052791978,-0.92,-0.44,0.04
2052793980,-0.92,-0.44,0.04
2052795993,-0.89,-0.42,0.03
2052798014,-0.89,-0.42,0.03
2052800006,-0.89,-0.42,0.03
2052802028,-0.89,-0.42,0.03
2052804004,-0.89,-0.42,0.03
2052806016,-0.90,-0.44,0.03
2052808039,-0.90,-0.44,0.03
2052810008,-0.90,-0.44,0.03
2052812040,-0.90,-0.44,0.03
2052814030,-0.90,-0.44,0.03
2052815973,-0.90,-0.44,0.07
2052817977,-0.90,-0.44,0.07
2052819975,-0.90,-0.44,0.07
2052821975,-0.90,-0.44,0.07
2052823979,-0.90,-0.44,0.07
2052826001,-0.88,-0.43,0.04
2052827979,-0.88,-0.43,0.04
2052829972,-0.88,-0.43,0.04
2052831974,-0.88,-0.43,0.04
2052833974,-0.88,-0.43,0.04
2052835975,-0.91,-0.46,0.05
2052838014,-0.91,-0.46,0.05
2052840003,-0.91,-0.46,0.05
2052842002,-0.91,-0.46,0.05
2052844006,-0.91,-0.46,0.05
2052846005,-0.91,-0.46,0.05
2052848035,-0.88,-0.43,0.05
2052850050,-0.88,-0.43,0.05
2052852066,-0.88,-0.43,0.05
2052853974,-0.88,-0.43,0.05
2052855973,-0.88,-0.43,0.05
2052858035,-0.92,-0.45,0.03
2052860026,-0.92,-0.45,0.03
2052861980,-0.92,-0.45,0.03
2052863979,-0.92,-0.45,0.03
2052865980,-0.92,-0.45,0.03
2052867974,-0.88,-0.44,0.06
2052869979,-0.88,-0.44,0.06
2052871977,-0.88,-0.44,0.06
2052873977,-0.88,-0.44,0.06
2052876000,-0.88,-0.44,0.06
2052878027,-0.90,-0.44,0.05
2052880002,-0.90,-0.44,0.05
2052882001,-0.90,-0.44,0.05
2052884006,-0.90,-0.44,0.05
2052886008,-0.90,-0.44,0.05
2052888006,-0.90,-0.45,0.04
2052890006,-0.90,-0.45,0.04
2052891979,-0.90,-0.45,0.04
2052893977,-0.90,-0.45,0.04
2052895990,-0.90,-0.45,0.04
2052897980,-0.89,-0.43,0.03
2052899974,-0.89,-0.43,0.03
2052902004,-0.89,-0.43,0.03
2052903983,-0.89,-0.43,0.03
2052906104,-0.89,-0.43,0.03
2052908017,-0.92,-0.45,0.02
2052909979,-0.92,-0.45,0.02
2052911978,-0.92,-0.45,0.02
2052913977,-0.92,-0.45,0.02
2052915985,-0.92,-0.45,0.02
2052918025,-0.88,-0.42,0.04
2052920004,-0.88,-0.42,0.04
2052922012,-0.88,-0.42,0.04
2052924005,-0.88,-0.42,0.04
2052926020,-0.88,-0.42,0.04
2052928005,-0.91,-0.44,0.02
2052930007,-0.91,-0.44,0.02
2052931980,-0.91,-0.44,0.02
2052933980,-0.91,-0.44,0.02
2052935980,-0.91,-0.44,0.02
2052937977,-0.89,-0.45,0.04
2052939977,-0.89,-0.45,0.04
2052941974,-0.89,-0.45,0.04
2052943980,-0.89,-0.45,0.04
2052945977,-0.89,-0.45,0.04
2052947984,-0.91,-0.43,0.05
2052949981,-0.91,-0.43,0.05
2052952060,-0.91,-0.43,0.05
2052954061,-0.91,-0.43,0.05
2052956021,-0.91,-0.43,0.05
2052958024,-0.89,-0.44,0.05
2052960002,-0.89,-0.44,0.05
2052962005,-0.89,-0.44,0.05
2052964006,-0.89,-0.44,0.05
2052966008,-0.89,-0.44,0.05
2052968005,-0.89,-0.44,0.05
2052970007,-0.89,-0.44,0.05
2052971979,-0.89,-0.44,0.05
2052973979,-0.89,-0.44,0.05
2052976099,-0.89,-0.44,0.05
2052977990,-0.91,-0.45,0.04
2052979978,-0.91,-0.45,0.04
2052981981,-0.91,-0.45,0.04
2052983980,-0.91,-0.45,0.04
2052985980,-0.91,-0.45,0.04
2052987981,-0.88,-0.43,0.05
2052989993,-0.88,-0.43,0.05
2052991980,-0.88,-0.43,0.05
2052993982,-0.88,-0.43,0.05
2052995991,-0.88,-0.43,0.05
2052998011,-0.90,-0.44,0.05
2053000020,-0.90,-0.44,0.05
2053002075,-0.90,-0.44,0.05
2053004035,-0.90,-0.44,0.05
2053006007,-0.90,-0.44,0.05
2053008007,-0.89,-0.43,0.05
2053010002,-0.89,-0.43,0.05
2053012014,-0.89,-0.43,0.05
2053013977,-0.89,-0.43,0.05
2053015977,-0.89,-0.43,0.05
2053017980,-0.91,-0.44,0.05
2053019977,-0.91,-0.44,0.05
2053021979,-0.91,-0.44,0.05
2053023977,-0.91,-0.44,0.05
2053026093,-0.91,-0.44,0.05
2053027986,-0.91,-0.44,0.05
2053029977,-0.91,-0.45,0.04
2053031977,-0.91,-0.45,0.04
2053033975,-0.91,-0.45,0.04
2053035975,-0.91,-0.45,0.04
2053038013,-0.91,-0.45,0.04
2053040008,-0.89,-0.43,0.05
2053042009,-0.89,-0.43,0.05
2053044009,-0.89,-0.43,0.05
2053046007,-0.89,-0.43,0.05
2053048008,-0.89,-0.43,0.05
2053049976,-0.91,-0.44,0.05
2053052029,-0.91,-0.44,0.05
2053054033,-0.91,-0.44,0.05
2053055984,-0.91,-0.44,0.05
2053057977,-0.91,-0.44,0.05
2053060012,-0.89,-0.42,0.03
2053062030,-0.89,-0.42,0.03
2053064003,-0.89,-0.42,0.03
2053065978,-0.89,-0.42,0.03
2053067975,-0.89,-0.42,0.03
2053069975,-0.90,-0.43,0.04
2053071975,-0.90,-0.43,0.04
2053073984,-0.90,-0.43,0.04
2053076005,-0.90,-0.43,0.04
2053078022,-0.90,-0.43,0.04
2053080007,-0.90,-0.42,0.05
2053082006,-0.90,-0.42,0.05
2053084006,-0.90,-0.42,0.05
2053086002,-0.90,-0.42,0.05
2053088008,-0.90,-0.42,0.05
2053090010,-0.90,-0.41,0.04
2053091981,-0.90,-0.41,0.04
2053093984,-0.90,-0.41,0.04
2053095993,-0.90,-0.41,0.04
2053097976,-0.90,-0.41,0.04
2053099974,-0.91,-0.41,0.04
2053101996,-0.91,-0.41,0.04
2053103980,-0.91,-0.41,0.04
2053105977,-0.91,-0.41,0.04
2053107997,-0.91,-0.41,0.04
2053110110,-0.90,-0.42,0.04
2053112019,-0.90,-0.42,0.04
2053113984,-0.90,-0.42,0.04
2053115977,-0.90,-0.42,0.04
2053118016,-0.90,-0.42,0.04
2053120000,-0.90,-0.45,0.04
2053122001,-0.90,-0.45,0.04
2053124007,-0.90,-0.45,0.04
2053126019,-0.90,-0.45,0.04
2053128008,-0.90,-0.45,0.04
2053130001,-0.88,-0.46,0.04
2053131973,-0.88,-0.46,0.04
2053133977,-0.88,-0.46,0.04
2053135981,-0.88,-0.46,0.04
2053137980,-0.88,-0.46,0.04
2053139979,-0.89,-0.45,0.04
2053141980,-0.89,-0.45,0.04
2053143977,-0.89,-0.45,0.04
2053145978,-0.89,-0.45,0.04
2053147981,-0.89,-0.45,0.04
2053149980,-0.89,-0.45,0.05
2053152029,-0.89,-0.45,0.05
2053153972,-0.89,-0.45,0.05
2053155975,-0.89,-0.45,0.05
2053158023,-0.89,-0.45,0.05
2053160044,-0.90,-0.43,0.05
2053162000,-0.90,-0.43,0.05
2053164001,-0.90,-0.43,0.05
2053166003,-0.90,-0.43,0.05
2053168003,-0.90,-0.43,0.05
2053170008,-0.91,-0.45,0.04
2053171989,-0.91,-0.45,0.04
2053173975,-0.91,-0.45,0.04
2053176008,-0.91,-0.45,0.04
2053177983,-0.91,-0.45,0.04
2053179979,-0.89,-0.45,0.05
2053181980,-0.89,-0.45,0.05
2053183977,-0.89,-0.45,0.05
2053185977,-0.89,-0.45,0.05
2053187976,-0.89,-0.45,0.05
2053189988,-0.89,-0.45,0.04
2053191978,-0.89,-0.45,0.04
2053193976,-0.89,-0.45,0.04
2053195992,-0.89,-0.45,0.04
2053198008,-0.89,-0.45,0.04
2053200005,-0.89,-0.45,0.04
2053202029,-0.89,-0.45,0.04
2053204004,-0.89,-0.45,0.04
2053206034,-0.89,-0.45,0.04
2053208014,-0.89,-0.45,0.04
2053210009,-0.89,-0.45,0.04
2053212008,-0.90,-0.44,0.04
2053213980,-0.90,-0.44,0.04
2053215980,-0.90,-0.44,0.04
2053217979,-0.90,-0.44,0.04
2053219981,-0.90,-0.44,0.04
2053221978,-0.90,-0.43,0.04
2053223977,-0.90,-0.43,0.04
2053226000,-0.90,-0.43,0.04
2053227980,-0.90,-0.43,0.04
2053229979,-0.90,-0.43,0.04
2053231976,-0.89,-0.43,0.04
2053233980,-0.89,-0.43,0.04
2053235977,-0.89,-0.43,0.04
2053238009,-0.89,-0.43,0.04
2053240006,-0.89,-0.43,0.04
2053242004,-0.90,-0.44,0.04
2053244005,-0.90,-0.44,0.04
2053246002,-0.90,-0.44,0.04
2053248003,-0.90,-0.44,0.04
2053249992,-0.90,-0.44,0.04
2053252033,-0.89,-0.43,0.04
2053253978,-0.89,-0.43,0.04
2053255977,-0.89,-0.43,0.04
2053258023,-0.89,-0.43,0.04
2053259981,-0.89,-0.43,0.04
2053261988,-0.90,-0.44,0.04
2053264020,-0.90,-0.44,0.04
2053266021,-0.90,-0.44,0.04
2053268040,-0.90,-0.44,0.04
2053269979,-0.90,-0.44,0.04
2053271979,-0.88,-0.43,0.04
2053273977,-0.88,-0.43,0.04
2053276003,-0.88,-0.43,0.04
2053278018,-0.88,-0.43,0.04
2053280001,-0.88,-0.43,0.04
2053282001,-0.90,-0.44,0.04
2053284003,-0.90,-0.44,0.04
2053286000,-0.90,-0.44,0.04
2053288003,-0.90,-0.44,0.04
2053290012,-0.90,-0.44,0.04
2053291976,-0.91,-0.43,0.05
2053293977,-0.91,-0.43,0.05
2053295992,-0.91,-0.43,0.05
2053297974,-0.91,-0.43,0.05
2053299974,-0.91,-0.43,0.05
2053302000,-0.90,-0.44,0.05
2053303979,-0.90,-0.44,0.05
2053305977,-0.90,-0.44,0.05
2053307976,-0.90,-0.44,0.05
2053309985,-0.90,-0.44,0.05
2053311977,-0.90,-0.45,0.05
2053313974,-0.90,-0.45,0.05
2053315977,-0.90,-0.45,0.05
2053318013,-0.90,-0.45,0.05
2053320006,-0.90,-0.45,0.05
2053322002,-0.88,-0.44,0.05
2053324001,-0.88,-0.44,0.05
2053326011,-0.88,-0.44,0.05
2053328008,-0.88,-0.44,0.05
2053330002,-0.88,-0.44,0.05
2053331979,-0.91,-0.44,0.05
2053333977,-0.91,-0.44,0.05
2053335978,-0.91,-0.44,0.05
2053337976,-0.91,-0.44,0.05
2053339984,-0.91,-0.44,0.05
2053341981,-0.89,-0.43,0.05
2053343979,-0.89,-0.43,0.05
2053345979,-0.89,-0.43,0.05
2053347978,-0.89,-0.43,0.05
2053349983,-0.89,-0.43,0.05
2053352040,-0.91,-0.42,0.06
2053353975,-0.91,-0.42,0.06
2053355977,-0.91,-0.42,0.06
2053358010,-0.91,-0.42,0.06
2053360005,-0.91,-0.42,0.06
2053362004,-0.90,-0.43,0.06
2053364037,-0.90,-0.43,0.06
2053366053,-0.90,-0.43,0.06
2053368038,-0.90,-0.43,0.06
2053370028,-0.90,-0.43,0.06
2053372002,-0.90,-0.43,0.04
2053374025,-0.90,-0.43,0.04
2053376101,-0.90,-0.43,0.04
2053377986,-0.90,-0.43,0.04
2053379974,-0.90,-0.43,0.04
2053381978,-0.91,-0.43,0.04
2053383975,-0.91,-0.43,0.04
2053385975,-0.91,-0.43,0.04
2053387982,-0.91,-0.43,0.04
2053389987,-0.91,-0.43,0.04
2053391975,-0.91,-0.43,0.04
2053393979,-0.90,-0.42,0.04
2053395992,-0.90,-0.42,0.04
2053398015,-0.90,-0.42,0.04
2053400006,-0.90,-0.42,0.04
2053402027,-0.90,-0.42,0.04
2053404008,-0.91,-0.42,0.03
2053406005,-0.91,-0.42,0.03
2053408005,-0.91,-0.42,0.03
2053410005,-0.91,-0.42,0.03
2053411980,-0.91,-0.42,0.03
2053413975,-0.89,-0.42,0.03
2053415977,-0.89,-0.42,0.03
2053417979,-0.89,-0.42,0.03
2053420003,-0.89,-0.42,0.03
2053422062,-0.89,-0.42,0.03
2053424021,-0.91,-0.43,0.03
2053426092,-0.91,-0.43,0.03
2053427980,-0.91,-0.43,0.03
2053429975,-0.91,-0.43,0.03
2053431977,-0.91,-0.43,0.03
2053433979,-0.90,-0.43,0.04
2053435975,-0.90,-0.43,0.04
2053438018,-0.90,-0.43,0.04
2053440003,-0.90,-0.43,0.04
2053442002,-0.90,-0.43,0.04
2053444005,-0.89,-0.44,0.04
2053446005,-0.89,-0.44,0.04
2053448002,-0.89,-0.44,0.04
2053450004,-0.89,-0.44,0.04
2053452035,-0.89,-0.44,0.04
2053453979,-0.89,-0.45,0.05
2053455975,-0.89,-0.45,0.05
2053457978,-0.89,-0.45,0.05
2053459979,-0.89,-0.45,0.05
2053462022,-0.89,-0.45,0.05
2053463978,-0.89,-0.44,0.05
2053465978,-0.89,-0.44,0.05
2053468016,-0.89,-0.44,0.05
2053469976,-0.89,-0.44,0.05
2053471976,-0.89,-0.44,0.05
2053473977,-0.89,-0.46,0.04
2053476000,-0.89,-0.46,0.04
2053478019,-0.89,-0.46,0.04
2053480004,-0.89,-0.46,0.04
2053482002,-0.89,-0.46,0.04
2053484003,-0.89,-0.46,0.05
2053486003,-0.89,-0.46,0.05
2053488002,-0.89,-0.46,0.05
2053490003,-0.89,-0.46,0.05
2053491980,-0.89,-0.46,0.05
2053493985,-0.89,-0.46,0.05
2053495991,-0.89,-0.46,0.05
2053497972,-0.89,-0.46,0.05
2053499975,-0.89,-0.46,0.05
2053501997,-0.89,-0.46,0.05
2053503977,-0.89,-0.47,0.04
2053505978,-0.89,-0.47,0.04
2053507977,-0.89,-0.47,0.04
2053509976,-0.89,-0.47,0.04
2053511981,-0.89,-0.47,0.04
2053513976,-0.88,-0.46,0.04
2053515977,-0.88,-0.46,0.04
2053518013,-0.88,-0.46,0.04
2053520001,-0.88,-0.46,0.04
2053522004,-0.88,-0.46,0.04
2053524009,-0.89,-0.46,0.03
2053526042,-0.89,-0.46,0.03
2053528014,-0.89,-0.46,0.03
2053530006,-0.89,-0.46,0.03
2053532005,-0.89,-0.46,0.03
2053533980,-0.88,-0.46,0.02
2053535980,-0.88,-0.46,0.02
2053537975,-0.88,-0.46,0.02
2053539973,-0.88,-0.46,0.02
2053541979,-0.88,-0.46,0.02
2053543975,-0.89,-0.44,0.02
2053545981,-0.89,-0.44,0.02
2053547980,-0.89,-0.44,0.02
2053549982,-0.89,-0.44,0.02
2053552036,-0.89,-0.44,0.02
2053553978,-0.90,-0.43,0.03
2053555975,-0.90,-0.43,0.03
2053558014,-0.90,-0.43,0.03
2053560005,-0.90,-0.43,0.03
2053562001,-0.90,-0.43,0.03
2053564003,-0.91,-0.43,0.02
2053566003,-0.91,-0.43,0.02
2053568030,-0.91,-0.43,0.02
2053569956,-0.91,-0.43,0.02
2053571959,-0.91,-0.43,0.02
2053573957,-0.91,-0.43,0.02
2053575983,-0.91,-0.43,0.02
2053577964,-0.91,-0.43,0.02
2053579957,-0.91,-0.43,0.02
2053581957,-0.91,-0.43,0.02
2053583956,-0.91,-0.43,0.02
2053585957,-0.90,-0.43,0.04
2053587960,-0.90,-0.43,0.04
2053589972,-0.90,-0.43,0.04
2053591956,-0.90,-0.43,0.04
2053593960,-0.90,-0.43,0.04
2053595979,-0.89,-0.43,0.04
2053597958,-0.89,-0.43,0.04
2053599958,-0.89,-0.43,0.04
2053601981,-0.89,-0.43,0.04
2053603957,-0.89,-0.43,0.04
2053605958,-0.90,-0.41,0.04
2053678051,-0.89,-0.44,0.05
2053680005,-0.89,-0.44,0.05
2053682007,-0.89,-0.44,0.05
2053684003,-0.89,-0.44,0.05
2053686007,-0.91,-0.43,0.06
2053688003,-0.91,-0.43,0.06
2053690010,-0.91,-0.43,0.06
2053692026,-0.91,-0.43,0.06
2053693966,-0.91,-0.43,0.06
2053695988,-0.91,-0.42,0.05
2053697957,-0.91,-0.42,0.05
2053699955,-0.91,-0.42,0.05
2053701991,-0.91,-0.42,0.05
2053703963,-0.91,-0.42,0.05
2053705957,-0.91,-0.42,0.05
2053707957,-0.91,-0.42,0.05
2053709957,-0.91,-0.42,0.05
2053711958,-0.91,-0.42,0.05
2053713958,-0.91,-0.42,0.05
2053715957,-0.90,-0.42,0.04
2053717957,-0.90,-0.42,0.04
2053719957,-0.90,-0.42,0.04
2053721958,-0.90,-0.42,0.04
2053723957,-0.90,-0.42,0.04
2053725967,-0.89,-0.43,0.02
2055218060,-0.91,-0.41,0.04
2055220004,-0.91,-0.41,0.04
2055221999,-0.91,-0.41,0.04
2055224000,-0.91,-0.41,0.04
2055226109,-0.91,-0.41,0.04
2055228004,-0.91,-0.41,0.04
2055230009,-0.91,-0.41,0.04
2055231980,-0.91,-0.41,0.04
2055233980,-0.91,-0.41,0.04
2055235978,-0.91,-0.41,0.04
2055237980,-0.91,-0.41,0.04
2055239979,-0.91,-0.41,0.04
2055241980,-0.91,-0.41,0.04
2055243976,-0.91,-0.41,0.05
2055245980,-0.91,-0.41,0.05
2055247980,-0.91,-0.41,0.05
2055249980,-0.91,-0.41,0.05
2055252110,-0.91,-0.41,0.05
2055253979,-0.90,-0.43,0.05
2055255979,-0.90,-0.43,0.05
2055258011,-0.90,-0.43,0.05
2055260000,-0.90,-0.43,0.05
2055262020,-0.90,-0.43,0.05
2055264064,-0.89,-0.45,0.05
2055266041,-0.89,-0.45,0.05
2055268003,-0.89,-0.45,0.05
2055270006,-0.89,-0.45,0.05
2055272014,-0.89,-0.45,0.05
2055273979,-0.89,-0.45,0.06
2055276102,-0.89,-0.45,0.06
2055277986,-0.89,-0.45,0.06
2055279978,-0.89,-0.45,0.06
2055281977,-0.89,-0.45,0.06
2055283984,-0.88,-0.45,0.05
2055285979,-0.88,-0.45,0.05
2055287977,-0.88,-0.45,0.05
2055289987,-0.88,-0.45,0.05
2055291975,-0.88,-0.45,0.05
2055293980,-0.88,-0.46,0.05
2055295993,-0.88,-0.46,0.05
2055298012,-0.88,-0.46,0.05
2055300005,-0.88,-0.46,0.05
2055302111,-0.88,-0.46,0.05
2055304006,-0.89,-0.46,0.05
2055306005,-0.89,-0.46,0.05
2055308003,-0.89,-0.46,0.05
2055310005,-0.89,-0.46,0.05
2055311986,-0.89,-0.46,0.05
2055314027,-0.90,-0.45,0.04
2055315975,-0.90,-0.45,0.04
2055317974,-0.90,-0.45,0.04
2055319977,-0.90,-0.45,0.04
2055322089,-0.90,-0.45,0.04
2055324016,-0.90,-0.46,0.03
2055326097,-0.90,-0.46,0.03
2055327992,-0.90,-0.46,0.03
2055329980,-0.90,-0.46,0.03
2055331979,-0.90,-0.46,0.03
2055333979,-0.89,-0.45,0.01
2055335976,-0.89,-0.45,0.01
2055338021,-0.89,-0.45,0.01
2055340004,-0.89,-0.45,0.01
2055342001,-0.89,-0.45,0.01
2055344002,-0.90,-0.46,0.00
2055346006,-0.90,-0.46,0.00
2055348000,-0.90,-0.46,0.00
2055350003,-0.90,-0.46,0.00
2055352116,-0.90,-0.46,0.00
2055353975,-0.88,-0.46,0.00
2055355976,-0.88,-0.46,0.00
2055357977,-0.88,-0.46,0.00
2055359976,-0.88,-0.46,0.00
2055361976,-0.88,-0.46,0.00
2055363977,-0.90,-0.46,0.00
2055365976,-0.90,-0.46,0.00
2055367976,-0.90,-0.46,0.00
2055369977,-0.90,-0.46,0.00
2055371976,-0.90,-0.46,0.00
2055373979,-0.89,-0.45,0.01
2055376055,-0.89,-0.45,0.01
2055378016,-0.89,-0.45,0.01
2055380001,-0.89,-0.45,0.01
2055382003,-0.89,-0.45,0.01
2055384003,-0.90,-0.45,0.02
2055386002,-0.90,-0.45,0.02
2055388000,-0.90,-0.45,0.02
2055390009,-0.90,-0.45,0.02
2055391978,-0.90,-0.45,0.02
2055393980,-0.90,-0.45,0.02
2055395989,-0.89,-0.45,0.02
2055397976,-0.89,-0.45,0.02
2055399977,-0.89,-0.45,0.02
2055402088,-0.89,-0.45,0.02
2055403976,-0.89,-0.45,0.02
2055406001,-0.89,-0.46,0.04
2055408031,-0.89,-0.46,0.04
2055409976,-0.89,-0.46,0.04
2055411975,-0.89,-0.46,0.04
2055413980,-0.89,-0.46,0.04
2055416019,-0.88,-0.46,0.04
2055418014,-0.88,-0.46,0.04
2055420003,-0.88,-0.46,0.04
2055422055,-0.88,-0.46,0.04
2055424030,-0.88,-0.46,0.04
2055426115,-0.88,-0.47,0.04
2055428006,-0.88,-0.47,0.04
2055430007,-0.88,-0.47,0.04
2055432005,-0.88,-0.47,0.04
2055434014,-0.88,-0.47,0.04
2055435980,-0.88,-0.46,0.04
2055437980,-0.88,-0.46,0.04
2055439979,-0.88,-0.46,0.04
2055441980,-0.88,-0.46,0.04
2055443976,-0.88,-0.46,0.04
2055445981,-0.89,-0.45,0.04
2055447979,-0.89,-0.45,0.04
2055449982,-0.89,-0.45,0.04
2055452115,-0.89,-0.45,0.04
2055453975,-0.89,-0.45,0.04
2055455974,-0.90,-0.45,0.04
2055458012,-0.90,-0.45,0.04
2055460002,-0.90,-0.45,0.04
2055462001,-0.90,-0.45,0.04
2055464005,-0.90,-0.45,0.04
2055466006,-0.89,-0.45,0.04
2055468003,-0.89,-0.45,0.04
2055470006,-0.89,-0.45,0.04
2055471977,-0.89,-0.45,0.04
2055473981,-0.89,-0.45,0.04
2055476088,-0.90,-0.44,0.04
2055477988,-0.90,-0.44,0.04
2055479980,-0.90,-0.44,0.04
2055481979,-0.90,-0.44,0.04
2055483981,-0.90,-0.44,0.04
2055485979,-0.89,-0.43,0.04
2055487981,-0.89,-0.43,0.04
2055489989,-0.89,-0.43,0.04
2055491981,-0.89,-0.43,0.04
2055493979,-0.89,-0.43,0.04
2055495993,-0.90,-0.43,0.05
2055498006,-0.90,-0.43,0.05
2055500003,-0.90,-0.43,0.05
2055502108,-0.90,-0.43,0.05
2055504003,-0.90,-0.43,0.05
2055506003,-0.91,-0.43,0.06
2055508006,-0.91,-0.43,0.06
2055510039,-0.91,-0.43,0.06
2055512011,-0.91,-0.43,0.06
2055513980,-0.91,-0.43,0.06
2055515980,-0.91,-0.42,0.06
2055517981,-0.91,-0.42,0.06
2055519980,-0.91,-0.42,0.06
2055521979,-0.91,-0.42,0.06
2055523978,-0.91,-0.42,0.06
2055526099,-0.90,-0.42,0.07
2055527987,-0.90,-0.42,0.07
2055529976,-0.90,-0.42,0.07
2055531977,-0.90,-0.42,0.07
2055533984,-0.90,-0.42,0.07
2055535985,-0.91,-0.42,0.06
2055538014,-0.91,-0.42,0.06
2055540023,-0.91,-0.42,0.06
2055541994,-0.91,-0.42,0.06
2055543958,-0.91,-0.42,0.06
2055545957,-0.90,-0.41,0.05
2055547958,-0.90,-0.41,0.05
2055549960,-0.90,-0.41,0.05
2055552122,-0.90,-0.41,0.05
2055553957,-0.90,-0.41,0.05
2055555958,-0.89,-0.42,0.05
2055557958,-0.89,-0.42,0.05
2055559958,-0.89,-0.42,0.05
2055561957,-0.89,-0.42,0.05
2055563955,-0.89,-0.42,0.05
2055565955,-0.90,-0.41,0.04
2055567958,-0.90,-0.41,0.04
2055569957,-0.90,-0.41,0.04
2055571955,-0.90,-0.41,0.04
2055573955,-0.90,-0.41,0.04
2055576032,-0.90,-0.41,0.04
2055577968,-0.91,-0.42,0.05
2055579955,-0.91,-0.42,0.05
2055581955,-0.91,-0.42,0.05
2055583955,-0.91,-0.42,0.05
2055585955,-0.91,-0.42,0.05
2055626121,-0.89,-0.47,0.05
2055628009,-0.89,-0.47,0.04
2055630003,-0.89,-0.47,0.04
2055632008,-0.89,-0.47,0.04
2055634006,-0.89,-0.47,0.04
2055636006,-0.89,-0.47,0.04
2055638008,-0.89,-0.47,0.04
2055640011,-0.89,-0.47,0.04
2055641985,-0.89,-0.47,0.04
2055643978,-0.89,-0.47,0.04
2055645977,-0.89,-0.47,0.04
2055647979,-0.90,-0.46,0.04
2055649980,-0.90,-0.46,0.04
2055652111,-0.90,-0.46,0.04
2055653979,-0.90,-0.46,0.04
2055655976,-0.90,-0.46,0.04
2055657979,-0.89,-0.47,0.04
2055659975,-0.89,-0.47,0.04
2055661976,-0.89,-0.47,0.04
2055663977,-0.89,-0.47,0.04
2055666014,-0.89,-0.47,0.04
2055668017,-0.89,-0.47,0.03
2055670017,-0.89,-0.47,0.03
2055671958,-0.89,-0.47,0.03
2055674036,-0.89,-0.47,0.03
2055676119,-0.89,-0.47,0.03
2055678027,-0.88,-0.47,0.03
2055680011,-0.88,-0.47,0.03
2055682002,-0.88,-0.47,0.03
2055684004,-0.88,-0.47,0.03
2055686001,-0.88,-0.47,0.03
2055688008,-0.89,-0.48,0.02
2055689988,-0.89,-0.48,0.02
2055691978,-0.89,-0.48,0.02
2055693981,-0.89,-0.48,0.02
2055695993,-0.89,-0.48,0.02
2055697977,-0.88,-0.48,0.01
2055699977,-0.88,-0.48,0.01
2055702093,-0.88,-0.48,0.01
2055703976,-0.88,-0.48,0.01
2055706015,-0.88,-0.48,0.01
2055708003,-0.89,-0.49,0.01
2055710005,-0.89,-0.49,0.01
2055712004,-0.89,-0.49,0.01
2055714003,-0.89,-0.49,0.01
2055716002,-0.89,-0.49,0.01
2055718002,-0.89,-0.48,0.03
2055719979,-0.89,-0.48,0.03
2055721978,-0.89,-0.48,0.03
2055724023,-0.89,-0.48,0.03
2055726084,-0.89,-0.48,0.03
2055727986,-0.91,-0.48,0.00
2055729977,-0.91,-0.48,0.00
2055731976,-0.91,-0.48,0.00
2055733978,-0.91,-0.48,0.00
2055735978,-0.91,-0.48,0.00
2055737974,-0.92,-0.47,0.03
2055739977,-0.92,-0.47,0.03
2055741978,-0.92,-0.47,0.03
2055743974,-0.92,-0.47,0.03
2055746014,-0.92,-0.47,0.03
2055748003,-0.94,-0.46,0.02
2055750001,-0.94,-0.46,0.02
2055752148,-0.94,-0.46,0.02
2055754000,-0.94,-0.46,0.02
2055756005,-0.94,-0.46,0.02
2055758036,-0.90,-0.46,0.03
2055760035,-0.90,-0.46,0.03
2055761978,-0.90,-0.46,0.03
2055763977,-0.90,-0.46,0.03
2055765981,-0.90,-0.46,0.03
2055767977,-0.90,-0.46,0.03
2055769979,-0.91,-0.48,0.03
2055771979,-0.91,-0.48,0.03
2055773981,-0.91,-0.48,0.03
2055776088,-0.91,-0.48,0.03
2055778041,-0.91,-0.48,0.03
2055779974,-0.88,-0.50,0.03
2055781976,-0.88,-0.50,0.03
2055783981,-0.88,-0.50,0.03
2055786020,-0.88,-0.50,0.03
2055788003,-0.88,-0.50,0.03
2055790008,-0.87,-0.51,0.03
2055792007,-0.87,-0.51,0.03
2055794003,-0.87,-0.51,0.03
2055796012,-0.87,-0.51,0.03
2055798011,-0.87,-0.51,0.03
2055799981,-0.88,-0.52,0.05
2055802092,-0.88,-0.52,0.05
2055803979,-0.88,-0.52,0.05
2055805978,-0.88,-0.52,0.05
2055807977,-0.88,-0.52,0.05
2055809976,-0.87,-0.54,0.03
2055811980,-0.87,-0.54,0.03
2055813980,-0.87,-0.54,0.03
2055815980,-0.87,-0.54,0.03
2055817981,-0.87,-0.54,0.03
2055819978,-0.92,-0.54,0.03
2055821978,-0.92,-0.54,0.03
2055823976,-0.92,-0.54,0.03
2055826111,-0.92,-0.54,0.03
2055828047,-0.92,-0.54,0.03
2055830034,-0.91,-0.56,0.07
2055832004,-0.91,-0.56,0.07
2055834000,-0.91,-0.56,0.07
2055836001,-0.91,-0.56,0.07
2055838006,-0.91,-0.56,0.07
2055839998,-0.96,-0.57,0.07
2055842010,-0.96,-0.57,0.07
2055843979,-0.96,-0.57,0.07
2055845979,-0.96,-0.57,0.07
2055847978,-0.96,-0.57,0.07
2055849986,-0.93,-0.57,0.06
2055852120,-0.93,-0.57,0.06
2055853977,-0.93,-0.57,0.06
2055855975,-0.93,-0.57,0.06
2055857977,-0.93,-0.57,0.06
2055859977,-0.99,-0.59,0.09
2055861976,-0.99,-0.59,0.09
2055863975,-0.99,-0.59,0.09
2055866018,-0.99,-0.59,0.09
2055868003,-0.99,-0.59,0.09
2055870001,-0.98,-0.58,0.10
2055872003,-0.98,-0.58,0.10
2055874001,-0.98,-0.58,0.10
2055876097,-0.98,-0.58,0.10
2055878003,-0.98,-0.58,0.10
2055879984,-1.00,-0.59,0.10
2055881980,-1.00,-0.59,0.10
2055883980,-1.00,-0.59,0.10
2055885978,-1.00,-0.59,0.10
2055887984,-1.00,-0.59,0.10
2055889988,-0.98,-0.57,0.10
2055891977,-0.98,-0.57,0.10
2055893981,-0.98,-0.57,0.10
2055895991,-0.98,-0.57,0.10
2055897977,-0.98,-0.57,0.10
2055899977,-0.98,-0.55,0.08
2055902087,-0.98,-0.55,0.08
2055903979,-0.98,-0.55,0.08
2055906007,-0.98,-0.55,0.08
2055908003,-0.98,-0.55,0.08
2055910002,-0.97,-0.52,0.09
2055912008,-0.97,-0.52,0.09
2055914048,-0.97,-0.52,0.09
2055916029,-0.97,-0.52,0.09
2055918004,-0.97,-0.52,0.09
2055920038,-0.95,-0.50,0.09
2055921978,-0.95,-0.50,0.09
2055923979,-0.95,-0.50,0.09
2055926096,-0.95,-0.50,0.09
2055927995,-0.95,-0.50,0.09
2055929978,-0.96,-0.48,0.08
2055931979,-0.96,-0.48,0.08
2055933976,-0.96,-0.48,0.08
2055935977,-0.96,-0.48,0.08
2055937976,-0.96,-0.48,0.08
2055939976,-0.96,-0.48,0.08
2055941975,-0.95,-0.45,0.08
2055943975,-0.95,-0.45,0.08
2055946017,-0.95,-0.45,0.08
2055948005,-0.95,-0.45,0.08
2055950003,-0.95,-0.45,0.08
2055952142,-0.97,-0.45,0.09
2055954007,-0.97,-0.45,0.09
2055956006,-0.97,-0.45,0.09
2055958008,-0.97,-0.45,0.09
2055959976,-0.97,-0.45,0.09
2055961978,-0.97,-0.43,0.12
2055963977,-0.97,-0.43,0.12
2055965977,-0.97,-0.43,0.12
2055967978,-0.97,-0.43,0.12
2055969977,-0.97,-0.43,0.12
2055971980,-0.99,-0.43,0.12
2055973980,-0.99,-0.43,0.12
2055976081,-0.99,-0.43,0.12
2055977987,-0.99,-0.43,0.12
2055979976,-0.99,-0.43,0.12
2055981981,-0.99,-0.43,0.12
2055983979,-0.99,-0.43,0.12
2055986019,-0.99,-0.43,0.12
2055988020,-0.99,-0.43,0.12
2055989974,-0.99,-0.43,0.12
2055991957,-1.00,-0.42,0.12
2055993961,-1.00,-0.42,0.12
2055995979,-1.00,-0.42,0.12
2055997958,-1.00,-0.42,0.12
2055999957,-1.00,-0.42,0.12
2056002081,-0.96,-0.39,0.12
2056003959,-0.96,-0.39,0.12
2056005958,-0.96,-0.39,0.12
2056007957,-0.96,-0.39,0.12
2056009957,-0.96,-0.39,0.12
2056011958,-0.94,-0.37,0.10
2056013958,-0.94,-0.37,0.10
2056015957,-0.94,-0.37,0.10
2056017958,-0.94,-0.37,0.10
2056019958,-0.94,-0.37,0.10
2056021957,-0.94,-0.35,0.10
2056023957,-0.94,-0.35,0.10
2056026034,-0.94,-0.35,0.10
2056027970,-0.94,-0.35,0.10
2056030000,-0.94,-0.35,0.10
2056032014,-0.92,-0.32,0.08
2056033959,-0.92,-0.32,0.08
2056044049,-0.93,-0.32,0.10
2056045999,-0.93,-0.32,0.10
2056047960,-0.93,-0.32,0.10
2056049960,-0.93,-0.32,0.10
2056052127,-0.93,-0.30,0.09
2056053958,-0.93,-0.30,0.09
2056055955,-0.93,-0.30,0.09
2056057957,-0.93,-0.30,0.09
2056059953,-0.93,-0.30,0.09
2056061972,-0.94,-0.28,0.09
2056063955,-0.94,-0.28,0.09
2056065957,-0.94,-0.28,0.09
2056067952,-0.94,-0.28,0.09
2056069957,-0.94,-0.28,0.09
2056071955,-0.94,-0.29,0.10
2056073953,-0.94,-0.29,0.10
2056076033,-0.94,-0.29,0.10
2056077966,-0.94,-0.29,0.10
2056079958,-0.94,-0.29,0.10
2056081955,-0.96,-0.28,0.08
2056083958,-0.96,-0.28,0.08
2056085957,-0.96,-0.28,0.08
2056087960,-0.96,-0.28,0.08
2056089971,-0.96,-0.28,0.08
2056091958,-0.95,-0.27,0.11
2056450057,-0.89,-0.25,0.01
2056452148,-0.89,-0.25,0.01
2056454007,-0.89,-0.25,0.01
2056456001,-0.89,-0.27,-0.02
2056458002,-0.89,-0.27,-0.02
2056460000,-0.89,-0.27,-0.02
2056462004,-0.89,-0.27,-0.02
2056464009,-0.89,-0.27,-0.02
2056465981,-0.89,-0.28,-0.03
2056467979,-0.89,-0.28,-0.03
2056469979,-0.89,-0.28,-0.03
2056471979,-0.89,-0.28,-0.03
2056473981,-0.89,-0.28,-0.03
2056476079,-0.89,-0.30,-0.03
2056477987,-0.89,-0.30,-0.03
2056479975,-0.89,-0.30,-0.03
2056481978,-0.89,-0.30,-0.03
2056483979,-0.89,-0.30,-0.03
2056485977,-0.89,-0.30,-0.03
2056487986,-0.91,-0.31,-0.04
2056490008,-0.91,-0.31,-0.04
2056492012,-0.91,-0.31,-0.04
2056494003,-0.91,-0.31,-0.04
2056496006,-0.91,-0.31,-0.04
2056498036,-0.91,-0.32,-0.04
2056500037,-0.91,-0.32,-0.04
2056502116,-0.91,-0.32,-0.04
2056504008,-0.91,-0.32,-0.04
2056505975,-0.91,-0.32,-0.04
2056507984,-0.91,-0.32,-0.03
2056509981,-0.91,-0.32,-0.03
2056511982,-0.91,-0.32,-0.03
2056513981,-0.91,-0.32,-0.03
2056515977,-0.91,-0.32,-0.03
2056517981,-0.91,-0.30,-0.06
2056519981,-0.91,-0.30,-0.06
2056521985,-0.91,-0.30,-0.06
2056523980,-0.91,-0.30,-0.06
2056526080,-0.91,-0.30,-0.06
2056527987,-0.91,-0.30,-0.06
2056530020,-0.91,-0.30,-0.06
2056532004,-0.91,-0.30,-0.06
2056534006,-0.91,-0.30,-0.06
2056536003,-0.91,-0.30,-0.06
2056538002,-0.91,-0.31,-0.06
2056540008,-0.91,-0.31,-0.06
2056541980,-0.91,-0.31,-0.06
2056543978,-0.91,-0.31,-0.06
2056545980,-0.91,-0.31,-0.06
2056547981,-0.91,-0.32,-0.07
2056549980,-0.91,-0.32,-0.07
2056552110,-0.91,-0.32,-0.07
2056553977,-0.91,-0.32,-0.07
2056555977,-0.91,-0.32,-0.07
2056557979,-0.90,-0.31,-0.07
2056559975,-0.90,-0.31,-0.07
2056561981,-0.90,-0.31,-0.07
2056563978,-0.90,-0.31,-0.07
2056565979,-0.90,-0.31,-0.07
2056567977,-0.91,-0.30,-0.05
2056570016,-0.91,-0.30,-0.05
2056572005,-0.91,-0.30,-0.05
2056574004,-0.91,-0.30,-0.05
2056576101,-0.91,-0.30,-0.05
2056578007,-0.91,-0.28,-0.04
2056580065,-0.91,-0.28,-0.04
2056581994,-0.91,-0.28,-0.04
2056583957,-0.91,-0.28,-0.04
2056585960,-0.91,-0.28,-0.04
2056587963,-0.92,-0.26,-0.02
2056589972,-0.92,-0.26,-0.02
2056591957,-0.92,-0.26,-0.02
2056593960,-0.92,-0.26,-0.02
2056595979,-0.92,-0.26,-0.02
2056597958,-0.93,-0.24,-0.00
2056599957,-0.93,-0.24,-0.00
2056602081,-0.93,-0.24,-0.00
2056603959,-0.93,-0.24,-0.00
2056605958,-0.93,-0.24,-0.00
2056607958,-0.94,-0.23,-0.01
2056609958,-0.94,-0.23,-0.01
2056611957,-0.94,-0.23,-0.01
2056613958,-0.94,-0.23,-0.01
2056615958,-0.94,-0.23,-0.01
2056617957,-0.95,-0.23,-0.01
2056642053,-0.96,-0.23,-0.01
2056644025,-0.96,-0.23,-0.01
2056646007,-0.96,-0.23,-0.01
2056647959,-0.95,-0.23,-0.00
2056649961,-0.95,-0.23,-0.00
2056652117,-0.95,-0.23,-0.00
2056653957,-0.95,-0.23,-0.00
2056655958,-0.95,-0.23,-0.00
2056657958,-0.95,-0.24,-0.01
2056659955,-0.95,-0.24,-0.01
2056661958,-0.95,-0.24,-0.01
2056663952,-0.95,-0.24,-0.01
2056665957,-0.95,-0.24,-0.01
2056667955,-0.95,-0.24,-0.01
2056669955,-0.95,-0.23,-0.02
2056671957,-0.95,-0.23,-0.02
2056673958,-0.95,-0.23,-0.02
2056676032,-0.95,-0.23,-0.02
2056677967,-0.95,-0.23,-0.02
2056679977,-0.96,-0.23,-0.03
2056681957,-0.96,-0.23,-0.03
2056683957,-0.96,-0.23,-0.03
2056685957,-0.96,-0.23,-0.03
2056687961,-0.96,-0.23,-0.03
2056689972,-0.96,-0.23,-0.04
2058620060,-0.96,-0.29,0.05
2058622072,-0.96,-0.29,0.05
2058624003,-0.96,-0.29,0.05
2058626109,-0.96,-0.29,0.05
2058628010,-0.96,-0.29,0.05
2058630000,-0.96,-0.28,0.04
2058632006,-0.96,-0.28,0.04
2058633979,-0.96,-0.28,0.04
2058635978,-0.96,-0.28,0.04
2058637977,-0.96,-0.28,0.04
2058639981,-0.96,-0.29,0.05
2058641979,-0.96,-0.29,0.05
2058643979,-0.96,-0.29,0.05
2058645978,-0.96,-0.29,0.05
2058647980,-0.96,-0.29,0.05
2058649978,-0.95,-0.27,0.04
2058652110,-0.95,-0.27,0.04
2058653976,-0.95,-0.27,0.04
2058655976,-0.95,-0.27,0.04
2058657975,-0.95,-0.27,0.04
2058660009,-0.96,-0.29,0.05
2058662021,-0.96,-0.29,0.05
2058664039,-0.96,-0.29,0.05
2058666002,-0.96,-0.29,0.05
2058668002,-0.96,-0.29,0.05
2058670002,-0.97,-0.28,0.05
2058672003,-0.97,-0.28,0.05
2058673995,-0.97,-0.28,0.05
2058676095,-0.97,-0.28,0.05
2058677990,-0.97,-0.28,0.05
2058679981,-0.97,-0.28,0.05
2058681980,-0.98,-0.27,0.07
2058684024,-0.98,-0.27,0.07
2058685989,-0.98,-0.27,0.07
2058687980,-0.98,-0.27,0.07
2058689988,-0.98,-0.27,0.07
2058691975,-0.99,-0.28,0.06
2058693984,-0.99,-0.28,0.06
2058695992,-0.99,-0.28,0.06
2058697975,-0.99,-0.28,0.06
2058700017,-0.99,-0.28,0.06
2058702116,-1.00,-0.27,0.06
2058704002,-1.00,-0.27,0.06
2058706005,-1.00,-0.27,0.06
2058708007,-1.00,-0.27,0.06
2058710051,-1.00,-0.27,0.06
2058712012,-1.00,-0.27,0.06
2058713976,-1.00,-0.27,0.06
2058715981,-1.00,-0.27,0.06
2058717980,-1.00,-0.27,0.06
2058719979,-1.00,-0.27,0.06
2058721984,-1.00,-0.27,0.04
2058723981,-1.00,-0.27,0.04
2058726086,-1.00,-0.27,0.04
2058727989,-1.00,-0.27,0.04
2058729979,-1.00,-0.27,0.04
2058731984,-1.00,-0.26,0.03
2058733981,-1.00,-0.26,0.03
2058735979,-1.00,-0.26,0.03
2058737980,-1.00,-0.26,0.03
2058740016,-1.00,-0.26,0.03
2058742006,-1.00,-0.27,0.02
2058744003,-1.00,-0.27,0.02
2058746002,-1.00,-0.27,0.02
2058748009,-1.00,-0.27,0.02
2058750023,-1.00,-0.27,0.02
2058752118,-1.01,-0.27,0.02
2058753958,-1.01,-0.27,0.02
2058755957,-1.01,-0.27,0.02
2058757955,-1.01,-0.27,0.02
2058759958,-1.01,-0.27,0.02
2058761955,-1.02,-0.26,0.01
2058763955,-1.02,-0.26,0.01
2058765952,-1.02,-0.26,0.01
2058767953,-1.02,-0.26,0.01
2058769958,-1.02,-0.26,0.01
2058771958,-1.02,-0.25,0.01
2058773955,-1.02,-0.25,0.01
2058776030,-1.02,-0.25,0.01
2058777968,-1.02,-0.25,0.01
2058779957,-1.02,-0.25,0.01
2058781955,-1.03,-0.24,0.01
2058783957,-1.03,-0.24,0.01
2058785987,-1.03,-0.24,0.01
2058788018,-1.03,-0.24,0.01
2058818056,-1.00,-0.23,0.01
2058820002,-1.00,-0.23,0.01
2058821999,-0.99,-0.22,0.00
2058824000,-0.99,-0.22,0.00
2058826110,-0.99,-0.22,0.00
2058828005,-0.99,-0.22,0.00
2058830001,-0.99,-0.22,0.00
2058832002,-0.96,-0.22,-0.01
2058834003,-0.96,-0.22,-0.01
2058835974,-0.96,-0.22,-0.01
2058837978,-0.96,-0.22,-0.01
2058839980,-0.96,-0.22,-0.01
2058841981,-0.93,-0.23,-0.01
2058843981,-0.93,-0.23,-0.01
2058845981,-0.93,-0.23,-0.01
2058847977,-0.93,-0.23,-0.01
2058849982,-0.93,-0.23,-0.01
2058852111,-0.89,-0.25,-0.03
2058853976,-0.89,-0.25,-0.03
2058855976,-0.89,-0.25,-0.03
2058858010,-0.89,-0.25,-0.03
2058860001,-0.89,-0.25,-0.03
2058861999,-0.88,-0.25,-0.04
2058863999,-0.88,-0.25,-0.04
2058866002,-0.88,-0.25,-0.04
2058867999,-0.88,-0.25,-0.04
2058869997,-0.88,-0.25,-0.04
2058871977,-0.88,-0.25,-0.04
2058873980,-0.87,-0.26,-0.05
2058876086,-0.87,-0.26,-0.05
2058877990,-0.87,-0.26,-0.05
2058879989,-0.87,-0.26,-0.05
2058881985,-0.87,-0.26,-0.05
2058883979,-0.87,-0.26,-0.06
2058885981,-0.87,-0.26,-0.06
2058887981,-0.87,-0.26,-0.06
2058889992,-0.87,-0.26,-0.06
2058891978,-0.87,-0.26,-0.06
2058893980,-0.87,-0.24,-0.06
2058895988,-0.87,-0.24,-0.06
2058898011,-0.87,-0.24,-0.06
2058900028,-0.87,-0.24,-0.06
2058902148,-0.87,-0.24,-0.06
2058904001,-0.87,-0.22,-0.07
2058906003,-0.87,-0.22,-0.07
2058908006,-0.87,-0.22,-0.07
2058910004,-0.87,-0.22,-0.07
2058912006,-0.87,-0.22,-0.07
2058914000,-0.86,-0.22,-0.08
2058916008,-0.86,-0.22,-0.08
2058917977,-0.86,-0.22,-0.08
2058919977,-0.86,-0.22,-0.08
2058921977,-0.86,-0.22,-0.08
2058923980,-0.87,-0.23,-0.09
2058926085,-0.87,-0.23,-0.09
2058927987,-0.87,-0.23,-0.09
2058929976,-0.87,-0.23,-0.09
2058931983,-0.87,-0.23,-0.09
2058933992,-0.88,-0.25,-0.11
2058935979,-0.88,-0.25,-0.11
2058938013,-0.88,-0.25,-0.11
2058940002,-0.88,-0.25,-0.11
2058942005,-0.88,-0.25,-0.11
2058944004,-0.90,-0.27,-0.12
2058946002,-0.90,-0.27,-0.12
2058948005,-0.90,-0.27,-0.12
2058950006,-0.90,-0.27,-0.12
2058952123,-0.90,-0.27,-0.12
2058953978,-0.91,-0.29,-0.13
2058955974,-0.91,-0.29,-0.13
2058957977,-0.91,-0.29,-0.13
2058959977,-0.91,-0.29,-0.13
2058961976,-0.91,-0.29,-0.13
2058963974,-0.92,-0.31,-0.12
2058965976,-0.92,-0.31,-0.12
2058967986,-0.92,-0.31,-0.12
2058970043,-0.92,-0.31,-0.12
2058971980,-0.92,-0.31,-0.12
2058973977,-0.93,-0.31,-0.11
2058976089,-0.93,-0.31,-0.11
2058978022,-0.93,-0.31,-0.11
2058980001,-0.93,-0.31,-0.11
2058981999,-0.93,-0.31,-0.11
2058984001,-0.94,-0.30,-0.11
2058986003,-0.94,-0.30,-0.11
2058988021,-0.94,-0.30,-0.11
2058990006,-0.94,-0.30,-0.11
2058992009,-0.94,-0.30,-0.11
2058993960,-0.94,-0.28,-0.11
2058995973,-0.94,-0.28,-0.11
2058997957,-0.94,-0.28,-0.11
2058999957,-0.94,-0.28,-0.11
2059002084,-0.94,-0.28,-0.11
2059003958,-0.95,-0.28,-0.11
2059005957,-0.95,-0.28,-0.11
2059007959,-0.95,-0.28,-0.11
2059009957,-0.95,-0.28,-0.11
2059011964,-0.95,-0.28,-0.11
2059013959,-0.96,-0.28,-0.09
2059015957,-0.96,-0.28,-0.09
2059018014,-0.96,-0.28,-0.09
2059019962,-0.96,-0.28,-0.09
2059021959,-0.96,-0.28,-0.09
2059023993,-0.96,-0.28,-0.10
2059026053,-0.96,-0.28,-0.10
2059126121,-0.92,-0.29,-0.11
2059128009,-0.92,-0.29,-0.11
2059130008,-0.92,-0.29,-0.11
2059132003,-0.92,-0.29,-0.11
2059134002,-0.92,-0.29,-0.11
2059136000,-0.91,-0.30,-0.11
2059138010,-0.91,-0.30,-0.11
2059139976,-0.91,-0.30,-0.11
2059141974,-0.91,-0.30,-0.11
2059143986,-0.91,-0.30,-0.11
2059145979,-0.90,-0.30,-0.11
2059147984,-0.90,-0.30,-0.11
2059149984,-0.90,-0.30,-0.11
2059152110,-0.90,-0.30,-0.11
2059153975,-0.90,-0.30,-0.11
2059155976,-0.90,-0.30,-0.12
2059157974,-0.90,-0.30,-0.12
2059159974,-0.90,-0.30,-0.12
2059161974,-0.90,-0.30,-0.12
2059163976,-0.90,-0.30,-0.12
2059166017,-0.92,-0.30,-0.10
2059168002,-0.92,-0.30,-0.10
2059170002,-0.92,-0.30,-0.10
2059172002,-0.92,-0.30,-0.10
2059174001,-0.92,-0.30,-0.10
2059176108,-0.91,-0.29,-0.16
2059178021,-0.91,-0.29,-0.16
2059179957,-0.91,-0.29,-0.16
2059181957,-0.91,-0.29,-0.16
2059183957,-0.91,-0.29,-0.16
2059185977,-0.93,-0.31,-0.17
2059187958,-0.93,-0.31,-0.17
2059189972,-0.93,-0.31,-0.17
2059191957,-0.93,-0.31,-0.17
2059193961,-0.93,-0.31,-0.17
2059195980,-0.90,-0.31,-0.18
2059197958,-0.90,-0.31,-0.18
2059199957,-0.90,-0.31,-0.18
2059202069,-0.90,-0.31,-0.18
2059203958,-0.90,-0.31,-0.18
2059205957,-0.93,-0.34,-0.19
2059207964,-0.93,-0.34,-0.19
2059209958,-0.93,-0.34,-0.19
2059211958,-0.93,-0.34,-0.19
2059213957,-0.93,-0.34,-0.19
2059226121,-0.95,-0.35,-0.19
2059228006,-0.95,-0.35,-0.19
2059230006,-0.95,-0.35,-0.19
2059232002,-0.95,-0.35,-0.19
2059234004,-0.95,-0.35,-0.19
2059236002,-0.95,-0.35,-0.19
2059238003,-0.97,-0.35,-0.18
2059240008,-0.97,-0.35,-0.18
2059241977,-0.97,-0.35,-0.18
2059243977,-0.97,-0.35,-0.18
2059245981,-0.97,-0.35,-0.18
2059247979,-0.99,-0.34,-0.15
2059249982,-0.99,-0.34,-0.15
2059252110,-0.99,-0.34,-0.15
2059253978,-0.99,-0.34,-0.15
2059255979,-0.99,-0.34,-0.15
2059257978,-1.00,-0.32,-0.12
2059259975,-1.00,-0.32,-0.12
2059261975,-1.00,-0.32,-0.12
2059263978,-1.00,-0.32,-0.12
2059266014,-1.00,-0.32,-0.12
2059268003,-1.00,-0.31,-0.09
2059269999,-1.00,-0.31,-0.09
2059272003,-1.00,-0.31,-0.09
2059274008,-1.00,-0.31,-0.09
2059276105,-1.00,-0.31,-0.09
2059278013,-1.00,-0.30,-0.07
2059279984,-1.00,-0.30,-0.07
2059281979,-1.00,-0.30,-0.07
2059283979,-1.00,-0.30,-0.07
2059285978,-1.00,-0.30,-0.07
2059287981,-1.01,-0.29,-0.06
2059289990,-1.01,-0.29,-0.06
2059291979,-1.01,-0.29,-0.06
2059293984,-1.01,-0.29,-0.06
2059295990,-1.01,-0.29,-0.06
2059298000,-1.01,-0.28,-0.03
2059300018,-1.01,-0.28,-0.03
2059302094,-1.01,-0.28,-0.03
2059303977,-1.01,-0.28,-0.03
2059306014,-1.01,-0.28,-0.03
2059308010,-1.00,-0.29,-0.00
2059310016,-1.00,-0.29,-0.00
2059311959,-1.00,-0.29,-0.00
2059313957,-1.00,-0.29,-0.00
2059315958,-1.00,-0.29,-0.00
2059317957,-1.00,-0.29,0.01
2059319960,-1.00,-0.29,0.01
2059321958,-1.00,-0.29,0.01
2059323992,-1.00,-0.29,0.01
2059326114,-1.00,-0.29,0.01
2059327972,-1.00,-0.29,0.03
2059329957,-1.00,-0.29,0.03
2059331957,-1.00,-0.29,0.03
2059333957,-1.00,-0.29,0.03
2059335957,-1.00,-0.29,0.03
2059337961,-1.01,-0.28,0.04
2059339959,-1.01,-0.28,0.04
2059341957,-1.01,-0.28,0.04
2059343958,-1.01,-0.28,0.04
2059345957,-1.01,-0.28,0.04
2059347957,-1.00,-0.28,0.08
2059349961,-1.00,-0.28,0.08
2059352102,-1.00,-0.28,0.08
2059353957,-1.00,-0.28,0.08
2059384038,-0.99,-0.25,0.14
2059386004,-0.99,-0.25,0.14
2059388006,-0.99,-0.25,0.18
2059390004,-0.99,-0.25,0.18
2059392005,-0.99,-0.25,0.18
2059394003,-0.99,-0.25,0.18
2059396007,-0.99,-0.25,0.18
2059398008,-0.98,-0.25,0.19
2059400009,-0.98,-0.25,0.19
2059402093,-0.98,-0.25,0.19
2059403981,-0.98,-0.25,0.19
2059405985,-0.98,-0.25,0.19
2059407977,-0.99,-0.25,0.20
2059409975,-0.99,-0.25,0.20
2059411980,-0.99,-0.25,0.20
2059413976,-0.99,-0.25,0.20
2059415981,-0.99,-0.25,0.20
2059417977,-0.99,-0.25,0.20
2059419978,-0.98,-0.26,0.21
2059421977,-0.98,-0.26,0.21
2059424014,-0.98,-0.26,0.21
2059426099,-0.98,-0.26,0.21
2059428049,-0.98,-0.26,0.21
2059430006,-0.97,-0.26,0.22
2059432036,-0.97,-0.26,0.22
2059434022,-0.97,-0.26,0.22
2059436032,-0.97,-0.26,0.22
2059438006,-0.97,-0.26,0.22
2059440007,-0.97,-0.28,0.21
2059442013,-0.97,-0.28,0.21
2059443977,-0.97,-0.28,0.21
2059445976,-0.97,-0.28,0.21
2059447981,-0.97,-0.28,0.21
2059449980,-0.97,-0.29,0.21
2059452123,-0.97,-0.29,0.21
2059453973,-0.97,-0.29,0.21
2059455977,-0.97,-0.29,0.21
2059457976,-0.97,-0.29,0.21
2059459975,-0.97,-0.29,0.19
2059461975,-0.97,-0.29,0.19
2059464017,-0.97,-0.29,0.19
2059466007,-0.97,-0.29,0.19
2059468006,-0.97,-0.29,0.19
2059470006,-0.96,-0.30,0.18
2059472006,-0.96,-0.30,0.18
2059474003,-0.96,-0.30,0.18
2059476098,-0.96,-0.30,0.18
2059477989,-0.96,-0.30,0.18
2059479979,-0.95,-0.30,0.17
2059481984,-0.95,-0.30,0.17
2059483979,-0.95,-0.30,0.17
2059485977,-0.95,-0.30,0.17
2059487980,-0.95,-0.30,0.17
2059489990,-0.97,-0.32,0.15
2059491975,-0.97,-0.32,0.15
2059493979,-0.97,-0.32,0.15
2059495988,-0.97,-0.32,0.15
2059497976,-0.97,-0.32,0.15
2059499978,-0.97,-0.33,0.12
2059502065,-0.97,-0.33,0.12
2059504052,-0.97,-0.33,0.12
2059506004,-0.97,-0.33,0.12
2059508007,-0.97,-0.33,0.12
2059510004,-0.97,-0.33,0.12
2059512004,-0.97,-0.33,0.12
2059514005,-0.97,-0.33,0.12
2059516010,-0.97,-0.33,0.12
2059517972,-0.97,-0.33,0.12
2059519979,-0.96,-0.33,0.11
2059521978,-0.96,-0.33,0.11
2059523979,-0.96,-0.33,0.11
2059526086,-0.96,-0.33,0.11
2059527990,-0.96,-0.33,0.11
2059530021,-0.97,-0.34,0.09
2059531979,-0.97,-0.34,0.09
2059533977,-0.97,-0.34,0.09
2059535985,-0.97,-0.34,0.09
2059537977,-0.97,-0.34,0.09
2059539979,-0.97,-0.34,0.09
2059541979,-0.97,-0.34,0.09
2059544020,-0.97,-0.34,0.09
2059546028,-0.97,-0.34,0.09
2059548003,-0.97,-0.34,0.09
2059549961,-0.96,-0.34,0.09
2059552122,-0.96,-0.34,0.09
2059553958,-0.96,-0.34,0.09
2059555955,-0.96,-0.34,0.09
2059557958,-0.96,-0.34,0.09
2059559958,-0.96,-0.35,0.08
2059561955,-0.96,-0.35,0.08
2059563957,-0.96,-0.35,0.08
2059565958,-0.96,-0.35,0.08
2059567958,-0.96,-0.35,0.08
2059569955,-0.94,-0.35,0.08
2059571955,-0.94,-0.35,0.08
2059573958,-0.94,-0.35,0.08
2059576032,-0.94,-0.35,0.08
2059577967,-0.94,-0.35,0.08
2059579952,-0.92,-0.36,0.09
2059581959,-0.92,-0.36,0.09
2059584073,-0.92,-0.36,0.09
2059586042,-0.92,-0.36,0.09
2059588005,-0.92,-0.36,0.09
2059590014,-0.92,-0.36,0.07
2059592003,-0.92,-0.36,0.07
2059596017,-0.92,-0.36,0.07
2059598002,-0.92,-0.36,0.07
2059600005,-0.91,-0.36,0.07
2059602122,-0.91,-0.36,0.07
2059604006,-0.91,-0.36,0.07
2059606002,-0.91,-0.36,0.07
2059608007,-0.91,-0.36,0.07
2059609985,-0.91,-0.36,0.07
2059611976,-0.92,-0.34,0.07
2059613981,-0.92,-0.34,0.07
2059615980,-0.92,-0.34,0.07
2059617979,-0.92,-0.34,0.07
2059619981,-0.92,-0.34,0.07
2059622050,-0.92,-0.33,0.08
2059623976,-0.92,-0.33,0.08
2059626076,-0.92,-0.33,0.08
2059627986,-0.92,-0.33,0.08
2059629976,-0.92,-0.33,0.08
2059632019,-0.93,-0.31,0.08
2059633978,-0.93,-0.31,0.08
2059636047,-0.93,-0.31,0.08
2059638027,-0.93,-0.31,0.08
2059640023,-0.93,-0.31,0.08
2059642005,-0.94,-0.29,0.08
2059644004,-0.94,-0.29,0.08
2059646005,-0.94,-0.29,0.08
2059648006,-0.94,-0.29,0.08
2059650008,-0.94,-0.29,0.08
2059652130,-0.94,-0.28,0.09
2059653977,-0.94,-0.28,0.09
2059655976,-0.94,-0.28,0.09
2059657977,-0.94,-0.28,0.09
2059659977,-0.94,-0.28,0.09
2059661977,-0.94,-0.28,0.10
2059663975,-0.94,-0.28,0.10
2059665982,-0.94,-0.28,0.10
2059667979,-0.94,-0.28,0.10
2059669975,-0.94,-0.28,0.10
2059671977,-0.95,-0.28,0.09
2059673977,-0.95,-0.28,0.09
2059676104,-0.95,-0.28,0.09
2059678008,-0.95,-0.28,0.09
2059680005,-0.95,-0.28,0.09
2059682004,-0.96,-0.28,0.09
2059684000,-0.96,-0.28,0.09
2059686009,-0.96,-0.28,0.09
2059688008,-0.96,-0.28,0.09
2059689990,-0.96,-0.28,0.09
2059691979,-0.96,-0.28,0.09
2059693977,-0.96,-0.28,0.09
2059695997,-0.96,-0.28,0.09
2059697974,-0.96,-0.28,0.09
2059699974,-0.96,-0.28,0.09
2059702088,-0.98,-0.27,0.09
2059703975,-0.98,-0.27,0.09
2059705979,-0.98,-0.27,0.09
2059707975,-0.98,-0.27,0.09
2059709975,-0.98,-0.27,0.09
2059711975,-0.99,-0.26,0.08
2059713979,-0.99,-0.26,0.08
2059716014,-0.99,-0.26,0.08
2059718003,-0.99,-0.26,0.08
2059720004,-0.99,-0.26,0.08
2059722005,-0.99,-0.25,0.07
2059724068,-0.99,-0.25,0.07
2059726114,-0.99,-0.25,0.07
2059728010,-0.99,-0.25,0.07
2059730008,-0.99,-0.25,0.07
2059731989,-1.00,-0.25,0.07
2059733998,-1.00,-0.25,0.07
2059736012,-1.00,-0.25,0.07
2059737979,-1.00,-0.25,0.07
2059739975,-1.00,-0.25,0.07
2059741975,-1.00,-0.24,0.05
2059743979,-1.00,-0.24,0.05
2059745979,-1.00,-0.24,0.05
2059747978,-1.00,-0.24,0.05
2059749980,-1.00,-0.24,0.05
2059752119,-1.00,-0.24,0.03
2059753980,-1.00,-0.24,0.03
2059756020,-1.00,-0.24,0.03
2059758033,-1.00,-0.24,0.03
2059759963,-1.00,-0.24,0.03
2059761958,-1.01,-0.24,0.02
2059763958,-1.01,-0.24,0.02
2059765958,-1.01,-0.24,0.02
2059767958,-1.01,-0.24,0.02
2059769958,-1.01,-0.24,0.02
2059771953,-1.00,-0.25,-0.00
2059773957,-1.00,-0.25,-0.00
2059776067,-1.00,-0.25,-0.00
2059777968,-1.00,-0.25,-0.00
2059779957,-1.00,-0.25,-0.00
2059781955,-1.01,-0.25,-0.02
2059783955,-1.01,-0.25,-0.02
2059785958,-1.01,-0.25,-0.02
2059787960,-1.01,-0.25,-0.02
2059790030,-1.01,-0.25,-0.02
2059792034,-1.00,-0.25,-0.05
2059794006,-1.00,-0.25,-0.05
2059796007,-1.00,-0.25,-0.05
2059798003,-1.00,-0.25,-0.05
2059800003,-1.00,-0.25,-0.05
2059802128,-1.00,-0.25,-0.05
2059804004,-1.00,-0.25,-0.05
2059806005,-1.00,-0.25,-0.05
2059808005,-1.00,-0.25,-0.05
2059810007,-1.00,-0.25,-0.05
2059812038,-1.00,-0.25,-0.05
2059814003,-0.98,-0.24,-0.06
2059816004,-0.98,-0.24,-0.06
2059818008,-0.98,-0.24,-0.06
2059819976,-0.98,-0.24,-0.06
2059821976,-0.98,-0.24,-0.06
2059823984,-0.96,-0.23,-0.05
2059826087,-0.96,-0.23,-0.05
2059827987,-0.96,-0.23,-0.05
2059829980,-0.96,-0.23,-0.05
2059831980,-0.96,-0.23,-0.05
2059833979,-0.95,-0.23,-0.05
2059835981,-0.95,-0.23,-0.05
2059838017,-0.95,-0.23,-0.05
2059839988,-0.95,-0.23,-0.05
2059842113,-0.95,-0.23,-0.05
2059844045,-0.94,-0.21,-0.05
2059846004,-0.94,-0.21,-0.05
2059848003,-0.94,-0.21,-0.05
2059850004,-0.94,-0.21,-0.05
2059852152,-0.94,-0.21,-0.05
2059854005,-0.93,-0.21,-0.04
2059856005,-0.93,-0.21,-0.04
2059858011,-0.93,-0.21,-0.04
2059859980,-0.93,-0.21,-0.04
2059861980,-0.93,-0.21,-0.04
2059863984,-0.91,-0.21,-0.04
2059865980,-0.91,-0.21,-0.04
2059867977,-0.91,-0.21,-0.04
2059869977,-0.91,-0.21,-0.04
2059871979,-0.91,-0.21,-0.04
2059873980,-0.89,-0.21,-0.04
2059876085,-0.89,-0.21,-0.04
2059877987,-0.89,-0.21,-0.04
2059879980,-0.89,-0.21,-0.04
2059881980,-0.89,-0.21,-0.04
2059884013,-0.88,-0.21,-0.04
2059886005,-0.88,-0.21,-0.04
2059888002,-0.88,-0.21,-0.04
2059890012,-0.88,-0.21,-0.04
2059892005,-0.88,-0.21,-0.04
2059894008,-0.88,-0.22,-0.05
2059896011,-0.88,-0.22,-0.05
2059897979,-0.88,-0.22,-0.05
2059899973,-0.88,-0.22,-0.05
2059902092,-0.88,-0.22,-0.05
2059903980,-0.88,-0.24,-0.06
2059905976,-0.88,-0.24,-0.06
2059907976,-0.88,-0.24,-0.06
2059909978,-0.88,-0.24,-0.06
2059911977,-0.88,-0.24,-0.06
2059913979,-0.89,-0.25,-0.06
2059915978,-0.89,-0.25,-0.06
2059917978,-0.89,-0.25,-0.06
2059919978,-0.89,-0.25,-0.06
2059921980,-0.89,-0.25,-0.06
2059924008,-0.89,-0.26,-0.06
2059926092,-0.89,-0.26,-0.06
2059928017,-0.89,-0.26,-0.06
2059930032,-0.89,-0.26,-0.06
2059932021,-0.89,-0.26,-0.06
2059934005,-0.90,-0.28,-0.07
2059936006,-0.90,-0.28,-0.07
2059938011,-0.90,-0.28,-0.07
2059940021,-0.90,-0.28,-0.07
2059941977,-0.90,-0.28,-0.07
2059943980,-0.92,-0.30,-0.07
2059945976,-0.92,-0.30,-0.07
2059947984,-0.92,-0.30,-0.07
2059949980,-0.92,-0.30,-0.07
2059952127,-0.92,-0.30,-0.07
2059953978,-0.93,-0.32,-0.08
2059955979,-0.93,-0.32,-0.08
2059957977,-0.93,-0.32,-0.08
2059959978,-0.93,-0.32,-0.08
2059961976,-0.93,-0.32,-0.08
2059964037,-0.94,-0.32,-0.09
2059965990,-0.94,-0.32,-0.09
2059967958,-0.94,-0.32,-0.09
2059969958,-0.94,-0.32,-0.09
2059971955,-0.94,-0.32,-0.09
2059973955,-0.94,-0.32,-0.09
2059976068,-0.94,-0.33,-0.09
2059977966,-0.94,-0.33,-0.09
2059979955,-0.94,-0.33,-0.09
2059981958,-0.94,-0.33,-0.09
2059983958,-0.94,-0.33,-0.09
2059985957,-0.95,-0.34,-0.09
2059987961,-0.95,-0.34,-0.09
2059989974,-0.95,-0.34,-0.09
2059991957,-0.95,-0.34,-0.09
2059993959,-0.95,-0.34,-0.09
2059995981,-0.97,-0.34,-0.09
2059997958,-0.97,-0.34,-0.09
2059999957,-0.97,-0.34,-0.09
2060002048,-0.97,-0.34,-0.09
2060003958,-0.97,-0.34,-0.09
2060005957,-0.98,-0.34,-0.09
2060007957,-0.98,-0.34,-0.09
2060009958,-0.98,-0.34,-0.09
2060011958,-0.98,-0.34,-0.09
2060056049,-1.00,-0.32,-0.07
2060058001,-1.00,-0.32,-0.07
2060060005,-1.00,-0.32,-0.07
2060062003,-1.00,-0.32,-0.07
2060064003,-1.00,-0.32,-0.07
2060066001,-0.98,-0.31,-0.05
2060068008,-0.98,-0.31,-0.05
2060070005,-0.98,-0.31,-0.05
2060071985,-0.98,-0.31,-0.05
2060073981,-0.98,-0.31,-0.05
2060076080,-0.96,-0.30,-0.06
2060077989,-0.96,-0.30,-0.06
2060079977,-0.96,-0.30,-0.06
2060081979,-0.96,-0.30,-0.06
2060083974,-0.96,-0.30,-0.06
2060085976,-0.95,-0.28,-0.07
2060087981,-0.95,-0.28,-0.07
2060089988,-0.95,-0.28,-0.07
2060091976,-0.95,-0.28,-0.07
2060093979,-0.95,-0.28,-0.07
2060096019,-0.95,-0.26,-0.08
2060098010,-0.95,-0.26,-0.08
2060100048,-0.95,-0.26,-0.08
2060102140,-0.95,-0.26,-0.08
2060104008,-0.95,-0.26,-0.08
2060106006,-0.92,-0.25,-0.08
2060108005,-0.92,-0.25,-0.08
2060110014,-0.92,-0.25,-0.08
2060111980,-0.92,-0.25,-0.08
2060113975,-0.92,-0.25,-0.08
2060115981,-0.92,-0.24,-0.09
2060118014,-0.92,-0.24,-0.09
2060119980,-0.92,-0.24,-0.09
2060121979,-0.92,-0.24,-0.09
2060123978,-0.92,-0.24,-0.09
2060126090,-0.92,-0.25,-0.09
2060127987,-0.92,-0.25,-0.09
2060129977,-0.92,-0.25,-0.09
2060131976,-0.92,-0.25,-0.09
2060133976,-0.92,-0.25,-0.09
2060136019,-0.93,-0.25,-0.09
2060138009,-0.93,-0.25,-0.09
2060140008,-0.93,-0.25,-0.09
2060142007,-0.93,-0.25,-0.09
2060144035,-0.93,-0.25,-0.09
2060146022,-0.94,-0.25,-0.09
2060148015,-0.94,-0.25,-0.09
2060149986,-0.94,-0.25,-0.09
2060152127,-0.94,-0.25,-0.09
2060153976,-0.94,-0.25,-0.09
2060155977,-0.94,-0.25,-0.09
2060157974,-0.93,-0.25,-0.09
2060159975,-0.93,-0.25,-0.09
2060161975,-0.93,-0.25,-0.09
2060163977,-0.93,-0.25,-0.09
2060165978,-0.93,-0.25,-0.09
2060167974,-0.93,-0.25,-0.09
2060169976,-0.93,-0.25,-0.09
2060171976,-0.93,-0.25,-0.09
2060173976,-0.93,-0.25,-0.09
2060176101,-0.93,-0.25,-0.09
2060178011,-0.91,-0.25,-0.09
2060180024,-0.91,-0.25,-0.09
2060181958,-0.91,-0.25,-0.09
2060183960,-0.91,-0.25,-0.09
2060185977,-0.91,-0.25,-0.09
2060187959,-0.92,-0.25,-0.10
2060189979,-0.92,-0.25,-0.10
2060191959,-0.92,-0.25,-0.10
2060193960,-0.92,-0.25,-0.10
2060195979,-0.92,-0.25,-0.10
2060197958,-0.92,-0.25,-0.11
2060199958,-0.92,-0.25,-0.11
2060202141,-0.92,-0.25,-0.11
2060204035,-0.92,-0.25,-0.11
2060206004,-0.92,-0.25,-0.11
2060208006,-0.91,-0.24,-0.10
2060210008,-0.91,-0.24,-0.10
2060212005,-0.91,-0.24,-0.10
2060214009,-0.91,-0.24,-0.10
2060216008,-0.91,-0.24,-0.10
2060218005,-0.91,-0.25,-0.10
2060220003,-0.91,-0.25,-0.10
2060222007,-0.91,-0.25,-0.10
2060224006,-0.91,-0.25,-0.10
2060226213,-0.91,-0.25,-0.10
2060228061,-0.91,-0.26,-0.11
2060230012,-0.91,-0.26,-0.11
2060231992,-0.91,-0.26,-0.11
2060233979,-0.91,-0.26,-0.11
2060235975,-0.91,-0.26,-0.11
2060237977,-0.93,-0.27,-0.11
2060239976,-0.93,-0.27,-0.11
2060241980,-0.93,-0.27,-0.11
2060243979,-0.93,-0.27,-0.11
2060245981,-0.93,-0.27,-0.11
2060248030,-0.94,-0.29,-0.14
2060250054,-0.94,-0.29,-0.14
2060252154,-0.94,-0.29,-0.14
2060253980,-0.94,-0.29,-0.14
2060256020,-0.94,-0.29,-0.14
2060258003,-0.96,-0.30,-0.15
2060260007,-0.96,-0.30,-0.15
2060262009,-0.96,-0.30,-0.15
2060264009,-0.96,-0.30,-0.15
2060266008,-0.96,-0.30,-0.15
2060268005,-0.98,-0.30,-0.16
2060269979,-0.98,-0.30,-0.16
2060271980,-0.98,-0.30,-0.16
2060273980,-0.98,-0.30,-0.16
2060276078,-0.98,-0.30,-0.16
2060277989,-1.02,-0.31,-0.14
2060279984,-1.02,-0.31,-0.14
2060281981,-1.02,-0.31,-0.14
2060283979,-1.02,-0.31,-0.14
2060285980,-1.02,-0.31,-0.14
2060287979,-1.02,-0.30,-0.12
2060289987,-1.02,-0.30,-0.12
2060291977,-1.02,-0.30,-0.12
2060293980,-1.02,-0.30,-0.12
2060296015,-1.02,-0.30,-0.12
2060298006,-1.00,-0.30,-0.08
2060300006,-1.00,-0.30,-0.08
2060302111,-1.00,-0.30,-0.08
2060304009,-1.00,-0.30,-0.08
2060306011,-1.00,-0.30,-0.08
2060308013,-0.98,-0.29,-0.04
2060309981,-0.98,-0.29,-0.04
2060311980,-0.98,-0.29,-0.04
2060313978,-0.98,-0.29,-0.04
2060315984,-0.98,-0.29,-0.04
2060317980,-0.97,-0.26,-0.01
2060319977,-0.97,-0.26,-0.01
2060321986,-0.97,-0.26,-0.01
2060323980,-0.97,-0.26,-0.01
2060326077,-0.97,-0.26,-0.01
2060327987,-0.98,-0.25,0.00
2060329977,-0.98,-0.25,0.00
2060331978,-0.98,-0.25,0.00
2060333979,-0.98,-0.25,0.00
2060336010,-0.98,-0.25,0.00
2060338004,-0.98,-0.24,0.05
2060340006,-0.98,-0.24,0.05
2060342036,-0.98,-0.24,0.05
2060344038,-0.98,-0.24,0.05
2060346009,-0.98,-0.24,0.05
2060348009,-0.98,-0.24,0.05
2060350043,-0.99,-0.25,0.07
2060352126,-0.99,-0.25,0.07
2060353974,-0.99,-0.25,0.07
2060355979,-0.99,-0.25,0.07
2060357979,-0.99,-0.25,0.07
2060359977,-1.00,-0.25,0.07
2060361978,-1.00,-0.25,0.07
2060363980,-1.00,-0.25,0.07
2060365979,-1.00,-0.25,0.07
2060367978,-1.00,-0.25,0.07
2060369975,-1.00,-0.26,0.13
2060371979,-1.00,-0.26,0.13
2060373975,-1.00,-0.26,0.13
2060376101,-1.00,-0.26,0.13
2060378009,-1.00,-0.26,0.13
2060380037,-0.97,-0.28,0.12
2060381972,-0.97,-0.28,0.12
2060383956,-0.97,-0.28,0.12
2060385956,-0.97,-0.28,0.12
2060387964,-0.97,-0.28,0.12
2060389973,-1.03,-0.25,0.14
2060391956,-1.03,-0.25,0.14
2060393959,-1.03,-0.25,0.14
2060395975,-1.03,-0.25,0.14
2060397956,-1.03,-0.25,0.14
2060399957,-0.97,-0.29,0.15
2060402074,-0.97,-0.29,0.15
2060403956,-0.97,-0.29,0.15
2060406051,-0.97,-0.29,0.15
2060408040,-0.97,-0.29,0.15
2060410029,-1.01,-0.30,0.14
2060412009,-1.01,-0.30,0.14
2060414006,-1.01,-0.30,0.14
2060416006,-1.01,-0.30,0.14
2060418011,-1.01,-0.30,0.14
2060420008,-0.98,-0.28,0.12
2060422010,-0.98,-0.28,0.12
2060424008,-0.98,-0.28,0.12
2060426117,-0.98,-0.28,0.12
2060428012,-0.98,-0.28,0.12
2060430007,-0.97,-0.30,0.12
2060432010,-0.97,-0.30,0.12
2060433980,-0.97,-0.30,0.12
2060435993,-0.97,-0.30,0.12
2060437974,-0.97,-0.30,0.12
2060439978,-0.98,-0.28,0.14
2060441976,-0.98,-0.28,0.14
2060443974,-0.98,-0.28,0.14
2060445975,-0.98,-0.28,0.14
2060447977,-0.98,-0.28,0.14
2060449978,-0.95,-0.28,0.12
2060452165,-0.95,-0.28,0.12
2060453979,-0.95,-0.28,0.12
2060455978,-0.95,-0.28,0.12
2060458017,-0.95,-0.28,0.12
2060460007,-0.96,-0.28,0.11
2060462009,-0.96,-0.28,0.11
2060464004,-0.96,-0.28,0.11
2060466004,-0.96,-0.28,0.11
2060468009,-0.96,-0.28,0.11
2060470049,-0.93,-0.30,0.14
2060472023,-0.93,-0.30,0.14
2060473979,-0.93,-0.30,0.14
2060476095,-0.93,-0.30,0.14
2060477987,-0.93,-0.30,0.14
2060479977,-0.95,-0.30,0.14
2060481979,-0.95,-0.30,0.14
2060483980,-0.95,-0.30,0.14
2060485977,-0.95,-0.30,0.14
2060487979,-0.95,-0.30,0.14
2060489990,-0.96,-0.28,0.15
2060491992,-0.96,-0.28,0.15
2060493980,-0.96,-0.28,0.15
2060495990,-0.96,-0.28,0.15
2060498020,-0.96,-0.28,0.15
2060500004,-0.98,-0.27,0.16
2060502112,-0.98,-0.27,0.16
2060504009,-0.98,-0.27,0.16
2060506011,-0.98,-0.27,0.16
2060508007,-0.98,-0.27,0.16
2060510009,-0.97,-0.27,0.14
2060511982,-0.97,-0.27,0.14
2060513985,-0.97,-0.27,0.14
2060515975,-0.97,-0.27,0.14
2060517980,-0.97,-0.27,0.14
2060519985,-0.98,-0.29,0.15
2060521981,-0.98,-0.29,0.15
2060523979,-0.98,-0.29,0.15
2060526083,-0.98,-0.29,0.15
2060527986,-0.98,-0.29,0.15
2060529980,-0.98,-0.29,0.15
2060531979,-0.97,-0.31,0.15
2060533980,-0.97,-0.31,0.15
2060535979,-0.97,-0.31,0.15
2060538016,-0.97,-0.31,0.15
2060540006,-0.97,-0.31,0.15
2060542008,-0.96,-0.32,0.14
2060544003,-0.96,-0.32,0.14
2060546009,-0.96,-0.32,0.14
2060548011,-0.96,-0.32,0.14
2060549979,-0.96,-0.32,0.14
2060552120,-0.97,-0.32,0.14
2060553995,-0.97,-0.32,0.14
2060556013,-0.97,-0.32,0.14
2060557981,-0.97,-0.32,0.14
2060559978,-0.97,-0.32,0.14
2060562025,-0.96,-0.31,0.13
2060563978,-0.96,-0.31,0.13
2060565977,-0.96,-0.31,0.13
2060567978,-0.96,-0.31,0.13
2060569977,-0.96,-0.31,0.13
2060571979,-0.96,-0.31,0.12
2060573977,-0.96,-0.31,0.12
2060576089,-0.96,-0.31,0.12
2060578027,-0.96,-0.31,0.12
2060580003,-0.96,-0.31,0.12
2060582003,-0.94,-0.30,0.12
2060584033,-0.94,-0.30,0.12
2060586007,-0.94,-0.30,0.12
2060587959,-0.94,-0.30,0.12
2060589972,-0.94,-0.30,0.12
2060591957,-0.95,-0.29,0.12
2060593960,-0.95,-0.29,0.12
2060595980,-0.95,-0.29,0.12
2060597958,-0.95,-0.29,0.12
2060599957,-0.95,-0.29,0.12
2060602082,-0.95,-0.27,0.11
2060603958,-0.95,-0.27,0.11
2060605957,-0.95,-0.27,0.11
2060607957,-0.95,-0.27,0.11
2060609957,-0.95,-0.27,0.11
2060611957,-0.97,-0.26,0.10
2060613957,-0.97,-0.26,0.10
2060615957,-0.97,-0.26,0.10
2060617958,-0.97,-0.26,0.10
2060619958,-0.97,-0.26,0.10
2060622040,-0.97,-0.26,0.11
2060623958,-0.97,-0.26,0.11
2060626039,-0.97,-0.26,0.11
2060662051,-0.93,-0.30,0.10
2060664003,-0.93,-0.30,0.10
2060666005,-0.93,-0.30,0.10
2060667997,-0.93,-0.30,0.10
2060670004,-0.93,-0.30,0.10
2060672000,-0.92,-0.31,0.10
2060674001,-0.92,-0.31,0.10
2060676109,-0.92,-0.31,0.10
2060677989,-0.92,-0.31,0.10
2060679984,-0.92,-0.31,0.10
2060681977,-0.92,-0.32,0.11
2060683983,-0.92,-0.32,0.11
2060685989,-0.92,-0.32,0.11
2060687978,-0.92,-0.32,0.11
2060689987,-0.92,-0.32,0.11
2060691977,-0.93,-0.32,0.11
2060693980,-0.93,-0.32,0.11
2060695990,-0.93,-0.32,0.11
2060697977,-0.93,-0.32,0.11
2060699976,-0.93,-0.32,0.11
2060702114,-0.94,-0.32,0.11
2060704005,-0.94,-0.32,0.11
2060705999,-0.94,-0.32,0.11
2060708004,-0.94,-0.32,0.11
2060710003,-0.94,-0.32,0.11
2060712034,-0.94,-0.31,0.11
2060714016,-0.94,-0.31,0.11
2060715963,-0.94,-0.31,0.11
2060717957,-0.94,-0.31,0.11
2060719957,-0.94,-0.31,0.11
2060721957,-0.94,-0.31,0.11
2060723957,-0.94,-0.30,0.12
2060726071,-0.94,-0.30,0.12
2060727972,-0.94,-0.30,0.12
2060729957,-0.94,-0.30,0.12
2060732014,-0.94,-0.30,0.12
2060733972,-0.93,-0.29,0.13
2060735958,-0.93,-0.29,0.13
2060737958,-0.93,-0.29,0.13
2060739957,-0.93,-0.29,0.13
2060741958,-0.93,-0.29,0.13
2060743958,-0.95,-0.28,0.12
2060745957,-0.95,-0.28,0.12
2060747957,-0.95,-0.28,0.12
2060749959,-0.95,-0.28,0.12
2060836060,-0.93,-0.29,0.12
2060838016,-0.93,-0.29,0.12
2060840001,-0.93,-0.29,0.12
2060842005,-0.93,-0.29,0.12
2060844006,-0.91,-0.30,0.11
2060846006,-0.91,-0.30,0.11
2060848006,-0.91,-0.30,0.11
2060850008,-0.91,-0.30,0.11
2060852157,-0.91,-0.30,0.11
2060853978,-0.92,-0.28,0.10
2060856017,-0.92,-0.28,0.10
2060858009,-0.92,-0.28,0.10
2060859977,-0.92,-0.28,0.10
2060861978,-0.92,-0.28,0.10
2060863979,-0.93,-0.30,0.10
2060865977,-0.93,-0.30,0.10
2060867978,-0.93,-0.30,0.10
2060869978,-0.93,-0.30,0.10
2060871978,-0.93,-0.30,0.10
2060873980,-0.93,-0.30,0.11
2060876112,-0.93,-0.30,0.11
2060878006,-0.93,-0.30,0.11
2060880003,-0.93,-0.30,0.11
2060882008,-0.93,-0.30,0.11
2060884007,-0.94,-0.31,0.11
2060886003,-0.94,-0.31,0.11
2060888005,-0.94,-0.31,0.11
2060889990,-0.94,-0.31,0.11
2060891977,-0.94,-0.31,0.11
2060893978,-0.94,-0.31,0.11
2060895993,-0.95,-0.32,0.11
2060897975,-0.95,-0.32,0.11
2060899974,-0.95,-0.32,0.11
2060902085,-0.95,-0.32,0.11
2060903977,-0.95,-0.32,0.11
2060905977,-0.93,-0.31,0.11
2060907975,-0.93,-0.31,0.11
2060909974,-0.93,-0.31,0.11
2060911979,-0.93,-0.31,0.11
2060913976,-0.93,-0.31,0.11
2060916009,-0.94,-0.34,0.11
2060918040,-0.94,-0.34,0.11
2060920005,-0.94,-0.34,0.11
2060921955,-0.94,-0.34,0.11
2060923958,-0.94,-0.34,0.11
2060926070,-0.93,-0.34,0.13
2060927969,-0.93,-0.34,0.13
2060929955,-0.93,-0.34,0.13
2060931957,-0.93,-0.34,0.13
2060933957,-0.93,-0.34,0.13
2060935986,-0.95,-0.34,0.13
2060937985,-0.95,-0.34,0.13
2060940029,-0.95,-0.34,0.13
2060941957,-0.95,-0.34,0.13
2060943957,-0.95,-0.34,0.13
2060945958,-0.95,-0.32,0.12
2060947958,-0.95,-0.32,0.12
2060949957,-0.95,-0.32,0.12
2060952063,-0.95,-0.32,0.12
2060953958,-0.95,-0.32,0.12
2060955960,-0.95,-0.31,0.12
2060958001,-0.95,-0.31,0.12
2060959958,-0.95,-0.31,0.12
2060961952,-0.95,-0.31,0.12
2060963958,-0.95,-0.31,0.12
2060978039,-0.94,-0.30,0.14
2060980002,-0.94,-0.30,0.14
2060982001,-0.94,-0.30,0.14
2060984002,-0.94,-0.30,0.14
2060986066,-0.97,-0.29,0.12
2060988011,-0.97,-0.29,0.12
2060990046,-0.97,-0.29,0.12
2060992006,-0.97,-0.29,0.12
2060994004,-0.97,-0.29,0.12
2060996010,-0.95,-0.28,0.13
2060998011,-0.95,-0.28,0.13
2060999975,-0.95,-0.28,0.13
2061002098,-0.95,-0.28,0.13
2061003978,-0.95,-0.28,0.13
2061005979,-0.96,-0.27,0.12
2061007980,-0.96,-0.27,0.12
2061009976,-0.96,-0.27,0.12
2061011979,-0.96,-0.27,0.12
2061013980,-0.96,-0.27,0.12
2061015979,-0.95,-0.26,0.11
2061018014,-0.95,-0.26,0.11
2061020011,-0.95,-0.26,0.11
2061022007,-0.95,-0.26,0.11
2061024006,-0.95,-0.26,0.11
2061026111,-0.96,-0.25,0.11
2061027971,-0.96,-0.25,0.11
2061029958,-0.96,-0.25,0.11
2061031959,-0.96,-0.25,0.11
2061034054,-0.96,-0.25,0.11
2061036005,-0.94,-0.25,0.10
2061038005,-0.94,-0.25,0.10
2061040039,-0.94,-0.25,0.10
2061042025,-0.94,-0.25,0.10
2061043985,-0.94,-0.25,0.10
2061045980,-0.95,-0.25,0.07
2061047977,-0.95,-0.25,0.07
2061049977,-0.95,-0.25,0.07
2061052092,-0.95,-0.25,0.07
2061053975,-0.95,-0.25,0.07
2061055978,-0.94,-0.24,0.11
2061058017,-0.94,-0.24,0.11
2061060005,-0.94,-0.24,0.11
2061062005,-0.94,-0.24,0.11
2061064004,-0.94,-0.24,0.11
2061066004,-0.93,-0.23,0.10
2061068006,-0.93,-0.23,0.10
2061069990,-0.93,-0.23,0.10
2061071978,-0.93,-0.23,0.10
2061073976,-0.93,-0.23,0.10
2061076081,-0.93,-0.23,0.10
2061077987,-0.95,-0.22,0.07
2061079976,-0.95,-0.22,0.07
2061081976,-0.95,-0.22,0.07
2061083981,-0.95,-0.22,0.07
2061085980,-0.95,-0.22,0.07
2061087983,-0.95,-0.23,0.10
2061090016,-0.95,-0.23,0.10
2061091977,-0.95,-0.23,0.10
2061093981,-0.95,-0.23,0.10
2061095987,-0.95,-0.23,0.10
2061098019,-0.95,-0.23,0.11
2061100004,-0.95,-0.23,0.11
2061102112,-0.95,-0.23,0.11
2061104005,-0.95,-0.23,0.11
2061106004,-0.95,-0.23,0.11
2061108000,-0.96,-0.24,0.14
2061110046,-0.96,-0.24,0.14
2061112027,-0.96,-0.24,0.14
2061113996,-0.96,-0.24,0.14
2061115974,-0.96,-0.24,0.14
2061117975,-0.96,-0.23,0.16
2061119976,-0.96,-0.23,0.16
2061121980,-0.96,-0.23,0.16
2061123979,-0.96,-0.23,0.16
2061126092,-0.96,-0.23,0.16
2061127987,-0.96,-0.20,0.18
2061129978,-0.96,-0.20,0.18
2061131976,-0.96,-0.20,0.18
2061133979,-0.96,-0.20,0.18
2061135973,-0.96,-0.20,0.18
2061138017,-0.97,-0.21,0.20
2061140003,-0.97,-0.21,0.20
2061142043,-0.97,-0.21,0.20
2061144042,-0.97,-0.21,0.20
2061146008,-0.97,-0.21,0.20
2061148002,-0.96,-0.20,0.20
2061150005,-0.96,-0.20,0.20
2061152113,-0.96,-0.20,0.20
2061153975,-0.96,-0.20,0.20
2061155979,-0.96,-0.20,0.20
2061157979,-1.00,-0.21,0.18
2061159975,-1.00,-0.21,0.18
2061161975,-1.00,-0.21,0.18
2061163981,-1.00,-0.21,0.18
2061166030,-1.00,-0.21,0.18
2061168026,-0.98,-0.22,0.17
2061169979,-0.98,-0.22,0.17
2061171981,-0.98,-0.22,0.17
2061173981,-0.98,-0.22,0.17
2061176085,-0.98,-0.22,0.17
2061178020,-0.99,-0.23,0.16
2061180004,-0.99,-0.23,0.16
2061182000,-0.99,-0.23,0.16
2061184003,-0.99,-0.23,0.16
2061186010,-0.99,-0.23,0.16
2061188006,-0.98,-0.22,0.14
2061190043,-0.98,-0.22,0.14
2061191978,-0.98,-0.22,0.14
2061193979,-0.98,-0.22,0.14
2061195990,-0.98,-0.22,0.14
2061197975,-0.97,-0.23,0.12
2061199979,-0.97,-0.23,0.12
2061202091,-0.97,-0.23,0.12
2061203976,-0.97,-0.23,0.12
2061205975,-0.97,-0.23,0.12
2061207974,-0.96,-0.25,0.12
2061209974,-0.96,-0.25,0.12
2061211979,-0.96,-0.25,0.12
2061213975,-0.96,-0.25,0.12
2061216136,-0.96,-0.25,0.12
2061218039,-0.95,-0.26,0.12
2061220001,-0.95,-0.26,0.12
2061222001,-0.95,-0.26,0.12
2061224008,-0.95,-0.26,0.12
2061226111,-0.95,-0.26,0.12
2061228011,-0.97,-0.25,0.11
2061230000,-0.97,-0.25,0.11
2061231993,-0.97,-0.25,0.11
2061233976,-0.97,-0.25,0.11
2061235979,-0.97,-0.25,0.11
2061237979,-0.96,-0.23,0.12
2061239985,-0.96,-0.23,0.12
2061241981,-0.96,-0.23,0.12
2061243981,-0.96,-0.23,0.12
2061245979,-0.96,-0.23,0.12
2061247979,-0.95,-0.22,0.11
2061249977,-0.95,-0.22,0.11
2061252075,-0.95,-0.22,0.11
2061253977,-0.95,-0.22,0.11
2061255979,-0.95,-0.22,0.11
2061258008,-0.95,-0.22,0.11
2061260005,-0.95,-0.22,0.11
2061262004,-0.95,-0.22,0.11
2061264014,-0.95,-0.22,0.11
2061266040,-0.95,-0.22,0.11
2061268005,-0.95,-0.22,0.11
2061270005,-0.94,-0.21,0.11
2061271977,-0.94,-0.21,0.11
2061273976,-0.94,-0.21,0.11
2061276090,-0.94,-0.21,0.11
2061277990,-0.94,-0.21,0.11
2061279977,-0.94,-0.21,0.10
2061281975,-0.94,-0.21,0.10
2061283981,-0.94,-0.21,0.10
2061285979,-0.94,-0.21,0.10
2061287981,-0.94,-0.21,0.10
2061290019,-0.95,-0.23,0.10
2061291977,-0.95,-0.23,0.10
2061293981,-0.95,-0.23,0.10
2061295991,-0.95,-0.23,0.10
2061298017,-0.95,-0.23,0.10
2061300001,-0.93,-0.24,0.10
2061302116,-0.93,-0.24,0.10
2061304009,-0.93,-0.24,0.10
2061306070,-0.93,-0.24,0.10
2061308022,-0.93,-0.24,0.10
2061310008,-0.96,-0.25,0.09
2061312007,-0.96,-0.25,0.09
2061313981,-0.96,-0.25,0.09
2061315975,-0.96,-0.25,0.09
2061317979,-0.96,-0.25,0.09
2061319977,-0.98,-0.26,0.09
2061321978,-0.98,-0.26,0.09
2061323977,-0.98,-0.26,0.09
2061326091,-0.98,-0.26,0.09
2061327987,-0.98,-0.26,0.09
2061329976,-0.97,-0.25,0.10
2061331975,-0.97,-0.25,0.10
2061333979,-0.97,-0.25,0.10
2061335974,-0.97,-0.25,0.10
2061338006,-0.97,-0.25,0.10
2061340011,-0.97,-0.23,0.10
2061342003,-0.97,-0.23,0.10
2061344003,-0.97,-0.23,0.10
2061346003,-0.97,-0.23,0.10
2061348041,-0.97,-0.23,0.10
2061350024,-0.94,-0.23,0.11
2061352094,-0.94,-0.23,0.11
2061353980,-0.94,-0.23,0.11
2061355974,-0.94,-0.23,0.11
2061357977,-0.94,-0.23,0.11
2061359979,-0.93,-0.24,0.09
2061361980,-0.93,-0.24,0.09
2061363980,-0.93,-0.24,0.09
2061365979,-0.93,-0.24,0.09
2061367977,-0.93,-0.24,0.09
2061369982,-0.93,-0.26,0.09
2061371981,-0.93,-0.26,0.09
2061373987,-0.93,-0.26,0.09
2061376112,-0.93,-0.26,0.09
2061378022,-0.93,-0.26,0.09
2061380003,-0.95,-0.28,0.09
2061382005,-0.95,-0.28,0.09
2061384008,-0.95,-0.28,0.09
2061386007,-0.95,-0.28,0.09
2061388003,-0.95,-0.28,0.09
2061390034,-0.95,-0.29,0.09
2061391977,-0.95,-0.29,0.09
2061393980,-0.95,-0.29,0.09
2061395989,-0.95,-0.29,0.09
2061397973,-0.95,-0.29,0.09
2061399977,-0.94,-0.29,0.09
2061402092,-0.94,-0.29,0.09
2061403977,-0.94,-0.29,0.09
2061405976,-0.94,-0.29,0.09
2061407974,-0.94,-0.29,0.09
2061409974,-0.95,-0.30,0.09
2061411973,-0.95,-0.30,0.09
2061413976,-0.95,-0.30,0.09
2061415975,-0.95,-0.30,0.09
2061418014,-0.95,-0.30,0.09
2061420038,-0.94,-0.31,0.08
2061422005,-0.94,-0.31,0.08
2061423957,-0.94,-0.31,0.08
2061426069,-0.94,-0.31,0.08
2061427971,-0.94,-0.31,0.08
2061429957,-0.94,-0.32,0.07
2061431957,-0.94,-0.32,0.07
2061434058,-0.94,-0.32,0.07
2061436013,-0.94,-0.32,0.07
2061438008,-0.94,-0.32,0.07
2061440008,-0.95,-0.32,0.06
2061442004,-0.95,-0.32,0.06
2061444013,-0.95,-0.32,0.06
2061445980,-0.95,-0.32,0.06
2061447979,-0.95,-0.32,0.06
2061450000,-0.95,-0.32,0.06
2061452133,-0.95,-0.32,0.06
2061453976,-0.95,-0.32,0.06
2061455975,-0.95,-0.32,0.06
2061458023,-0.95,-0.32,0.06
2061460009,-0.95,-0.32,0.06
2061462009,-0.95,-0.32,0.04
2061464010,-0.95,-0.32,0.04
2061466007,-0.95,-0.32,0.04
2061468010,-0.95,-0.32,0.04
2061469985,-0.95,-0.32,0.04
2061471981,-0.95,-0.31,0.05
2061473976,-0.95,-0.31,0.05
2061476076,-0.95,-0.31,0.05
2061477987,-0.95,-0.31,0.05
2061479991,-0.95,-0.31,0.05
2061482066,-0.95,-0.29,0.06
2061484015,-0.95,-0.29,0.06
2061485976,-0.95,-0.29,0.06
2061487982,-0.95,-0.29,0.06
2061490007,-0.95,-0.29,0.06
2061491976,-0.95,-0.30,0.07
2061493980,-0.95,-0.30,0.07
2061495990,-0.95,-0.30,0.07
2061498025,-0.95,-0.30,0.07
2061500005,-0.95,-0.30,0.07
2061502127,-0.95,-0.30,0.06
2061504006,-0.95,-0.30,0.06
2061506007,-0.95,-0.30,0.06
2061508004,-0.95,-0.30,0.06
2061510010,-0.95,-0.30,0.06
2061511979,-0.95,-0.32,0.08
2061513980,-0.95,-0.32,0.08
2061515980,-0.95,-0.32,0.08
2061517977,-0.95,-0.32,0.08
2061519981,-0.95,-0.32,0.08
2061521976,-0.95,-0.32,0.07
2061523977,-0.95,-0.32,0.07
2061526107,-0.95,-0.32,0.07
2061528074,-0.95,-0.32,0.07
2061530021,-0.95,-0.32,0.07
2061531975,-0.95,-0.32,0.08
2061533977,-0.95,-0.32,0.08
2061535978,-0.95,-0.32,0.08
2061538016,-0.95,-0.32,0.08
2061540002,-0.95,-0.32,0.08
2061542003,-0.94,-0.31,0.06
2061544007,-0.94,-0.31,0.06
2061546005,-0.94,-0.31,0.06
2061548003,-0.94,-0.31,0.06
2061550006,-0.94,-0.31,0.06
2061552093,-0.94,-0.31,0.06
2061554026,-0.94,-0.31,0.06
2061555977,-0.94,-0.31,0.06
2061557978,-0.94,-0.31,0.06
2061559979,-0.94,-0.31,0.06
2061561976,-0.94,-0.31,0.06
2061563975,-0.94,-0.31,0.06
2061565990,-0.94,-0.31,0.06
2061567979,-0.94,-0.31,0.06
2061569975,-0.94,-0.31,0.06
2061571998,-0.95,-0.31,0.04
2061574074,-0.95,-0.31,0.04
2061576118,-0.95,-0.31,0.04
2061578020,-0.95,-0.31,0.04
2061580002,-0.95,-0.31,0.04
2061582002,-0.95,-0.32,0.03
2061584005,-0.95,-0.32,0.03
2061586004,-0.95,-0.32,0.03
2061588005,-0.95,-0.32,0.03
2061590035,-0.95,-0.32,0.03
2061591977,-0.96,-0.31,0.03
2061593976,-0.96,-0.31,0.03
2061595992,-0.96,-0.31,0.03
2061597974,-0.96,-0.31,0.03
2061599974,-0.96,-0.31,0.03
2061602085,-0.95,-0.33,0.02
2061603975,-0.95,-0.33,0.02
2061605976,-0.95,-0.33,0.02
2061607975,-0.95,-0.33,0.02
2061609973,-0.95,-0.33,0.02
2061611972,-0.96,-0.33,0.04
2061613975,-0.96,-0.33,0.04
2061615979,-0.96,-0.33,0.04
2061618037,-0.96,-0.33,0.04
2061620068,-0.96,-0.33,0.04
2061622111,-0.96,-0.33,0.04
2061624006,-0.96,-0.33,0.04
2061626107,-0.96,-0.33,0.04
2061628008,-0.96,-0.33,0.04
2061630005,-0.96,-0.33,0.04
2061632006,-0.96,-0.33,0.04
2061634005,-0.95,-0.34,0.04
2061635979,-0.95,-0.34,0.04
2061637979,-0.95,-0.34,0.04
2061639980,-0.95,-0.34,0.04
2061641979,-0.95,-0.34,0.04
2061643981,-0.95,-0.34,0.04
2061645977,-0.95,-0.34,0.04
2061647978,-0.95,-0.34,0.04
2061649979,-0.95,-0.34,0.04
2061652079,-0.95,-0.34,0.04
2061654042,-0.95,-0.34,0.05
2061656017,-0.95,-0.34,0.05
2061658020,-0.95,-0.34,0.05
2061660006,-0.95,-0.34,0.05
2061662004,-0.95,-0.34,0.05
2061664068,-0.95,-0.34,0.05
2061666044,-0.95,-0.34,0.05
2061668005,-0.95,-0.34,0.05
2061670004,-0.95,-0.34,0.05
2061672008,-0.95,-0.34,0.05
2061674007,-0.95,-0.34,0.05
2061676094,-0.95,-0.34,0.05
2061677992,-0.95,-0.34,0.05
2061679976,-0.95,-0.34,0.05
2061681980,-0.95,-0.34,0.05
2061683979,-0.95,-0.34,0.06
2061685991,-0.95,-0.34,0.06
2061687982,-0.95,-0.34,0.06
2061690018,-0.95,-0.34,0.06
2061691976,-0.95,-0.34,0.06
2061693980,-0.95,-0.34,0.05
2061695994,-0.95,-0.34,0.05
2061698027,-0.95,-0.34,0.05
2061700002,-0.95,-0.34,0.05
2061702115,-0.95,-0.34,0.05
2061704008,-0.95,-0.34,0.04
2061706003,-0.95,-0.34,0.04
2061708005,-0.95,-0.34,0.04
2061710010,-0.95,-0.34,0.04
2061711983,-0.95,-0.34,0.04
2061714069,-0.95,-0.34,0.04
2061716022,-0.95,-0.34,0.04
2061717976,-0.95,-0.34,0.04
2061719976,-0.95,-0.34,0.04
2061721979,-0.95,-0.34,0.04
2061723979,-0.95,-0.35,0.04
2061726088,-0.95,-0.35,0.04
2061727987,-0.95,-0.35,0.04
2061729979,-0.95,-0.35,0.04
2061731976,-0.95,-0.35,0.04
2061733977,-0.95,-0.35,0.02
2061735977,-0.95,-0.35,0.02
2061738016,-0.95,-0.35,0.02
2061740004,-0.95,-0.35,0.02
2061742000,-0.95,-0.35,0.02
2061744005,-0.96,-0.35,0.01
2061746003,-0.96,-0.35,0.01
2061748004,-0.96,-0.35,0.01
2061750004,-0.96,-0.35,0.01
2061752079,-0.96,-0.35,0.01
2061753979,-0.95,-0.34,0.01
2061755978,-0.95,-0.34,0.01
2061758023,-0.95,-0.34,0.01
2061760034,-0.95,-0.34,0.01
2061762028,-0.95,-0.34,0.01
2061763985,-0.94,-0.34,0.01
2061765976,-0.94,-0.34,0.01
2061767975,-0.94,-0.34,0.01
2061769975,-0.94,-0.34,0.01
2061771976,-0.94,-0.34,0.01
2061773976,-0.93,-0.33,0.02
2061776091,-0.93,-0.33,0.02
2061778019,-0.93,-0.33,0.02
2061780004,-0.93,-0.33,0.02
2061782004,-0.93,-0.33,0.02
2061784003,-0.92,-0.32,0.01
2061786006,-0.92,-0.32,0.01
2061788004,-0.92,-0.32,0.01
2061790042,-0.92,-0.32,0.01
2061791977,-0.92,-0.32,0.01
2061793974,-0.91,-0.32,0.02
2061795990,-0.91,-0.32,0.02
2061797974,-0.91,-0.32,0.02
2061799973,-0.91,-0.32,0.02
2061802086,-0.91,-0.32,0.02
2061803975,-0.92,-0.31,0.02
2061805975,-0.92,-0.31,0.02
2061808125,-0.92,-0.31,0.02
2061810014,-0.92,-0.31,0.02
2061811979,-0.92,-0.31,0.02
2061813978,-0.92,-0.31,0.02
2061815980,-0.92,-0.32,0.03
2061818017,-0.92,-0.32,0.03
2061820002,-0.92,-0.32,0.03
2061822003,-0.92,-0.32,0.03
2061824004,-0.92,-0.32,0.03
2061826106,-0.93,-0.32,0.03
2061828006,-0.93,-0.32,0.03
2061830003,-0.93,-0.32,0.03
2061831975,-0.93,-0.32,0.03
2061833973,-0.93,-0.32,0.03
2061835977,-0.93,-0.32,0.03
2061837976,-0.93,-0.32,0.03
2061839980,-0.93,-0.32,0.03
2061841979,-0.93,-0.32,0.03
2061843979,-0.93,-0.32,0.03
2061845979,-0.95,-0.33,0.03
2061847975,-0.95,-0.33,0.03
2061849984,-0.95,-0.33,0.03
2061852082,-0.95,-0.33,0.03
2061853979,-0.95,-0.33,0.03
2061855975,-0.95,-0.33,0.02
2061858009,-0.95,-0.33,0.02
2061860039,-0.95,-0.33,0.02
2061862026,-0.95,-0.33,0.02
2061864003,-0.95,-0.33,0.02
2061866006,-0.96,-0.34,0.03
2061868027,-0.96,-0.34,0.03
2061870080,-0.96,-0.34,0.03
2061872036,-0.96,-0.34,0.03
2061874008,-0.96,-0.34,0.03
2061876093,-0.95,-0.34,0.02
2061877986,-0.95,-0.34,0.02
2061879979,-0.95,-0.34,0.02
2061881979,-0.95,-0.34,0.02
2061883976,-0.95,-0.34,0.02
2061885975,-0.95,-0.35,0.03
2061887983,-0.95,-0.35,0.03
2061890011,-0.95,-0.35,0.03
2061891978,-0.95,-0.35,0.03
2061893981,-0.95,-0.35,0.03
2061895990,-0.95,-0.33,0.03
2061898021,-0.95,-0.33,0.03
2061900002,-0.95,-0.33,0.03
2061902112,-0.95,-0.33,0.03
2061904004,-0.95,-0.33,0.03
2061906005,-0.95,-0.32,0.03
2061908007,-0.95,-0.32,0.03
2061910008,-0.95,-0.32,0.03
2061911979,-0.95,-0.32,0.03
2061913975,-0.95,-0.32,0.03
2061916134,-0.93,-0.31,0.03
2061918015,-0.93,-0.31,0.03
2061919974,-0.93,-0.31,0.03
2061921976,-0.93,-0.31,0.03
2061923981,-0.93,-0.31,0.03
2061926098,-0.93,-0.32,0.03
2061927989,-0.93,-0.32,0.03
2061929980,-0.93,-0.32,0.03
2061931978,-0.93,-0.32,0.03
2061933979,-0.93,-0.32,0.03
2061935990,-0.93,-0.32,0.03
2061938019,-0.93,-0.32,0.03
2061940003,-0.93,-0.32,0.03
2061942002,-0.93,-0.32,0.03
2061944006,-0.93,-0.32,0.03
2061946005,-0.93,-0.33,0.02
2061948004,-0.93,-0.33,0.02
2061950002,-0.93,-0.33,0.02
2061952086,-0.93,-0.33,0.02
2061953980,-0.93,-0.33,0.02
2061955977,-0.94,-0.33,0.01
2061957980,-0.94,-0.33,0.01
2061959975,-0.94,-0.33,0.01
2061961986,-0.94,-0.33,0.01
2061963979,-0.94,-0.33,0.01
2061965980,-0.93,-0.34,0.01
2061967976,-0.93,-0.34,0.01
2061969979,-0.93,-0.34,0.01
2061971979,-0.93,-0.34,0.01
2061973979,-0.93,-0.34,0.01
2061976054,-0.94,-0.33,0.00
2061978013,-0.94,-0.33,0.00
2061980002,-0.94,-0.33,0.00
2061982005,-0.94,-0.33,0.00
2061984001,-0.94,-0.33,0.00
2061986036,-0.94,-0.34,-0.00
2061988041,-0.94,-0.34,-0.00
2061990058,-0.94,-0.34,-0.00
2061992039,-0.94,-0.34,-0.00
2061994045,-0.94,-0.34,-0.00
2061996004,-0.94,-0.34,-0.00
2061997976,-0.94,-0.34,0.00
2061999981,-0.94,-0.34,0.00
2062002098,-0.94,-0.34,0.00
2062003981,-0.94,-0.34,0.00
2062005980,-0.94,-0.34,0.00
2062007979,-0.94,-0.34,0.00
2062009976,-0.94,-0.34,0.00
2062011975,-0.94,-0.34,0.00
2062013979,-0.94,-0.34,0.00
2062015974,-0.94,-0.34,0.00
2062018008,-0.94,-0.34,0.00
2062020004,-0.94,-0.34,0.00
2062022005,-0.94,-0.34,0.00
2062024006,-0.94,-0.34,0.00
2062026095,-0.94,-0.34,0.00
2062028010,-0.94,-0.34,0.01
2062029977,-0.94,-0.34,0.01
2062031984,-0.94,-0.34,0.01
2062033980,-0.94,-0.34,0.01
2062035981,-0.94,-0.34,0.01
2062037978,-0.94,-0.34,0.01
2062039994,-0.94,-0.34,0.01
2062042149,-0.94,-0.34,0.01
2062044015,-0.94,-0.34,0.01
2062045979,-0.94,-0.34,0.01
2062047976,-0.93,-0.34,0.01
2062049977,-0.93,-0.34,0.01
2062052093,-0.93,-0.34,0.01
2062053979,-0.93,-0.34,0.01
2062055976,-0.93,-0.34,0.01
2062058012,-0.94,-0.35,0.01
2062060002,-0.94,-0.35,0.01
2062062000,-0.94,-0.35,0.01
2062064007,-0.94,-0.35,0.01
2062066051,-0.94,-0.35,0.01
2062068004,-0.94,-0.36,0.01
2062070005,-0.94,-0.36,0.01
2062071979,-0.94,-0.36,0.01
2062073980,-0.94,-0.36,0.01
2062076089,-0.94,-0.36,0.01
2062077988,-0.95,-0.36,0.01
2062079977,-0.95,-0.36,0.01
2062081976,-0.95,-0.36,0.01
2062083978,-0.95,-0.36,0.01
2062085979,-0.95,-0.36,0.01
2062087980,-0.95,-0.36,0.01
2062089990,-0.95,-0.36,0.01
2062091983,-0.95,-0.36,0.01
2062094021,-0.95,-0.36,0.01
2062095989,-0.95,-0.36,0.01
2062098015,-0.96,-0.36,0.02
2062100003,-0.96,-0.36,0.02
2062102112,-0.96,-0.36,0.02
2062104007,-0.96,-0.36,0.02
2062106006,-0.96,-0.36,0.02
2062108069,-0.96,-0.36,0.02
2062110045,-0.96,-0.36,0.02
2062112006,-0.96,-0.36,0.02
2062114004,-0.96,-0.36,0.02
2062115978,-0.96,-0.36,0.02
2062117981,-0.96,-0.37,0.02
2062119980,-0.96,-0.37,0.02
2062121976,-0.96,-0.37,0.02
2062123976,-0.96,-0.37,0.02
2062126092,-0.96,-0.37,0.02
2062127987,-0.97,-0.36,0.01
2062129975,-0.97,-0.36,0.01
2062131979,-0.97,-0.36,0.01
2062133979,-0.97,-0.36,0.01
2062135978,-0.97,-0.36,0.01
2062138009,-0.97,-0.36,0.01
2062140004,-0.97,-0.36,0.01
2062142006,-0.97,-0.36,0.01
2062144005,-0.97,-0.36,0.01
2062146006,-0.97,-0.36,0.01
2062148002,-0.98,-0.36,0.02
2062149992,-0.98,-0.36,0.02
2062152081,-0.98,-0.36,0.02
2062153979,-0.98,-0.36,0.02
2062155980,-0.98,-0.36,0.02
2062157984,-0.97,-0.36,0.02
2062159980,-0.97,-0.36,0.02
2062161979,-0.97,-0.36,0.02
2062163978,-0.97,-0.36,0.02
2062165981,-0.97,-0.36,0.02
2062168063,-0.97,-0.35,0.02
2062170025,-0.97,-0.35,0.02
2062171977,-0.97,-0.35,0.02
2062173979,-0.97,-0.35,0.02
2062176090,-0.97,-0.35,0.02
2062178027,-0.97,-0.34,0.02
2062180001,-0.97,-0.34,0.02
2062182001,-0.97,-0.34,0.02
2062184005,-0.97,-0.34,0.02
2062186012,-0.97,-0.34,0.02
2062188004,-0.97,-0.34,0.02
2062190015,-0.96,-0.34,0.00
2062191981,-0.96,-0.34,0.00
2062194019,-0.96,-0.34,0.00
2062195991,-0.96,-0.34,0.00
2062197978,-0.96,-0.34,0.00
2062199976,-0.95,-0.33,0.00
2062202096,-0.95,-0.33,0.00
2062203976,-0.95,-0.33,0.00
2062205978,-0.95,-0.33,0.00
2062207974,-0.95,-0.33,0.00
2062209974,-0.95,-0.32,0.00
2062211980,-0.95,-0.32,0.00
2062213979,-0.95,-0.32,0.00
2062215976,-0.95,-0.32,0.00
2062218013,-0.95,-0.32,0.00
2062220001,-0.95,-0.32,-0.00
2062222003,-0.95,-0.32,-0.00
2062224007,-0.95,-0.32,-0.00
2062226301,-0.95,-0.32,-0.00
2062228046,-0.95,-0.32,-0.00
2062230009,-0.94,-0.32,0.00
2062232007,-0.94,-0.32,0.00
2062234049,-0.94,-0.32,0.00
2062236042,-0.94,-0.32,0.00
2062237975,-0.94,-0.32,0.00
2062239977,-0.93,-0.32,-0.01
2062241980,-0.93,-0.32,-0.01
2062243977,-0.93,-0.32,-0.01
2062245977,-0.93,-0.32,-0.01
2062247975,-0.93,-0.32,-0.01
2062249980,-0.93,-0.33,-0.00
2062252099,-0.93,-0.33,-0.00
2062253979,-0.93,-0.33,-0.00
2062255976,-0.93,-0.33,-0.00
2062258019,-0.93,-0.33,-0.00
2062260004,-0.93,-0.34,-0.00
2062262004,-0.93,-0.34,-0.00
2062264006,-0.93,-0.34,-0.00
2062266006,-0.93,-0.34,-0.00
2062268005,-0.93,-0.34,-0.00
2062270047,-0.93,-0.34,-0.01
2062271976,-0.93,-0.34,-0.01
2062273978,-0.93,-0.34,-0.01
2062276087,-0.93,-0.34,-0.01
2062277987,-0.93,-0.34,-0.01
2062279981,-0.94,-0.34,-0.01
2062281980,-0.94,-0.34,-0.01
2062283979,-0.94,-0.34,-0.01
2062285979,-0.94,-0.34,-0.01
2062287987,-0.94,-0.34,-0.01
2062289989,-0.95,-0.33,-0.00
2062291978,-0.95,-0.33,-0.00
2062294037,-0.95,-0.33,-0.00
2062296057,-0.95,-0.33,-0.00
2062298038,-0.95,-0.33,-0.00
2062300009,-0.94,-0.33,0.01
2062302121,-0.94,-0.33,0.01
2062304006,-0.94,-0.33,0.01
2062306005,-0.94,-0.33,0.01
2062308005,-0.94,-0.33,0.01
2062310001,-0.94,-0.33,0.00
2062311993,-0.94,-0.33,0.00
2062313976,-0.94,-0.33,0.00
2062315984,-0.94,-0.33,0.00
2062317984,-0.94,-0.33,0.00
2062319980,-0.95,-0.33,0.00
2062321980,-0.95,-0.33,0.00
2062323980,-0.95,-0.33,0.00
2062326078,-0.95,-0.33,0.00
2062327986,-0.95,-0.33,0.00
2062329977,-0.95,-0.34,0.00
2062331978,-0.95,-0.34,0.00
2062333977,-0.95,-0.34,0.00
2062335978,-0.95,-0.34,0.00
2062338014,-0.95,-0.34,0.00
2062340006,-0.95,-0.35,0.01
2062342003,-0.95,-0.35,0.01
2062344004,-0.95,-0.35,0.01
2062346004,-0.95,-0.35,0.01
2062348004,-0.95,-0.35,0.01
2062349979,-0.95,-0.35,0.01
2062352078,-0.95,-0.35,0.01
2062353986,-0.95,-0.35,0.01
2062356067,-0.95,-0.35,0.01
2062358020,-0.95,-0.35,0.01
2062359976,-0.95,-0.35,0.01
2062361975,-0.95,-0.35,0.01
2062363975,-0.95,-0.35,0.01
2062365979,-0.95,-0.35,0.01
2062367976,-0.95,-0.35,0.01
2062369976,-0.95,-0.35,0.01
2062372031,-0.95,-0.33,0.01
2062373986,-0.95,-0.33,0.01
2062376089,-0.95,-0.33,0.01
2062378027,-0.95,-0.33,0.01
2062380006,-0.95,-0.33,0.01
2062382004,-0.94,-0.32,0.01
2062384004,-0.94,-0.32,0.01
2062386003,-0.94,-0.32,0.01
2062388004,-0.94,-0.32,0.01
2062390011,-0.94,-0.32,0.01
2062391983,-0.93,-0.32,0.00
2062394018,-0.93,-0.32,0.00
2062395990,-0.93,-0.32,0.00
2062397979,-0.93,-0.32,0.00
2062399977,-0.93,-0.32,0.00
2062402089,-0.93,-0.32,0.01
2062403974,-0.93,-0.32,0.01
2062405979,-0.93,-0.32,0.01
2062407976,-0.93,-0.32,0.01
2062409977,-0.93,-0.32,0.01
2062411979,-0.93,-0.32,0.00
2062413977,-0.93,-0.32,0.00
2062415977,-0.93,-0.32,0.00
2062418022,-0.93,-0.32,0.00
2062420002,-0.93,-0.32,0.00
2062422006,-0.94,-0.32,-0.01
2062424030,-0.94,-0.32,-0.01
2062426116,-0.94,-0.32,-0.01
2062428041,-0.94,-0.32,-0.01
2062430005,-0.94,-0.32,-0.01
2062432003,-0.95,-0.33,-0.01
2062433979,-0.95,-0.33,-0.01
2062435993,-0.95,-0.33,-0.01
2062437977,-0.95,-0.33,-0.01
2062439977,-0.95,-0.33,-0.01
2062441978,-0.94,-0.34,-0.01
2062443977,-0.94,-0.34,-0.01
2062445981,-0.94,-0.34,-0.01
2062447975,-0.94,-0.34,-0.01
2062449977,-0.94,-0.34,-0.01
2062452101,-0.92,-0.34,-0.01
2062453979,-0.92,-0.34,-0.01
2062455977,-0.92,-0.34,-0.01
2062458016,-0.92,-0.34,-0.01
2062460006,-0.92,-0.34,-0.01
2062462005,-0.93,-0.35,-0.00
2062464005,-0.93,-0.35,-0.00
2062466001,-0.93,-0.35,-0.00
2062468005,-0.93,-0.35,-0.00
2062470004,-0.93,-0.35,-0.00
2062471980,-0.93,-0.35,-0.01
2062473996,-0.93,-0.35,-0.01
2062476114,-0.93,-0.35,-0.01
2062477987,-0.93,-0.35,-0.01
2062480050,-0.93,-0.35,-0.01
2062482020,-0.94,-0.35,-0.00
2062483980,-0.94,-0.35,-0.00
2062485979,-0.94,-0.35,-0.00
2062487980,-0.94,-0.35,-0.00
2062489987,-0.94,-0.35,-0.00
2062491994,-0.93,-0.35,-0.01
2062494015,-0.93,-0.35,-0.01
2062495992,-0.93,-0.35,-0.01
2062498018,-0.93,-0.35,-0.01
2062500004,-0.93,-0.35,-0.01
2062502121,-0.92,-0.35,-0.01
2062504003,-0.92,-0.35,-0.01
2062506001,-0.92,-0.35,-0.01
2062508006,-0.92,-0.35,-0.01
2062510004,-0.92,-0.35,-0.01
2062511983,-0.93,-0.35,-0.02
2062513981,-0.93,-0.35,-0.02
2062515975,-0.93,-0.35,-0.02
2062517976,-0.93,-0.35,-0.02
2062519980,-0.93,-0.35,-0.02
2062521979,-0.95,-0.36,-0.02
2062523981,-0.95,-0.36,-0.02
2062526083,-0.95,-0.36,-0.02
2062528071,-0.95,-0.36,-0.02
2062530022,-0.95,-0.36,-0.02
2062531976,-0.95,-0.37,-0.04
2062533978,-0.95,-0.37,-0.04
2062535978,-0.95,-0.37,-0.04
2062538021,-0.95,-0.37,-0.04
2062540004,-0.95,-0.37,-0.04
2062542002,-0.94,-0.36,-0.04
2062544002,-0.94,-0.36,-0.04
2062546003,-0.94,-0.36,-0.04
2062548000,-0.94,-0.36,-0.04
2062550018,-0.94,-0.36,-0.04
2062552105,-0.94,-0.36,-0.05
2062553979,-0.94,-0.36,-0.05
2062555976,-0.94,-0.36,-0.05
2062557977,-0.94,-0.36,-0.05
2062559979,-0.94,-0.36,-0.05
2062561977,-0.94,-0.36,-0.05
2062563978,-0.94,-0.38,-0.06
2062565976,-0.94,-0.38,-0.06
2062567974,-0.94,-0.38,-0.06
2062569980,-0.94,-0.38,-0.06
2062571977,-0.94,-0.38,-0.06
2062573977,-0.91,-0.38,-0.06
2062576053,-0.91,-0.38,-0.06
2062578057,-0.91,-0.38,-0.06
2062580000,-0.91,-0.38,-0.06
2062582003,-0.91,-0.38,-0.06
2062584000,-0.92,-0.38,-0.07
2062586006,-0.92,-0.38,-0.07
2062588028,-0.92,-0.38,-0.07
2062590069,-0.92,-0.38,-0.07
2062592035,-0.92,-0.38,-0.07
2062594039,-0.92,-0.39,-0.07
2062596011,-0.92,-0.39,-0.07
2062597979,-0.92,-0.39,-0.07
2062599974,-0.92,-0.39,-0.07
2062602101,-0.92,-0.39,-0.07
2062603977,-0.92,-0.39,-0.07
2062605979,-0.92,-0.39,-0.07
2062607979,-0.92,-0.39,-0.07
2062609976,-0.92,-0.39,-0.07
2062611978,-0.92,-0.39,-0.07
2062613978,-0.91,-0.39,-0.08
2062615982,-0.91,-0.39,-0.08
2062618014,-0.91,-0.39,-0.08
2062620007,-0.91,-0.39,-0.08
2062622076,-0.91,-0.39,-0.08
2062624008,-0.91,-0.37,-0.09
2062626101,-0.91,-0.37,-0.09
2062628008,-0.91,-0.37,-0.09
2062630011,-0.91,-0.37,-0.09
2062631979,-0.91,-0.37,-0.09
2062633981,-0.90,-0.38,-0.10
2062635977,-0.90,-0.38,-0.10
2062637979,-0.90,-0.38,-0.10
2062639973,-0.90,-0.38,-0.10
2062641976,-0.90,-0.38,-0.10
2062643981,-0.88,-0.38,-0.09
2062645979,-0.88,-0.38,-0.09
2062647980,-0.88,-0.38,-0.09
2062649975,-0.88,-0.38,-0.09
2062652077,-0.88,-0.38,-0.09
2062653990,-0.89,-0.39,-0.11
2062656134,-0.89,-0.39,-0.11
2062658039,-0.89,-0.39,-0.11
2062660003,-0.89,-0.39,-0.11
2062662003,-0.89,-0.39,-0.11
2062664002,-0.89,-0.41,-0.11
2062666005,-0.89,-0.41,-0.11
2062668004,-0.89,-0.41,-0.11
2062670007,-0.89,-0.41,-0.11
2062671977,-0.89,-0.41,-0.11
2062673979,-0.89,-0.41,-0.09
2062676095,-0.89,-0.41,-0.09
2062677989,-0.89,-0.41,-0.09
2062680023,-0.89,-0.41,-0.09
2062681979,-0.89,-0.41,-0.09
2062683978,-0.91,-0.42,-0.10
2062685989,-0.91,-0.42,-0.10
2062687984,-0.91,-0.42,-0.10
2062689987,-0.91,-0.42,-0.10
2062691986,-0.91,-0.42,-0.10
2062694023,-0.93,-0.43,-0.10
2062695990,-0.93,-0.43,-0.10
2062698020,-0.93,-0.43,-0.10
2062700004,-0.93,-0.43,-0.10
2062702112,-0.93,-0.43,-0.10
2062704006,-0.95,-0.44,-0.10
2062706004,-0.95,-0.44,-0.10
2062708006,-0.95,-0.44,-0.10
2062710009,-0.95,-0.44,-0.10
2062711977,-0.95,-0.44,-0.10
2062714063,-0.94,-0.43,-0.09
2062716023,-0.94,-0.43,-0.09
2062717975,-0.94,-0.43,-0.09
2062719975,-0.94,-0.43,-0.09
2062721978,-0.94,-0.43,-0.09
2062723977,-0.92,-0.42,-0.08
2062726097,-0.92,-0.42,-0.08
2062727987,-0.92,-0.42,-0.08
2062729975,-0.92,-0.42,-0.08
2062731979,-0.92,-0.42,-0.08
2062733975,-0.92,-0.42,-0.08
2062735979,-0.92,-0.41,-0.05
2062738019,-0.92,-0.41,-0.05
2062740003,-0.92,-0.41,-0.05
2062742004,-0.92,-0.41,-0.05
2062744004,-0.92,-0.41,-0.05
2062746011,-0.88,-0.41,-0.07
2062748007,-0.88,-0.41,-0.07
2062750007,-0.88,-0.41,-0.07
2062752082,-0.88,-0.41,-0.07
2062753978,-0.88,-0.41,-0.07
2062755979,-0.98,-0.40,-0.06
2062757978,-0.98,-0.40,-0.06
2062759980,-0.98,-0.40,-0.06
2062762054,-0.98,-0.40,-0.06
2062764027,-0.98,-0.40,-0.06
2062765976,-0.87,-0.42,-0.06
2062767974,-0.87,-0.42,-0.06
2062769974,-0.87,-0.42,-0.06
2062771977,-0.87,-0.42,-0.06
2062773976,-0.87,-0.42,-0.06
2062776090,-0.95,-0.44,-0.09
2062778025,-0.95,-0.44,-0.09
2062780005,-0.95,-0.44,-0.09
2062782040,-0.95,-0.44,-0.09
2062784003,-0.95,-0.44,-0.09
2062786009,-0.92,-0.44,-0.13
2062788002,-0.92,-0.44,-0.13
2062790009,-0.92,-0.44,-0.13
2062792003,-0.92,-0.44,-0.13
2062794024,-0.92,-0.44,-0.13
2062795990,-0.96,-0.46,-0.12
2062797977,-0.96,-0.46,-0.12
2062799974,-0.96,-0.46,-0.12
2062802096,-0.96,-0.46,-0.12
2062803975,-0.96,-0.46,-0.12
2062805974,-0.90,-0.45,-0.11
2062807977,-0.90,-0.45,-0.11
2062809974,-0.90,-0.45,-0.11
2062811976,-0.90,-0.45,-0.11
2062813980,-0.90,-0.45,-0.11
2062815975,-0.89,-0.46,-0.11
2062818011,-0.89,-0.46,-0.11
2062820003,-0.89,-0.46,-0.11
2062822002,-0.89,-0.46,-0.11
2062824006,-0.89,-0.46,-0.11
2062826094,-0.91,-0.45,-0.13
2062828005,-0.91,-0.45,-0.13
2062830006,-0.91,-0.45,-0.13
2062831984,-0.91,-0.45,-0.13
2062833978,-0.91,-0.45,-0.13
2062835979,-0.85,-0.45,-0.11
2062837974,-0.85,-0.45,-0.11
2062839977,-0.85,-0.45,-0.11
2062841979,-0.85,-0.45,-0.11
2062843979,-0.85,-0.45,-0.11
2062845979,-0.89,-0.44,-0.08
2062847977,-0.89,-0.44,-0.08
2062849977,-0.89,-0.44,-0.08
2062852075,-0.89,-0.44,-0.08
2062853977,-0.89,-0.44,-0.08
2062855974,-0.86,-0.43,-0.10
2062858009,-0.86,-0.43,-0.10
2062860003,-0.86,-0.43,-0.10
2062862002,-0.86,-0.43,-0.10
2062864085,-0.86,-0.43,-0.10
2062866027,-0.92,-0.42,-0.12
2062868006,-0.92,-0.42,-0.12
2062870004,-0.92,-0.42,-0.12
2062872003,-0.92,-0.42,-0.12
2062873979,-0.92,-0.42,-0.12
2062876092,-0.89,-0.41,-0.12
2062877990,-0.89,-0.41,-0.12
2062879975,-0.89,-0.41,-0.12
2062881979,-0.89,-0.41,-0.12
2062883979,-0.89,-0.41,-0.12
2062885978,-0.91,-0.42,-0.12
2062887982,-0.91,-0.42,-0.12
2062889991,-0.91,-0.42,-0.12
2062891979,-0.91,-0.42,-0.12
2062894012,-0.91,-0.42,-0.12
2062895991,-0.90,-0.42,-0.12
2062898015,-0.90,-0.42,-0.12
2062900035,-0.90,-0.42,-0.12
2062902172,-0.90,-0.42,-0.12
2062904026,-0.90,-0.42,-0.12
2062906006,-0.91,-0.43,-0.13
2062908001,-0.91,-0.43,-0.13
2062910005,-0.91,-0.43,-0.13
2062912010,-0.91,-0.43,-0.13
2062913976,-0.91,-0.43,-0.13
2062915979,-0.91,-0.43,-0.13
2062917977,-0.88,-0.41,-0.11
2062919978,-0.88,-0.41,-0.11
2062921981,-0.88,-0.41,-0.11
2062923980,-0.88,-0.41,-0.11
2062926088,-0.88,-0.41,-0.11
2062927987,-0.86,-0.41,-0.10
2062929978,-0.86,-0.41,-0.10
2062931978,-0.86,-0.41,-0.10
2062933982,-0.86,-0.41,-0.10
2062935991,-0.86,-0.41,-0.10
2062938011,-0.88,-0.40,-0.09
2062940002,-0.88,-0.40,-0.09
2062942005,-0.88,-0.40,-0.09
2062944008,-0.88,-0.40,-0.09
2062946001,-0.88,-0.40,-0.09
2062948004,-0.88,-0.39,-0.08
2062950005,-0.88,-0.39,-0.08
2062952087,-0.88,-0.39,-0.08
2062954031,-0.88,-0.39,-0.08
2062956028,-0.88,-0.39,-0.08
2062958002,-0.89,-0.37,-0.08
2062959974,-0.89,-0.37,-0.08
2062961979,-0.89,-0.37,-0.08
2062963979,-0.89,-0.37,-0.08
2062965979,-0.89,-0.37,-0.08
2062967976,-0.89,-0.34,-0.09
2062969975,-0.89,-0.34,-0.09
2062971974,-0.89,-0.34,-0.09
2062973977,-0.89,-0.34,-0.09
2062976089,-0.89,-0.34,-0.09
2062978024,-0.92,-0.34,-0.08
2062980006,-0.92,-0.34,-0.08
2062982004,-0.92,-0.34,-0.08
2062984007,-0.92,-0.34,-0.08
2062986006,-0.92,-0.34,-0.08
2062988002,-0.92,-0.35,-0.07
2062990008,-0.92,-0.35,-0.07
2062992005,-0.92,-0.35,-0.07
2062994013,-0.92,-0.35,-0.07
2062995989,-0.92,-0.35,-0.07
2062997979,-0.92,-0.39,-0.09
2062999978,-0.92,-0.39,-0.09
2063002093,-0.92,-0.39,-0.09
2063004021,-0.92,-0.39,-0.09
2063005975,-0.92,-0.39,-0.09
2063007980,-0.92,-0.41,-0.09
2063010085,-0.92,-0.41,-0.09
2063012011,-0.92,-0.41,-0.09
2063013976,-0.92,-0.41,-0.09
2063015979,-0.92,-0.41,-0.09
2063018019,-0.93,-0.44,-0.10
2063020005,-0.93,-0.44,-0.10
2063022003,-0.93,-0.44,-0.10
2063024004,-0.93,-0.44,-0.10
2063026108,-0.93,-0.44,-0.10
2063028010,-0.91,-0.48,-0.09
2063030008,-0.91,-0.48,-0.09
2063031979,-0.91,-0.48,-0.09
2063033979,-0.91,-0.48,-0.09
2063035977,-0.91,-0.48,-0.09
2063037980,-0.89,-0.48,-0.09
2063039980,-0.89,-0.48,-0.09
2063041978,-0.89,-0.48,-0.09
2063043973,-0.89,-0.48,-0.09
2063045980,-0.89,-0.48,-0.09
2063047979,-0.89,-0.49,-0.10
2063049976,-0.89,-0.49,-0.10
2063052079,-0.89,-0.49,-0.10
2063053980,-0.89,-0.49,-0.10
2063055979,-0.89,-0.49,-0.10
2063058016,-0.88,-0.43,-0.09
2063060009,-0.88,-0.43,-0.09
2063062003,-0.88,-0.43,-0.09
2063064006,-0.88,-0.43,-0.09
2063066003,-0.88,-0.43,-0.09
2063068005,-0.90,-0.39,-0.09
2063069993,-0.90,-0.39,-0.09
2063071979,-0.90,-0.39,-0.09
2063073984,-0.90,-0.39,-0.09
2063076081,-0.90,-0.39,-0.09
2063077988,-0.90,-0.36,-0.11
2063079979,-0.90,-0.36,-0.11
2063081980,-0.90,-0.36,-0.11
2063083976,-0.90,-0.36,-0.11
2063085986,-0.90,-0.36,-0.11
2063088025,-0.88,-0.34,-0.12
2063089986,-0.88,-0.34,-0.12
2063091978,-0.88,-0.34,-0.12
2063094017,-0.88,-0.34,-0.12
2063095991,-0.88,-0.34,-0.12
2063098016,-0.89,-0.33,-0.11
2063100003,-0.89,-0.33,-0.11
2063102115,-0.89,-0.33,-0.11
2063104060,-0.89,-0.33,-0.11
2063106045,-0.89,-0.33,-0.11
2063108023,-0.89,-0.33,-0.11
2063110044,-0.87,-0.34,-0.10
2063112021,-0.87,-0.34,-0.10
2063114002,-0.87,-0.34,-0.10
2063115996,-0.87,-0.34,-0.10
2063117976,-0.87,-0.34,-0.10
2063119981,-0.87,-0.35,-0.10
2063121977,-0.87,-0.35,-0.10
2063123984,-0.87,-0.35,-0.10
2063126096,-0.87,-0.35,-0.10
2063127989,-0.87,-0.35,-0.10
2063129979,-0.87,-0.36,-0.10
2063131979,-0.87,-0.36,-0.10
2063133975,-0.87,-0.36,-0.10
2063135979,-0.87,-0.36,-0.10
2063138015,-0.87,-0.36,-0.10
2063140009,-0.86,-0.37,-0.07
2063142006,-0.86,-0.37,-0.07
2063144005,-0.86,-0.37,-0.07
2063146006,-0.86,-0.37,-0.07
2063148003,-0.86,-0.37,-0.07
2063149977,-0.87,-0.34,-0.07
2063152080,-0.87,-0.34,-0.07
2063153977,-0.87,-0.34,-0.07
2063155984,-0.87,-0.34,-0.07
2063157977,-0.87,-0.34,-0.07
2063159976,-0.86,-0.32,-0.06
2063161981,-0.86,-0.32,-0.06
2063163976,-0.86,-0.32,-0.06
2063165980,-0.86,-0.32,-0.06
2063167976,-0.86,-0.32,-0.06
2063169977,-0.86,-0.30,-0.06
2063171980,-0.86,-0.30,-0.06
2063173977,-0.86,-0.30,-0.06
2063176058,-0.86,-0.30,-0.06
2063178014,-0.86,-0.30,-0.06
2063180005,-0.87,-0.33,-0.04
2063182002,-0.87,-0.33,-0.04
2063184003,-0.87,-0.33,-0.04
2063186011,-0.87,-0.33,-0.04
2063188006,-0.87,-0.33,-0.04
2063190015,-0.88,-0.40,-0.04
2063191981,-0.88,-0.40,-0.04
2063194012,-0.88,-0.40,-0.04
2063195992,-0.88,-0.40,-0.04
2063197974,-0.88,-0.40,-0.04
2063199976,-0.94,-0.45,-0.05
2063202090,-0.94,-0.45,-0.05
2063203976,-0.94,-0.45,-0.05
2063205979,-0.94,-0.45,-0.05
2063208038,-0.94,-0.45,-0.05
2063209994,-0.98,-0.48,-0.07
2063211976,-0.98,-0.48,-0.07
2063213979,-0.98,-0.48,-0.07
2063215977,-0.98,-0.48,-0.07
2063218048,-0.98,-0.48,-0.07
2063220003,-1.00,-0.47,-0.06
2063221958,-1.00,-0.47,-0.06
2063223955,-1.00,-0.47,-0.06
2063226071,-1.00,-0.47,-0.06
2063227969,-1.00,-0.47,-0.06
2063229958,-1.01,-0.48,-0.04
2063231958,-1.01,-0.48,-0.04
2063233952,-1.01,-0.48,-0.04
2063235957,-1.01,-0.48,-0.04
2063237957,-1.01,-0.48,-0.04
2063239957,-1.03,-0.50,-0.05
2063241952,-1.03,-0.50,-0.05
2063243958,-1.03,-0.50,-0.05
2063245957,-1.03,-0.50,-0.05
2063247955,-1.03,-0.50,-0.05
2063249955,-1.02,-0.51,-0.07
2063252037,-1.02,-0.51,-0.07
2063253957,-1.02,-0.51,-0.07
2063255958,-1.02,-0.51,-0.07
2063258058,-1.02,-0.51,-0.07
2063260005,-1.04,-0.50,-0.07
2063262002,-1.04,-0.50,-0.07
2063264002,-1.04,-0.50,-0.07
2063266007,-1.04,-0.50,-0.07
2063270010,-1.04,-0.49,-0.09
2063272001,-1.04,-0.49,-0.09
2063274005,-1.04,-0.49,-0.09
2063276109,-1.04,-0.49,-0.09
2063278006,-1.04,-0.49,-0.09
2063280000,-1.01,-0.47,-0.09
2063282006,-1.01,-0.47,-0.09
2063284008,-1.01,-0.47,-0.09
2063285980,-1.01,-0.47,-0.09
2063287981,-1.01,-0.47,-0.09
2063289992,-1.01,-0.47,-0.09
2063292020,-0.97,-0.44,-0.10
2063294021,-0.97,-0.44,-0.10
2063295989,-0.97,-0.44,-0.10
2063297979,-0.97,-0.44,-0.10
2063299978,-0.97,-0.44,-0.10
2063302092,-0.96,-0.40,-0.12
2063303980,-0.96,-0.40,-0.12
2063305979,-0.96,-0.40,-0.12
2063307979,-0.96,-0.40,-0.12
2063310047,-0.96,-0.40,-0.12
2063312055,-0.94,-0.36,-0.11
2063314051,-0.94,-0.36,-0.11
2063316033,-0.94,-0.36,-0.11
2063318010,-0.94,-0.36,-0.11
2063320005,-0.94,-0.36,-0.11
2063322005,-0.91,-0.32,-0.12
2063324007,-0.91,-0.32,-0.12
2063326114,-0.91,-0.32,-0.12
2063327989,-0.91,-0.32,-0.12
2063329981,-0.91,-0.32,-0.12
2063331979,-0.92,-0.29,-0.11
2063333975,-0.92,-0.29,-0.11
2063335987,-0.92,-0.29,-0.11
2063337981,-0.92,-0.29,-0.11
2063339979,-0.92,-0.29,-0.11
2063341979,-0.89,-0.25,-0.10
2063343980,-0.89,-0.25,-0.10
2063345974,-0.89,-0.25,-0.10
2063347978,-0.89,-0.25,-0.10
2063350008,-0.89,-0.25,-0.10
2063352104,-0.88,-0.21,-0.09
2063354003,-0.88,-0.21,-0.09
2063356006,-0.88,-0.21,-0.09
2063357999,-0.88,-0.21,-0.09
2063360006,-0.88,-0.21,-0.09
2063362002,-0.87,-0.20,-0.06
2063363977,-0.87,-0.20,-0.06
2063365977,-0.87,-0.20,-0.06
2063367981,-0.87,-0.20,-0.06
2063369979,-0.87,-0.20,-0.06
2063371978,-0.89,-0.19,-0.05
2063373976,-0.89,-0.19,-0.05
2063376082,-0.89,-0.19,-0.05
2063377989,-0.89,-0.19,-0.05
2063379977,-0.89,-0.19,-0.05
2063381979,-0.94,-0.20,-0.04
2063383979,-0.94,-0.20,-0.04
2063385980,-0.94,-0.20,-0.04
2063387975,-0.94,-0.20,-0.04
2063390019,-0.94,-0.20,-0.04
2063392001,-0.94,-0.20,-0.01
2063394044,-0.94,-0.20,-0.01
2063396008,-0.94,-0.20,-0.01
2063398006,-0.94,-0.20,-0.01
2063400028,-0.94,-0.20,-0.01
2063402162,-0.95,-0.23,0.00
2063404009,-0.95,-0.23,0.00
2063405957,-0.95,-0.23,0.00
2063407957,-0.95,-0.23,0.00
2063409957,-0.95,-0.23,0.00
2063411959,-0.97,-0.25,0.02
2063414027,-0.97,-0.25,0.02
2063416045,-0.97,-0.25,0.02
2063418043,-0.97,-0.25,0.02
2063420012,-0.97,-0.25,0.02
2063421983,-0.95,-0.28,0.03
2063423980,-0.95,-0.28,0.03
2063426094,-0.95,-0.28,0.03
2063427990,-0.95,-0.28,0.03
2063430011,-0.95,-0.28,0.03
2063432006,-0.96,-0.30,0.06
2063434008,-0.96,-0.30,0.06
2063436015,-0.96,-0.30,0.06
2063438009,-0.96,-0.30,0.06
2063440015,-0.96,-0.30,0.06
2063441979,-0.98,-0.32,0.05
2063443981,-0.98,-0.32,0.05
2063445980,-0.98,-0.32,0.05
2063447976,-0.98,-0.32,0.05
2063449984,-0.98,-0.32,0.05
2063452086,-1.01,-0.33,0.05
2063453981,-1.01,-0.33,0.05
2063455980,-1.01,-0.33,0.05
2063457979,-1.01,-0.33,0.05
2063459977,-1.01,-0.33,0.05
2063461980,-1.01,-0.35,0.05
2063463978,-1.01,-0.35,0.05
2063465979,-1.01,-0.35,0.05
2063467981,-1.01,-0.35,0.05
2063470011,-1.01,-0.35,0.05
2063472006,-1.01,-0.35,0.05
2063474009,-1.02,-0.36,0.05
2063476101,-1.02,-0.36,0.05
2063478012,-1.02,-0.36,0.05
2063480007,-1.02,-0.36,0.05
2063481994,-1.02,-0.36,0.05
2063483977,-1.00,-0.36,0.07
2063485981,-1.00,-0.36,0.07
2063487983,-1.00,-0.36,0.07
2063489992,-1.00,-0.36,0.07
2063491979,-1.00,-0.36,0.07
2063494015,-0.99,-0.37,0.05
2063495993,-0.99,-0.37,0.05
2063498032,-0.99,-0.37,0.05
2063499976,-0.99,-0.37,0.05
2063502091,-0.99,-0.37,0.05
2063503980,-0.97,-0.36,0.05
2063505978,-0.97,-0.36,0.05
2063507974,-0.97,-0.36,0.05
2063510017,-0.97,-0.36,0.05
2063512009,-0.97,-0.36,0.05
2063514044,-0.96,-0.36,0.01
2063516068,-0.96,-0.36,0.01
2063518024,-0.96,-0.36,0.01
2063520008,-0.96,-0.36,0.01
2063522047,-0.96,-0.36,0.01
2063524002,-0.96,-0.34,0.00
2063526117,-0.96,-0.34,0.00
2063527986,-0.96,-0.34,0.00
2063529977,-0.96,-0.34,0.00
2063531984,-0.96,-0.34,0.00
2063533979,-0.96,-0.32,0.00
2063535979,-0.96,-0.32,0.00
2063537978,-0.96,-0.32,0.00
2063539976,-0.96,-0.32,0.00
2063541981,-0.96,-0.32,0.00
2063543980,-0.97,-0.31,-0.04
2063545979,-0.97,-0.31,-0.04
2063547980,-0.97,-0.31,-0.04
2063550011,-0.97,-0.31,-0.04
2063552106,-0.97,-0.31,-0.04
2063554003,-0.97,-0.31,-0.03
2063556005,-0.97,-0.31,-0.03
2063558002,-0.97,-0.31,-0.03
2063560002,-0.97,-0.31,-0.03
2063561997,-0.97,-0.31,-0.03
2063563981,-0.95,-0.32,-0.02
2063565979,-0.95,-0.32,-0.02
2063567979,-0.95,-0.32,-0.02
2063569980,-0.95,-0.32,-0.02
2063571978,-0.95,-0.32,-0.02
2063573979,-0.93,-0.32,0.00
2063576077,-0.93,-0.32,0.00
2063577987,-0.93,-0.32,0.00
2063579980,-0.93,-0.32,0.00
2063581980,-0.93,-0.32,0.00
2063583979,-0.93,-0.32,0.00
2063585977,-0.93,-0.32,0.00
2063587980,-0.93,-0.32,0.00
2063590014,-0.93,-0.32,0.00
2063592004,-0.93,-0.32,0.00
2063594036,-0.94,-0.32,-0.04
2063596009,-0.94,-0.32,-0.04
2063598006,-0.94,-0.32,-0.04
2063600004,-0.94,-0.32,-0.04
2063602122,-0.94,-0.32,-0.04
2063603979,-0.94,-0.30,0.00
2063605979,-0.94,-0.30,0.00
2063607979,-0.94,-0.30,0.00
2063609973,-0.94,-0.30,0.00
2063611976,-0.94,-0.30,0.00
2063613979,-0.95,-0.29,0.00
2063615978,-0.95,-0.29,0.00
2063618038,-0.95,-0.29,0.00
2063620057,-0.95,-0.29,0.00
2063622090,-0.95,-0.29,0.00
2063623976,-0.95,-0.29,0.00
2063626088,-0.95,-0.29,0.00
2063627987,-0.95,-0.29,0.00
2063630019,-0.95,-0.29,0.00
2063632000,-0.95,-0.29,0.00
2063634001,-0.96,-0.29,0.02
2063636002,-0.96,-0.29,0.02
2063638006,-0.96,-0.29,0.02
2063640001,-0.96,-0.29,0.02
2063642005,-0.96,-0.29,0.02
2063643979,-0.94,-0.31,0.02
2063645981,-0.94,-0.31,0.02
2063647979,-0.94,-0.31,0.02
2063649979,-0.94,-0.31,0.02
2063652084,-0.94,-0.31,0.02
2063653978,-0.94,-0.31,0.02
2063655980,-0.93,-0.33,0.04
2063657974,-0.93,-0.33,0.04
2063659976,-0.93,-0.33,0.04
2063661980,-0.93,-0.33,0.04
2063663977,-0.93,-0.33,0.04
2063665978,-0.92,-0.34,0.05
2063667976,-0.92,-0.34,0.05
2063670011,-0.92,-0.34,0.05
2063672001,-0.92,-0.34,0.05
2063674004,-0.92,-0.34,0.05
2063676090,-0.93,-0.36,0.06
2063678005,-0.93,-0.36,0.06
2063680002,-0.93,-0.36,0.06
2063682004,-0.93,-0.36,0.06
2063683983,-0.93,-0.36,0.06
2063685991,-0.95,-0.35,0.09
2063687979,-0.95,-0.35,0.09
2063689988,-0.95,-0.35,0.09
2063691977,-0.95,-0.35,0.09
2063694019,-0.95,-0.35,0.09
2063695991,-0.98,-0.34,0.09
2063697978,-0.98,-0.34,0.09
2063699976,-0.98,-0.34,0.09
2063702149,-0.98,-0.34,0.09
2063703979,-0.98,-0.34,0.09
2063705978,-0.98,-0.34,0.08
2063707976,-0.98,-0.34,0.08
2063710012,-0.98,-0.34,0.08
2063712005,-0.98,-0.34,0.08
2063714000,-0.98,-0.34,0.08
2063716026,-0.98,-0.32,0.06
2063718041,-0.98,-0.32,0.06
2063720038,-0.98,-0.32,0.06
2063722048,-0.98,-0.32,0.06
2063724040,-0.98,-0.32,0.06
2063726119,-0.98,-0.33,0.09
2063728011,-0.98,-0.33,0.09
2063730008,-0.98,-0.33,0.09
2063732008,-0.98,-0.33,0.09
2063733978,-0.98,-0.33,0.09
2063735975,-0.94,-0.32,0.09
2063737976,-0.94,-0.32,0.09
2063739974,-0.94,-0.32,0.09
2063741976,-0.94,-0.32,0.09
2063743985,-0.94,-0.32,0.09
2063745979,-0.94,-0.33,0.07
2063747980,-0.94,-0.33,0.07
2063750007,-0.94,-0.33,0.07
2063752105,-0.94,-0.33,0.07
2063754003,-0.94,-0.33,0.07
2063756004,-0.93,-0.34,0.06
2063758003,-0.93,-0.34,0.06
2063760002,-0.93,-0.34,0.06
2063762008,-0.93,-0.34,0.06
2063763981,-0.93,-0.34,0.06
2063765976,-0.95,-0.34,0.04
2063767981,-0.95,-0.34,0.04
