timestamp,accX,accY,accZ
2087876126,-0.89,-0.47,0.00
2087877995,-0.89,-0.47,0.00
2087879991,-0.89,-0.47,0.00
2087881989,-0.89,-0.47,0.00
2087883986,-0.89,-0.47,0.00
2087885990,-0.89,-0.45,0.00
2087888017,-0.89,-0.45,0.00
2087889997,-0.89,-0.45,0.00
2087891987,-0.89,-0.45,0.00
2087893989,-0.89,-0.45,0.00
2087895998,-0.90,-0.40,0.00
2087897989,-0.90,-0.40,0.00
2087899992,-0.90,-0.40,0.00
2087902087,-0.90,-0.40,0.00
2087903986,-0.90,-0.40,0.00
2087905985,-0.87,-0.43,0.01
2087907990,-0.87,-0.43,0.01
2087909987,-0.87,-0.43,0.01
2087911995,-0.87,-0.43,0.01
2087913989,-0.87,-0.43,0.01
2087916046,-0.89,-0.45,0.00
2087918030,-0.89,-0.45,0.00
2087920013,-0.89,-0.45,0.00
2087922011,-0.89,-0.45,0.00
2087924006,-0.89,-0.45,0.00
2087926119,-0.88,-0.48,-0.00
2087928015,-0.88,-0.48,-0.00
2087929999,-0.88,-0.48,-0.00
2087931991,-0.88,-0.48,-0.00
2087933990,-0.88,-0.48,-0.00
2087935988,-0.88,-0.51,0.00
2087937994,-0.88,-0.51,0.00
2087939998,-0.88,-0.51,0.00
2087941992,-0.88,-0.51,0.00
2087943986,-0.88,-0.51,0.00
2087945988,-0.88,-0.51,0.00
2087947990,-0.88,-0.51,0.00
2087949987,-0.88,-0.51,0.00
2087952084,-0.88,-0.51,0.00
2087953986,-0.88,-0.51,0.00
2087956017,-0.87,-0.52,0.00
2087958009,-0.87,-0.52,0.00
2087960007,-0.87,-0.52,0.00
2087962014,-0.87,-0.52,0.00
2087964013,-0.87,-0.52,0.00
2087966015,-0.87,-0.52,0.00
2087968008,-0.87,-0.52,0.00
2087969990,-0.87,-0.52,0.00
2087971986,-0.87,-0.52,0.00
2087973991,-0.87,-0.52,0.00
2087976089,-0.87,-0.52,0.00
2087977998,-0.88,-0.50,0.01
2087979992,-0.88,-0.50,0.01
2087981988,-0.88,-0.50,0.01
2087983990,-0.88,-0.50,0.01
2087985990,-0.88,-0.50,0.01
2087988017,-0.88,-0.48,0.00
2087989999,-0.88,-0.48,0.00
2087991985,-0.88,-0.48,0.00
2087993987,-0.88,-0.48,0.00
2087996021,-0.88,-0.48,0.00
2087998012,-0.89,-0.47,0.00
2088000007,-0.89,-0.47,0.00
2088002123,-0.89,-0.47,0.00
2088004046,-0.89,-0.47,0.00
2088006037,-0.89,-0.47,0.00
2088008011,-0.89,-0.46,0.01
2088010011,-0.89,-0.46,0.01
2088011990,-0.89,-0.46,0.01
2088013984,-0.89,-0.46,0.01
2088015992,-0.89,-0.46,0.01
2088017991,-0.89,-0.46,0.01
2088019987,-0.89,-0.46,0.01
2088021990,-0.89,-0.46,0.01
2088023992,-0.89,-0.46,0.01
2088026100,-0.89,-0.46,0.01
2088027998,-0.88,-0.46,0.01
2088029991,-0.88,-0.46,0.01
2088031990,-0.88,-0.46,0.01
2088033992,-0.88,-0.46,0.01
2088036024,-0.88,-0.46,0.01
2088038013,-0.88,-0.47,0.00
2088040011,-0.88,-0.47,0.00
2088042015,-0.88,-0.47,0.00
2088044019,-0.88,-0.47,0.00
2088046015,-0.88,-0.47,0.00
2088047989,-0.88,-0.47,0.01
2088049989,-0.88,-0.47,0.01
2088052085,-0.88,-0.47,0.01
2088053992,-0.88,-0.47,0.01
2088055989,-0.88,-0.47,0.01
2088057990,-0.88,-0.48,0.02
2088060002,-0.88,-0.48,0.02
2088062043,-0.88,-0.48,0.02
2088063991,-0.88,-0.48,0.02
2088065990,-0.88,-0.48,0.02
2088067987,-0.88,-0.48,0.01
2088069990,-0.88,-0.48,0.01
2088071987,-0.88,-0.48,0.01
2088073986,-0.88,-0.48,0.01
2088076120,-0.88,-0.48,0.01
2088078019,-0.89,-0.47,0.01
2088080014,-0.89,-0.47,0.01
2088082014,-0.89,-0.47,0.01
2088084015,-0.89,-0.47,0.01
2088086016,-0.89,-0.47,0.01
2088088052,-0.89,-0.46,0.00
2088090018,-0.89,-0.46,0.00
2088091990,-0.89,-0.46,0.00
2088093992,-0.89,-0.46,0.00
2088095995,-0.89,-0.46,0.00
2088097985,-0.88,-0.46,0.02
2088099986,-0.88,-0.46,0.02
2088102105,-0.88,-0.46,0.02
2088103986,-0.88,-0.46,0.02
2088105985,-0.88,-0.46,0.02
2088107987,-0.88,-0.46,0.02
2088109991,-0.88,-0.46,0.02
2088111990,-0.88,-0.46,0.02
2088113983,-0.88,-0.46,0.02
2088116020,-0.88,-0.46,0.02
2088118028,-0.89,-0.47,0.01
2088120035,-0.89,-0.47,0.01
2088121970,-0.89,-0.47,0.01
2088124058,-0.89,-0.47,0.01
2088126119,-0.89,-0.47,0.01
2088128018,-0.88,-0.47,0.01
2088130016,-0.88,-0.47,0.01
2088132015,-0.88,-0.47,0.01
2088134016,-0.88,-0.47,0.01
2088135991,-0.88,-0.47,0.01
2088137992,-0.88,-0.48,0.01
2088139991,-0.88,-0.48,0.01
2088141990,-0.88,-0.48,0.01
2088143987,-0.88,-0.48,0.01
2088145987,-0.88,-0.48,0.01
2088147992,-0.88,-0.48,0.01
2088149992,-0.89,-0.47,0.02
2088152082,-0.89,-0.47,0.02
2088153989,-0.89,-0.47,0.02
2088156018,-0.89,-0.47,0.02
2088158012,-0.89,-0.47,0.02
2088160016,-0.88,-0.48,0.02
2088162015,-0.88,-0.48,0.02
2088164014,-0.88,-0.48,0.02
2088166014,-0.88,-0.48,0.02
2088168013,-0.88,-0.48,0.02
2088169987,-0.88,-0.48,0.01
2088171990,-0.88,-0.48,0.01
2088173994,-0.88,-0.48,0.01
2088176123,-0.88,-0.48,0.01
2088178039,-0.88,-0.48,0.01
2088179986,-0.88,-0.47,0.01
2088181991,-0.88,-0.47,0.01
2088183991,-0.88,-0.47,0.01
2088185994,-0.88,-0.47,0.01
2088188023,-0.88,-0.47,0.01
2088190000,-0.88,-0.47,0.01
2088191988,-0.88,-0.47,0.01
2088193992,-0.88,-0.47,0.01
2088196032,-0.88,-0.47,0.01
2088198015,-0.88,-0.47,0.01
2088200015,-0.88,-0.47,0.00
2088202131,-0.88,-0.47,0.00
2088204018,-0.88,-0.47,0.00
2088206015,-0.88,-0.47,0.00
2088208013,-0.88,-0.47,0.00
2088209987,-0.88,-0.47,0.01
2088211987,-0.88,-0.47,0.01
2088213991,-0.88,-0.47,0.01
2088215987,-0.88,-0.47,0.01
2088217992,-0.88,-0.47,0.01
2088219992,-0.89,-0.47,0.00
2088221992,-0.89,-0.47,0.00
2088223990,-0.89,-0.47,0.00
2088226218,-0.89,-0.47,0.00
2088228040,-0.89,-0.47,0.00
2088229996,-0.89,-0.48,0.00
2088231991,-0.89,-0.48,0.00
2088234078,-0.89,-0.48,0.00
2088236051,-0.89,-0.48,0.00
2088238021,-0.89,-0.48,0.00
2088240013,-0.88,-0.48,0.01
2088242014,-0.88,-0.48,0.01
2088244017,-0.88,-0.48,0.01
2088246015,-0.88,-0.48,0.01
2088248014,-0.88,-0.48,0.01
2088249991,-0.88,-0.48,0.01
2088252112,-0.88,-0.48,0.01
2088253989,-0.88,-0.48,0.01
2088255991,-0.88,-0.48,0.01
2088257986,-0.88,-0.48,0.01
2088259985,-0.88,-0.48,0.01
2088261990,-0.88,-0.48,0.01
2088263992,-0.88,-0.48,0.01
2088265991,-0.88,-0.48,0.01
2088267989,-0.88,-0.48,0.01
2088269986,-0.88,-0.48,0.00
2088271986,-0.88,-0.48,0.00
2088273987,-0.88,-0.48,0.00
2088276103,-0.88,-0.48,0.00
2088278016,-0.88,-0.48,0.00
2088280055,-0.88,-0.48,0.01
2088282070,-0.88,-0.48,0.01
2088284053,-0.88,-0.48,0.01
2088286012,-0.88,-0.48,0.01
2088288048,-0.88,-0.48,0.01
2088290012,-0.88,-0.48,0.01
2088292011,-0.88,-0.48,0.01
2088294001,-0.88,-0.48,0.01
2088295996,-0.88,-0.48,0.01
2088297986,-0.88,-0.48,0.01
2088299989,-0.88,-0.48,0.00
2088302109,-0.88,-0.48,0.00
2088303987,-0.88,-0.48,0.00
2088305992,-0.88,-0.48,0.00
2088307990,-0.88,-0.48,0.00
2088309987,-0.88,-0.47,0.01
2088311986,-0.88,-0.47,0.01
2088313987,-0.88,-0.47,0.01
2088316024,-0.88,-0.47,0.01
2088318011,-0.88,-0.47,0.01
2088320014,-0.89,-0.47,0.01
2088322009,-0.89,-0.47,0.01
2088324012,-0.89,-0.47,0.01
2088326103,-0.89,-0.47,0.01
2088328023,-0.89,-0.47,0.01
2088330062,-0.88,-0.47,0.01
2088332018,-0.88,-0.47,0.01
2088333990,-0.88,-0.47,0.01
2088335987,-0.88,-0.47,0.01
2088337990,-0.88,-0.47,0.01
2088339990,-0.88,-0.47,0.01
2088341992,-0.89,-0.47,0.00
2088343987,-0.89,-0.47,0.00
2088345989,-0.89,-0.47,0.00
2088347987,-0.89,-0.47,0.00
2088349990,-0.89,-0.47,0.00
2088352105,-0.88,-0.48,0.00
2088353986,-0.88,-0.48,0.00
2088356028,-0.88,-0.48,0.00
2088358008,-0.88,-0.48,0.00
2088360013,-0.88,-0.48,0.00
2088362015,-0.88,-0.48,0.00
2088364014,-0.88,-0.48,0.00
2088366013,-0.88,-0.48,0.00
2088368013,-0.88,-0.48,0.00
2088369992,-0.88,-0.48,0.00
2088371992,-0.88,-0.47,0.00
2088373984,-0.88,-0.47,0.00
2088376089,-0.88,-0.47,0.00
2088377996,-0.88,-0.47,0.00
2088379990,-0.88,-0.47,0.00
2088381986,-0.88,-0.47,0.00
2088383987,-0.88,-0.47,0.00
2088385994,-0.88,-0.47,0.00
2088388021,-0.88,-0.47,0.00
2088389999,-0.88,-0.47,0.00
2088391987,-0.88,-0.47,0.00
2088393991,-0.88,-0.47,0.00
2088396023,-0.88,-0.47,0.00
2088398011,-0.88,-0.47,0.00
2088400010,-0.88,-0.47,0.00
2088402119,-0.88,-0.47,0.00
2088404013,-0.88,-0.47,0.00
2088406013,-0.88,-0.47,0.00
2088408014,-0.88,-0.47,0.00
2088409990,-0.88,-0.47,0.00
2088411987,-0.88,-0.48,0.01
2088413987,-0.88,-0.48,0.01
2088415991,-0.88,-0.48,0.01
2088417991,-0.88,-0.48,0.01
2088419991,-0.88,-0.48,0.01
2088421987,-0.88,-0.47,0.02
2088423990,-0.88,-0.47,0.02
2088426089,-0.88,-0.47,0.02
2088427998,-0.88,-0.47,0.02
2088429987,-0.88,-0.47,0.02
2088431990,-0.88,-0.48,0.02
2088433991,-0.88,-0.48,0.02
2088436020,-0.88,-0.48,0.02
2088438017,-0.88,-0.48,0.02
2088440023,-0.88,-0.48,0.02
2088442013,-0.88,-0.47,0.01
2088444047,-0.88,-0.47,0.01
2088446018,-0.88,-0.47,0.01
2088448016,-0.88,-0.47,0.01
2088450009,-0.88,-0.47,0.01
2088452157,-0.88,-0.47,0.01
2088453989,-0.88,-0.47,0.01
2088455990,-0.88,-0.47,0.01
2088457984,-0.88,-0.47,0.01
2088459990,-0.88,-0.47,0.01
2088461987,-0.88,-0.47,0.01
2088463990,-0.88,-0.47,0.01
2088465987,-0.88,-0.47,0.01
2088467985,-0.88,-0.47,0.01
2088469986,-0.88,-0.47,0.01
2088471987,-0.89,-0.47,0.02
2088473987,-0.89,-0.47,0.02
2088476105,-0.89,-0.47,0.02
2088478015,-0.89,-0.47,0.02
2088480014,-0.89,-0.47,0.02
2088482040,-0.88,-0.48,0.01
2088484056,-0.88,-0.48,0.01
2088486016,-0.88,-0.48,0.01
2088488046,-0.88,-0.48,0.01
2088490009,-0.88,-0.48,0.01
2088491999,-0.88,-0.47,0.01
2088493990,-0.88,-0.47,0.01
2088495995,-0.88,-0.47,0.01
2088497984,-0.88,-0.47,0.01
2088499986,-0.88,-0.47,0.01
2088502208,-0.88,-0.47,0.01
2088504021,-0.88,-0.47,0.01
2088505987,-0.88,-0.47,0.01
2088507987,-0.88,-0.47,0.01
2088509983,-0.88,-0.47,0.01
2088511985,-0.88,-0.47,0.01
2088513990,-0.89,-0.47,0.01
2088516035,-0.89,-0.47,0.01
2088518016,-0.89,-0.47,0.01
2088520009,-0.89,-0.47,0.01
2088522017,-0.89,-0.47,0.01
2088524010,-0.88,-0.47,0.01
2088526119,-0.88,-0.47,0.01
2088528016,-0.88,-0.47,0.01
2088529990,-0.88,-0.47,0.01
2088531986,-0.88,-0.47,0.01
2088533990,-0.88,-0.48,0.01
2088535992,-0.88,-0.48,0.01
2088537989,-0.88,-0.48,0.01
2088539986,-0.88,-0.48,0.01
2088541993,-0.88,-0.48,0.01
2088543989,-0.88,-0.48,0.00
2088545991,-0.88,-0.48,0.00
2088547999,-0.88,-0.48,0.00
2088550091,-0.88,-0.48,0.00
2088552136,-0.88,-0.48,0.00
2088553989,-0.88,-0.48,-0.01
2088556025,-0.88,-0.48,-0.01
2088558010,-0.88,-0.48,-0.01
2088560013,-0.88,-0.48,-0.01
2088562014,-0.88,-0.48,-0.01
2088564013,-0.88,-0.48,-0.01
2088566009,-0.88,-0.48,-0.01
2088568014,-0.88,-0.48,-0.01
2088569991,-0.88,-0.48,-0.01
2088571991,-0.88,-0.48,-0.01
2088573991,-0.88,-0.48,-0.01
2088576092,-0.88,-0.48,-0.01
2088577998,-0.88,-0.48,-0.01
2088579992,-0.88,-0.48,-0.01
2088581987,-0.88,-0.48,-0.01
2088583992,-0.88,-0.47,-0.00
2088586002,-0.88,-0.47,-0.00
2088588050,-0.88,-0.47,-0.00
2088589999,-0.88,-0.47,-0.00
2088591985,-0.88,-0.47,-0.00
2088594019,-0.88,-0.48,-0.00
2088596075,-0.88,-0.48,-0.00
2088598045,-0.88,-0.48,-0.00
2088600021,-0.88,-0.48,-0.00
2088602128,-0.88,-0.48,-0.00
2088604016,-0.88,-0.49,-0.00
2088606013,-0.88,-0.49,-0.00
2088608013,-0.88,-0.49,-0.00
2088610012,-0.88,-0.49,-0.00
2088612011,-0.88,-0.49,-0.00
2088613991,-0.88,-0.48,0.00
2088615992,-0.88,-0.48,0.00
2088617987,-0.88,-0.48,0.00
2088619992,-0.88,-0.48,0.00
2088622060,-0.88,-0.48,0.00
2088623991,-0.88,-0.49,0.00
2088626085,-0.88,-0.49,0.00
2088627998,-0.88,-0.49,0.00
2088629987,-0.88,-0.49,0.00
2088631990,-0.88,-0.49,0.00
2088633991,-0.88,-0.48,0.01
2088635991,-0.88,-0.48,0.01
2088638022,-0.88,-0.48,0.01
2088640011,-0.88,-0.48,0.01
2088642012,-0.88,-0.48,0.01
2088644015,-0.88,-0.49,0.00
2088646017,-0.88,-0.49,0.00
2088648014,-0.88,-0.49,0.00
2088650009,-0.88,-0.49,0.00
2088652088,-0.88,-0.49,0.00
2088653992,-0.88,-0.48,0.01
2088656070,-0.88,-0.48,0.01
2088658026,-0.88,-0.48,0.01
2088659991,-0.88,-0.48,0.01
2088661987,-0.88,-0.48,0.01
2088663986,-0.88,-0.48,0.01
2088665985,-0.88,-0.48,0.01
2088667985,-0.88,-0.48,0.01
2088669988,-0.88,-0.48,0.01
2088671986,-0.88,-0.48,0.01
2088673986,-0.88,-0.48,0.01
2088676098,-0.88,-0.48,0.01
2088678038,-0.88,-0.48,0.01
2088680015,-0.88,-0.48,0.01
2088682012,-0.88,-0.48,0.01
2088684017,-0.88,-0.48,0.01
2088686015,-0.88,-0.48,0.01
2088688063,-0.88,-0.48,0.01
2088690057,-0.88,-0.48,0.01
2088692015,-0.88,-0.48,0.01
2088694016,-0.88,-0.48,0.01
2088695997,-0.88,-0.48,0.01
2088697994,-0.88,-0.48,0.01
2088699991,-0.88,-0.48,0.01
2088702105,-0.88,-0.48,0.01
2088703983,-0.88,-0.48,0.01
2088705987,-0.88,-0.48,0.01
2088707985,-0.88,-0.48,0.01
2088709985,-0.88,-0.48,0.01
2088711987,-0.88,-0.48,0.01
2088713986,-0.88,-0.48,0.01
2088715988,-0.88,-0.48,0.01
2088718036,-0.88,-0.48,0.01
2088720087,-0.88,-0.48,0.01
2088722044,-0.88,-0.48,0.01
2088724008,-0.88,-0.48,0.01
2088726118,-0.89,-0.47,0.01
2088728015,-0.89,-0.47,0.01
2088730011,-0.89,-0.47,0.01
2088732013,-0.89,-0.47,0.01
2088734009,-0.89,-0.47,0.01
2088735989,-0.89,-0.47,0.00
2088737992,-0.89,-0.47,0.00
2088739990,-0.89,-0.47,0.00
2088741984,-0.89,-0.47,0.00
2088743986,-0.89,-0.47,0.00
2088745987,-0.89,-0.46,0.01
2088747991,-0.89,-0.46,0.01
2088749987,-0.89,-0.46,0.01
2088752084,-0.89,-0.46,0.01
2088753990,-0.89,-0.46,0.01
2088755990,-0.88,-0.46,0.01
2088758021,-0.88,-0.46,0.01
2088760016,-0.88,-0.46,0.01
2088762012,-0.88,-0.46,0.01
2088764028,-0.88,-0.46,0.01
2088766061,-0.89,-0.46,0.01
2088768052,-0.89,-0.46,0.01
2088770017,-0.89,-0.46,0.01
2088772002,-0.89,-0.46,0.01
2088773991,-0.89,-0.46,0.01
2088776109,-0.88,-0.46,0.01
2088777998,-0.88,-0.46,0.01
2088779986,-0.88,-0.46,0.01
2088781991,-0.88,-0.46,0.01
2088783990,-0.88,-0.46,0.01
2088785994,-0.89,-0.46,0.01
2088788012,-0.89,-0.46,0.01
2088789996,-0.89,-0.46,0.01
2088791987,-0.89,-0.46,0.01
2088793992,-0.89,-0.46,0.01
2088795995,-0.89,-0.46,0.02
2088798035,-0.89,-0.46,0.02
2088800015,-0.89,-0.46,0.02
2088802119,-0.89,-0.46,0.02
2088804017,-0.89,-0.46,0.02
2088806013,-0.89,-0.46,0.02
2088808010,-0.89,-0.46,0.02
2088810010,-0.89,-0.46,0.02
2088811992,-0.89,-0.46,0.02
2088813990,-0.89,-0.46,0.02
2088815992,-0.88,-0.47,0.02
2088817990,-0.88,-0.47,0.02
2088819992,-0.88,-0.47,0.02
2088821990,-0.88,-0.47,0.02
2088823991,-0.88,-0.47,0.02
2088826092,-0.88,-0.47,0.02
2088827997,-0.88,-0.47,0.02
2088829992,-0.88,-0.47,0.02
2088831990,-0.88,-0.47,0.02
2088833991,-0.88,-0.47,0.02
2088836003,-0.88,-0.48,0.02
2088838016,-0.88,-0.48,0.02
2088840002,-0.88,-0.48,0.02
2088842001,-0.88,-0.48,0.02
2088844006,-0.88,-0.48,0.02
2088846004,-0.88,-0.48,0.01
2088848006,-0.88,-0.48,0.01
2088850000,-0.88,-0.48,0.01
2088852081,-0.88,-0.48,0.01
2088853977,-0.88,-0.48,0.01
2088855977,-0.88,-0.48,0.02
2088857977,-0.88,-0.48,0.02
2088860044,-0.88,-0.48,0.02
2088862026,-0.88,-0.48,0.02
2088863975,-0.88,-0.48,0.02
2088865974,-0.89,-0.47,0.01
2088867977,-0.89,-0.47,0.01
2088869976,-0.89,-0.47,0.01
2088871974,-0.89,-0.47,0.01
2088873976,-0.89,-0.47,0.01
2088876089,-0.88,-0.48,0.01
2088878026,-0.88,-0.48,0.01
2088880002,-0.88,-0.48,0.01
2088882001,-0.88,-0.48,0.01
2088884004,-0.88,-0.48,0.01
2088886006,-0.88,-0.48,0.01
2088888047,-0.88,-0.47,0.00
2088890006,-0.88,-0.47,0.00
2088892009,-0.88,-0.47,0.00
2088894022,-0.88,-0.47,0.00
2088895991,-0.88,-0.47,0.00
2088897975,-0.88,-0.46,0.00
2088899979,-0.88,-0.46,0.00
2088902095,-0.88,-0.46,0.00
2088903976,-0.88,-0.46,0.00
2088905972,-0.88,-0.46,0.00
2088907977,-0.89,-0.48,-0.00
2088909977,-0.89,-0.48,-0.00
2088911978,-0.89,-0.48,-0.00
2088913977,-0.89,-0.48,-0.00
2088915976,-0.89,-0.48,-0.00
2088918041,-0.77,-0.52,-0.04
2088920057,-0.77,-0.52,-0.04
2088922044,-0.77,-0.52,-0.04
2088924007,-0.77,-0.52,-0.04
2088926027,-0.77,-0.52,-0.04
2088928007,-0.89,-0.52,0.09
2088930008,-0.89,-0.52,0.09
2088932011,-0.89,-0.52,0.09
2088933976,-0.89,-0.52,0.09
2088935981,-0.89,-0.52,0.09
2088937983,-0.86,-0.47,-0.02
2088939990,-0.86,-0.47,-0.02
2088941976,-0.86,-0.47,-0.02
2088943974,-0.86,-0.47,-0.02
2088945979,-0.86,-0.47,-0.02
2088947978,-0.93,-0.45,-0.01
2088949977,-0.93,-0.45,-0.01
2088951997,-0.93,-0.45,-0.01
2088953978,-0.93,-0.45,-0.01
2088955977,-0.93,-0.45,-0.01
2088958013,-0.84,-0.47,-0.02
2088960019,-0.84,-0.47,-0.02
2088962008,-0.84,-0.47,-0.02
2088964009,-0.84,-0.47,-0.02
2088966007,-0.84,-0.47,-0.02
2088968003,-0.89,-0.48,0.02
2088970007,-0.89,-0.48,0.02
2088971978,-0.89,-0.48,0.02
2088973978,-0.89,-0.48,0.02
2088976001,-0.89,-0.48,0.02
2088977983,-0.85,-0.45,-0.01
2088980064,-0.85,-0.45,-0.01
2088982019,-0.85,-0.45,-0.01
2088983977,-0.85,-0.45,-0.01
2088985980,-0.85,-0.45,-0.01
2088988009,-0.89,-0.51,0.02
2088989991,-0.89,-0.51,0.02
2088991976,-0.89,-0.51,0.02
2088993981,-0.89,-0.51,0.02
2088996032,-0.89,-0.51,0.02
2088998035,-0.87,-0.49,0.01
2089000005,-0.87,-0.49,0.01
2089002031,-0.87,-0.49,0.01
2089004006,-0.87,-0.49,0.01
2089006004,-0.87,-0.49,0.01
2089008006,-0.90,-0.50,-0.01
2089010002,-0.90,-0.50,-0.01
2089011978,-0.90,-0.50,-0.01
2089013978,-0.90,-0.50,-0.01
2089015977,-0.90,-0.50,-0.01
2089017976,-0.86,-0.49,-0.00
2089019979,-0.86,-0.49,-0.00
2089021980,-0.86,-0.49,-0.00
2089023979,-0.86,-0.49,-0.00
2089026136,-0.86,-0.49,-0.00
2089028013,-0.88,-0.49,-0.01
2089029976,-0.88,-0.49,-0.01
2089031977,-0.88,-0.49,-0.01
2089033978,-0.88,-0.49,-0.01
2089035974,-0.88,-0.49,-0.01
2089038025,-0.87,-0.48,0.00
2089040003,-0.87,-0.48,0.00
2089042005,-0.87,-0.48,0.00
2089044006,-0.87,-0.48,0.00
2089046004,-0.87,-0.48,0.00
2089048007,-0.89,-0.48,0.01
2089050007,-0.89,-0.48,0.01
2089052001,-0.89,-0.48,0.01
2089053981,-0.89,-0.48,0.01
2089055981,-0.89,-0.48,0.01
2089057977,-0.89,-0.49,0.00
2089059976,-0.89,-0.49,0.00
2089061974,-0.89,-0.49,0.00
2089063979,-0.89,-0.49,0.00
2089065977,-0.89,-0.49,0.00
2089067976,-0.89,-0.49,0.00
2089069981,-0.88,-0.47,-0.00
2089071976,-0.88,-0.47,-0.00
2089073977,-0.88,-0.47,-0.00
2089075990,-0.88,-0.47,-0.00
2089078065,-0.88,-0.47,-0.00
2089080042,-0.88,-0.48,0.00
2089082004,-0.88,-0.48,0.00
2089084006,-0.88,-0.48,0.00
2089086005,-0.88,-0.48,0.00
2089088038,-0.88,-0.48,0.00
2089090009,-0.89,-0.47,0.02
2089092004,-0.89,-0.47,0.02
2089094012,-0.89,-0.47,0.02
2089095992,-0.89,-0.47,0.02
2089097998,-0.89,-0.47,0.02
2089100025,-0.89,-0.47,0.00
2089102001,-0.89,-0.47,0.00
2089103978,-0.89,-0.47,0.00
2089105975,-0.89,-0.47,0.00
2089107975,-0.89,-0.47,0.00
2089109980,-0.88,-0.46,0.01
2089111979,-0.88,-0.46,0.01
2089113979,-0.88,-0.46,0.01
2089115977,-0.88,-0.46,0.01
2089118024,-0.88,-0.46,0.01
2089120004,-0.88,-0.46,0.00
2089122006,-0.88,-0.46,0.00
2089124000,-0.88,-0.46,0.00
2089126013,-0.88,-0.46,0.00
2089128010,-0.88,-0.46,0.00
2089130002,-0.89,-0.45,0.01
2089131980,-0.89,-0.45,0.01
2089133979,-0.89,-0.45,0.01
2089136049,-0.89,-0.45,0.01
2089138023,-0.89,-0.45,0.01
2089139974,-0.89,-0.45,0.02
2089141976,-0.89,-0.45,0.02
2089143975,-0.89,-0.45,0.02
2089145978,-0.89,-0.45,0.02
2089147977,-0.89,-0.45,0.02
2089149975,-0.89,-0.46,0.02
2089152003,-0.89,-0.46,0.02
2089153975,-0.89,-0.46,0.02
2089155977,-0.89,-0.46,0.02
2089158023,-0.89,-0.46,0.02
2089160007,-0.88,-0.46,0.02
2089162003,-0.88,-0.46,0.02
2089164003,-0.88,-0.46,0.02
2089166007,-0.88,-0.46,0.02
2089168006,-0.88,-0.46,0.02
2089170007,-0.88,-0.47,0.02
2089171979,-0.88,-0.47,0.02
2089173981,-0.88,-0.47,0.02
2089175999,-0.88,-0.47,0.02
2089177985,-0.88,-0.47,0.02
2089179976,-0.88,-0.46,0.02
2089181975,-0.88,-0.46,0.02
2089183974,-0.88,-0.46,0.02
2089185975,-0.88,-0.46,0.02
2089188015,-0.88,-0.46,0.02
2089189994,-0.89,-0.47,0.02
2089191977,-0.89,-0.47,0.02
2089193981,-0.89,-0.47,0.02
2089195990,-0.89,-0.47,0.02
2089198012,-0.89,-0.47,0.02
2089200003,-0.89,-0.47,0.02
2089202032,-0.89,-0.47,0.02
2089204002,-0.89,-0.47,0.02
2089206004,-0.89,-0.47,0.02
2089208005,-0.89,-0.47,0.02
2089210007,-0.88,-0.47,0.03
2089211980,-0.88,-0.47,0.03
2089213975,-0.88,-0.47,0.03
2089215977,-0.88,-0.47,0.03
2089217976,-0.88,-0.47,0.03
2089219981,-0.88,-0.48,0.02
2089221977,-0.88,-0.48,0.02
2089223986,-0.88,-0.48,0.02
2089225996,-0.88,-0.48,0.02
2089227986,-0.88,-0.48,0.02
2089229979,-0.87,-0.48,0.01
2089231975,-0.87,-0.48,0.01
2089233977,-0.87,-0.48,0.01
2089235981,-0.87,-0.48,0.01
2089238009,-0.87,-0.48,0.01
2089240002,-0.89,-0.47,0.01
2089242002,-0.89,-0.47,0.01
2089244016,-0.89,-0.47,0.01
2089246042,-0.89,-0.47,0.01
2089248012,-0.89,-0.47,0.01
2089250007,-0.88,-0.47,0.01
2089252029,-0.88,-0.47,0.01
2089253979,-0.88,-0.47,0.01
2089255978,-0.88,-0.47,0.01
2089257977,-0.88,-0.47,0.01
2089260041,-0.88,-0.47,0.01
2089261998,-0.88,-0.47,0.01
2089263972,-0.88,-0.47,0.01
2089265976,-0.88,-0.47,0.01
2089267972,-0.88,-0.47,0.01
2089269978,-0.88,-0.47,0.01
2089271978,-0.89,-0.47,0.00
2089273977,-0.89,-0.47,0.00
2089275999,-0.89,-0.47,0.00
2089278022,-0.89,-0.47,0.00
2089280005,-0.89,-0.47,0.00
2089282005,-0.88,-0.46,0.00
2089284005,-0.88,-0.46,0.00
2089286004,-0.88,-0.46,0.00
2089288053,-0.88,-0.46,0.00
2089290016,-0.88,-0.46,0.00
2089291979,-0.89,-0.47,0.00
2089293982,-0.89,-0.47,0.00
2089295990,-0.89,-0.47,0.00
2089297980,-0.89,-0.47,0.00
2089299979,-0.89,-0.47,0.00
2089302006,-0.88,-0.47,0.00
2089304031,-0.88,-0.47,0.00
2089305979,-0.88,-0.47,0.00
2089307977,-0.88,-0.47,0.00
2089310036,-0.88,-0.47,0.00
2089312026,-0.88,-0.48,0.00
2089313975,-0.88,-0.48,0.00
2089315977,-0.88,-0.48,0.00
2089318023,-0.88,-0.48,0.00
2089320006,-0.88,-0.48,0.00
2089322001,-0.88,-0.48,0.01
2089324008,-0.88,-0.48,0.01
2089326020,-0.88,-0.48,0.01
2089328010,-0.88,-0.48,0.01
2089329981,-0.88,-0.48,0.01
2089331978,-0.88,-0.48,0.00
2089333975,-0.88,-0.48,0.00
2089335976,-0.88,-0.48,0.00
2089337978,-0.88,-0.48,0.00
2089339975,-0.88,-0.48,0.00
2089341974,-0.88,-0.48,0.00
2089343974,-0.88,-0.48,0.00
2089345977,-0.88,-0.48,0.00
2089347977,-0.88,-0.48,0.00
2089349975,-0.88,-0.48,0.00
2089351992,-0.88,-0.48,0.00
2089353990,-0.88,-0.48,0.00
2089356024,-0.88,-0.48,0.00
2089358042,-0.88,-0.48,0.00
2089360032,-0.88,-0.48,0.00
2089362004,-0.88,-0.48,0.00
2089364006,-0.88,-0.48,0.00
2089366006,-0.88,-0.48,0.00
2089368006,-0.88,-0.48,0.00
2089370006,-0.88,-0.48,0.00
2089372010,-0.88,-0.48,0.00
2089373979,-0.88,-0.48,0.00
2089376004,-0.88,-0.48,0.00
2089377987,-0.88,-0.48,0.00
2089379977,-0.88,-0.48,0.00
2089381978,-0.88,-0.48,0.00
2089383977,-0.88,-0.48,0.00
2089385983,-0.88,-0.48,0.00
2089388015,-0.88,-0.48,0.00
2089389987,-0.88,-0.48,0.00
2089391976,-0.88,-0.48,0.00
2089393980,-0.88,-0.48,0.00
2089395989,-0.88,-0.48,0.00
2089397978,-0.88,-0.48,0.00
2089400020,-0.88,-0.48,0.00
2089402035,-0.88,-0.47,0.00
2089404053,-0.88,-0.47,0.00
2089406034,-0.88,-0.47,0.00
2089408017,-0.88,-0.47,0.00
2089410006,-0.88,-0.47,0.00
2089412004,-0.89,-0.46,0.00
2089414007,-0.89,-0.46,0.00
2089416006,-0.89,-0.46,0.00
2089417976,-0.89,-0.46,0.00
2089419981,-0.89,-0.46,0.00
2089421974,-0.89,-0.46,0.01
2089423972,-0.89,-0.46,0.01
2089426004,-0.89,-0.46,0.01
2089427985,-0.89,-0.46,0.01
2089429975,-0.89,-0.46,0.01
2089431977,-0.89,-0.46,0.01
2089433974,-0.89,-0.46,0.01
2089435979,-0.89,-0.46,0.01
2089437979,-0.89,-0.46,0.01
2089440016,-0.89,-0.46,0.01
2089442007,-0.89,-0.46,0.01
2089444005,-0.88,-0.46,0.01
2089446004,-0.88,-0.46,0.01
2089448004,-0.88,-0.46,0.01
2089450005,-0.88,-0.46,0.01
2089451997,-0.88,-0.46,0.01
2089454065,-0.88,-0.47,0.02
2089456020,-0.88,-0.47,0.02
2089457975,-0.88,-0.47,0.02
2089459974,-0.88,-0.47,0.02
2089461980,-0.88,-0.47,0.02
2089463979,-0.88,-0.47,0.01
2089465976,-0.88,-0.47,0.01
2089467975,-0.88,-0.47,0.01
2089469980,-0.88,-0.47,0.01
2089471980,-0.88,-0.47,0.01
2089473977,-0.88,-0.48,0.01
2089476001,-0.88,-0.48,0.01
2089477982,-0.88,-0.48,0.01
2089480026,-0.88,-0.48,0.01
2089482006,-0.88,-0.48,0.01
2089484006,-0.88,-0.48,0.02
2089486007,-0.88,-0.48,0.02
2089488039,-0.88,-0.48,0.02
2089490013,-0.88,-0.48,0.02
2089492006,-0.88,-0.48,0.02
2089493981,-0.88,-0.47,0.01
2089495990,-0.88,-0.47,0.01
2089497981,-0.88,-0.47,0.01
2089499975,-0.88,-0.47,0.01
2089501994,-0.88,-0.47,0.01
2089503984,-0.88,-0.47,0.01
2089505976,-0.88,-0.47,0.01
2089508035,-0.88,-0.47,0.01
2089510000,-0.88,-0.47,0.01
2089511991,-0.88,-0.47,0.01
2089514063,-0.88,-0.47,0.01
2089516014,-0.88,-0.47,0.01
2089517976,-0.88,-0.47,0.01
2089520021,-0.88,-0.47,0.01
2089522004,-0.88,-0.47,0.01
2089524004,-0.88,-0.47,0.00
2089526025,-0.88,-0.47,0.00
2089528006,-0.88,-0.47,0.00
2089530004,-0.88,-0.47,0.00
2089532008,-0.88,-0.47,0.00
2089533978,-0.89,-0.47,0.00
2089535981,-0.89,-0.47,0.00
2089537977,-0.89,-0.47,0.00
2089539975,-0.89,-0.47,0.00
2089541981,-0.89,-0.47,0.00
2089543979,-0.88,-0.47,0.01
2089545981,-0.88,-0.47,0.01
2089547976,-0.88,-0.47,0.01
2089549982,-0.88,-0.47,0.01
2089551997,-0.88,-0.47,0.01
2089553979,-0.88,-0.47,0.01
2089555977,-0.88,-0.47,0.01
2089557979,-0.88,-0.47,0.01
2089560006,-0.88,-0.47,0.01
2089562005,-0.88,-0.47,0.01
2089564004,-0.88,-0.47,0.01
2089566008,-0.88,-0.47,0.01
2089568007,-0.88,-0.47,0.01
2089570004,-0.88,-0.47,0.01
2089571977,-0.88,-0.47,0.01
2089573976,-0.88,-0.47,0.01
2089576002,-0.88,-0.47,0.01
2089577981,-0.88,-0.47,0.01
2089579979,-0.88,-0.47,0.01
2089581977,-0.88,-0.47,0.01
2089583977,-0.88,-0.48,0.01
2089585982,-0.88,-0.48,0.01
2089588010,-0.88,-0.48,0.01
2089589989,-0.88,-0.48,0.01
2089591976,-0.88,-0.48,0.01
2089593979,-0.89,-0.48,0.01
2089595989,-0.89,-0.48,0.01
2089597977,-0.89,-0.48,0.01
2089600023,-0.89,-0.48,0.01
2089602031,-0.89,-0.48,0.01
2089604004,-0.88,-0.48,0.01
2089606006,-0.88,-0.48,0.01
2089608032,-0.88,-0.48,0.01
2089610022,-0.88,-0.48,0.01
2089612007,-0.88,-0.48,0.01
2089614010,-0.88,-0.48,0.01
2089615984,-0.88,-0.48,0.01
2089617985,-0.88,-0.48,0.01
2089619980,-0.88,-0.48,0.01
2089622053,-0.88,-0.48,0.01
2089623977,-0.88,-0.48,0.01
2089626089,-0.88,-0.48,0.00
2089627988,-0.88,-0.48,0.00
2089629980,-0.88,-0.48,0.00
2089631979,-0.88,-0.48,0.00
2089633977,-0.88,-0.48,0.00
2089635976,-0.88,-0.47,0.00
2089637977,-0.88,-0.47,0.00
2089640012,-0.88,-0.47,0.00
2089642006,-0.88,-0.47,0.00
2089644002,-0.88,-0.47,0.00
2089646005,-0.88,-0.47,0.00
2089648004,-0.88,-0.47,0.00
2089650051,-0.88,-0.47,0.00
2089652051,-0.88,-0.47,0.00
2089653982,-0.88,-0.47,0.00
2089655985,-0.88,-0.47,0.00
2089657980,-0.88,-0.47,0.00
2089659979,-0.88,-0.47,0.00
2089661979,-0.88,-0.47,0.00
2089663979,-0.88,-0.47,0.00
2089665979,-0.88,-0.47,0.01
2089667977,-0.88,-0.47,0.01
2089669981,-0.88,-0.47,0.01
2089671974,-0.88,-0.47,0.01
2089673979,-0.88,-0.47,0.01
2089676074,-0.88,-0.48,0.01
2089677987,-0.88,-0.48,0.01
2089680010,-0.88,-0.48,0.01
2089682003,-0.88,-0.48,0.01
2089684006,-0.88,-0.48,0.01
2089686003,-0.88,-0.47,0.01
2089688037,-0.88,-0.47,0.01
2089690016,-0.88,-0.47,0.01
2089692000,-0.88,-0.47,0.01
2089693980,-0.88,-0.47,0.01
2089695994,-0.88,-0.48,0.02
2089697977,-0.88,-0.48,0.02
2089699977,-0.88,-0.48,0.02
2089702000,-0.88,-0.48,0.02
2089703977,-0.88,-0.48,0.02
2089705999,-0.88,-0.47,0.01
2089708068,-0.88,-0.47,0.01
2089710023,-0.88,-0.47,0.01
2089711981,-0.88,-0.47,0.01
2089714021,-0.88,-0.47,0.01
2089715975,-0.88,-0.48,0.01
2089717975,-0.88,-0.48,0.01
2089720025,-0.88,-0.48,0.01
2089722005,-0.88,-0.48,0.01
2089724003,-0.88,-0.48,0.01
2089726024,-0.88,-0.47,0.01
2089728009,-0.88,-0.47,0.01
2089730005,-0.88,-0.47,0.01
2089732009,-0.88,-0.47,0.01
2089733980,-0.88,-0.47,0.01
2089735977,-0.89,-0.46,0.01
2089737979,-0.89,-0.46,0.01
2089739979,-0.89,-0.46,0.01
2089741981,-0.89,-0.46,0.01
2089743980,-0.89,-0.46,0.01
2089745975,-0.88,-0.48,0.00
2089747986,-0.88,-0.48,0.00
2089749980,-0.88,-0.48,0.00
2089751993,-0.88,-0.48,0.00
2089753979,-0.88,-0.48,0.00
2089755980,-0.88,-0.46,0.01
2089757979,-0.88,-0.46,0.01
2089760012,-0.88,-0.46,0.01
2089762005,-0.88,-0.46,0.01
2089764004,-0.88,-0.46,0.01
2089766007,-0.88,-0.46,0.01
2089768008,-0.88,-0.46,0.01
2089770006,-0.88,-0.46,0.01
2089771980,-0.88,-0.46,0.01
2089773979,-0.88,-0.46,0.01
2089776061,-0.88,-0.46,0.01
2089778023,-0.88,-0.46,0.01
2089779974,-0.88,-0.46,0.01
2089781972,-0.88,-0.46,0.01
2089783975,-0.88,-0.46,0.01
2089785977,-0.88,-0.46,0.01
2089788007,-0.88,-0.46,0.01
2089789989,-0.88,-0.46,0.01
2089791974,-0.88,-0.46,0.01
2089793978,-0.88,-0.46,0.01
2089795991,-0.88,-0.47,0.01
2089797978,-0.88,-0.47,0.01
2089800022,-0.88,-0.47,0.01
2089802029,-0.88,-0.47,0.01
2089804007,-0.88,-0.47,0.01
2089806006,-0.88,-0.48,0.01
2089808008,-0.88,-0.48,0.01
2089810005,-0.88,-0.48,0.01
2089812019,-0.88,-0.48,0.01
2089813981,-0.88,-0.48,0.01
2089816031,-0.88,-0.48,0.01
2089817979,-0.88,-0.48,0.01
2089819975,-0.88,-0.48,0.01
2089821976,-0.88,-0.48,0.01
2089824051,-0.88,-0.48,0.01
2089826025,-0.88,-0.48,0.01
2089827979,-0.88,-0.48,0.01
2089829978,-0.88,-0.48,0.01
2089831977,-0.88,-0.48,0.01
2089833975,-0.88,-0.48,0.01
2089835981,-0.88,-0.48,0.01
2089837978,-0.88,-0.47,0.01
2089840018,-0.88,-0.47,0.01
2089842005,-0.88,-0.47,0.01
2089844005,-0.88,-0.47,0.01
2089846008,-0.88,-0.47,0.01
2089848002,-0.88,-0.47,0.00
2089850007,-0.88,-0.47,0.00
2089852026,-0.88,-0.47,0.00
2089853978,-0.88,-0.47,0.00
2089855979,-0.88,-0.47,0.00
2089857978,-0.88,-0.47,0.00
2089859980,-0.88,-0.47,0.00
2089861977,-0.88,-0.47,0.00
2089863976,-0.88,-0.47,0.00
2089865981,-0.88,-0.47,0.00
2089867979,-0.88,-0.48,0.01
2089869979,-0.88,-0.48,0.01
2089871978,-0.88,-0.48,0.01
2089873978,-0.88,-0.48,0.01
2089875985,-0.88,-0.48,0.01
2089877987,-0.88,-0.48,0.01
2089880010,-0.88,-0.48,0.01
2089882001,-0.88,-0.48,0.01
2089884000,-0.88,-0.48,0.01
2089886005,-0.88,-0.48,0.01
2089888041,-0.88,-0.48,0.01
2089890007,-0.88,-0.48,0.01
2089892008,-0.88,-0.48,0.01
2089893980,-0.88,-0.48,0.01
2089895992,-0.88,-0.48,0.01
2089897976,-0.88,-0.48,0.01
2089899975,-0.88,-0.48,0.01
2089902003,-0.88,-0.48,0.01
2089903977,-0.88,-0.48,0.01
2089905979,-0.88,-0.48,0.01
2089907974,-0.88,-0.48,0.01
2089910036,-0.88,-0.48,0.01
2089912037,-0.88,-0.48,0.01
2089913991,-0.88,-0.48,0.01
2089915975,-0.88,-0.48,0.01
2089918014,-0.88,-0.48,0.00
2089920021,-0.88,-0.48,0.00
2089922004,-0.88,-0.48,0.00
2089924004,-0.88,-0.48,0.00
2089926028,-0.88,-0.48,0.00
2089928013,-0.89,-0.47,0.00
2089930006,-0.89,-0.47,0.00
2089932004,-0.89,-0.47,0.00
2089933976,-0.89,-0.47,0.00
2089935978,-0.89,-0.47,0.00
2089937983,-0.89,-0.46,0.00
2089939990,-0.89,-0.46,0.00
2089941975,-0.89,-0.46,0.00
2089943971,-0.89,-0.46,0.00
2089945984,-0.89,-0.46,0.00
2089947977,-0.89,-0.46,0.00
2089949979,-0.89,-0.46,0.00
2089951994,-0.89,-0.46,0.00
2089953975,-0.89,-0.46,0.00
2089955981,-0.89,-0.46,0.00
2089957980,-0.89,-0.46,0.01
2089960016,-0.89,-0.46,0.01
2089962004,-0.89,-0.46,0.01
2089964004,-0.89,-0.46,0.01
2089966005,-0.89,-0.46,0.01
2089968008,-0.88,-0.47,0.01
2089970010,-0.88,-0.47,0.01
2089971977,-0.88,-0.47,0.01
2089973978,-0.88,-0.47,0.01
2089976000,-0.88,-0.47,0.01
2089977978,-0.88,-0.48,0.02
2089979979,-0.88,-0.48,0.02
2089981979,-0.88,-0.48,0.02
2089983979,-0.88,-0.48,0.02
2089985978,-0.88,-0.48,0.02
2089988011,-0.88,-0.48,0.02
2089990012,-0.88,-0.48,0.02
2089991978,-0.88,-0.48,0.02
2089993979,-0.88,-0.48,0.02
2089995991,-0.88,-0.48,0.02
2089997977,-0.88,-0.48,0.02
2090000019,-0.88,-0.49,0.02
2090002038,-0.88,-0.49,0.02
2090004034,-0.88,-0.49,0.02
2090006004,-0.88,-0.49,0.02
2090008006,-0.88,-0.49,0.02
2090010038,-0.88,-0.49,0.01
2090012014,-0.88,-0.49,0.01
2090014010,-0.88,-0.49,0.01
2090016010,-0.88,-0.49,0.01
2090017978,-0.88,-0.49,0.01
2090019980,-0.88,-0.49,0.01
2090021979,-0.88,-0.49,0.01
2090023977,-0.88,-0.49,0.01
2090026096,-0.88,-0.49,0.01
2090027989,-0.88,-0.49,0.01
2090029979,-0.88,-0.48,0.00
2090031978,-0.88,-0.48,0.00
2090033979,-0.88,-0.48,0.00
2090035976,-0.88,-0.48,0.00
2090037976,-0.88,-0.48,0.00
2090040053,-0.87,-0.48,0.00
2090042007,-0.87,-0.48,0.00
2090044007,-0.87,-0.48,0.00
2090046000,-0.87,-0.48,0.00
2090048007,-0.87,-0.48,0.00
2090050007,-0.89,-0.47,0.00
2090052033,-0.89,-0.47,0.00
2090054011,-0.89,-0.47,0.00
2090055981,-0.89,-0.47,0.00
2090057980,-0.89,-0.47,0.00
2090059979,-0.89,-0.46,0.00
2090061980,-0.89,-0.46,0.00
2090063979,-0.89,-0.46,0.00
2090065978,-0.89,-0.46,0.00
2090067978,-0.89,-0.46,0.00
2090069978,-0.88,-0.46,-0.00
2090071984,-0.88,-0.46,-0.00
2090073981,-0.88,-0.46,-0.00
2090076091,-0.88,-0.46,-0.00
2090077987,-0.88,-0.46,-0.00
2090080014,-0.89,-0.46,0.01
2090082004,-0.89,-0.46,0.01
2090084002,-0.89,-0.46,0.01
2090086031,-0.89,-0.46,0.01
2090088056,-0.89,-0.46,0.01
2090090050,-0.89,-0.45,0.01
2090092011,-0.89,-0.45,0.01
2090094010,-0.89,-0.45,0.01
2090096005,-0.89,-0.45,0.01
2090097979,-0.89,-0.45,0.01
2090099979,-0.88,-0.46,0.02
2090102000,-0.88,-0.46,0.02
2090103980,-0.88,-0.46,0.02
2090105977,-0.88,-0.46,0.02
2090107979,-0.88,-0.46,0.02
2090109976,-0.88,-0.46,0.02
2090111976,-0.88,-0.46,0.02
2090113981,-0.88,-0.46,0.02
2090115980,-0.88,-0.46,0.02
2090117978,-0.88,-0.46,0.02
2090120011,-0.88,-0.47,0.03
2090122038,-0.88,-0.47,0.03
2090124057,-0.88,-0.47,0.03
2090126022,-0.88,-0.47,0.03
2090128007,-0.88,-0.47,0.03
2090130008,-0.88,-0.47,0.02
2090132006,-0.88,-0.47,0.02
2090134060,-0.88,-0.47,0.02
2090136016,-0.88,-0.47,0.02
2090137979,-0.88,-0.47,0.02
2090139982,-0.89,-0.48,0.02
2090141981,-0.89,-0.48,0.02
2090143979,-0.89,-0.48,0.02
2090145977,-0.89,-0.48,0.02
2090147980,-0.89,-0.48,0.02
2090149977,-0.89,-0.48,0.02
2090152004,-0.89,-0.48,0.02
2090153975,-0.89,-0.48,0.02
2090155981,-0.89,-0.48,0.02
2090157973,-0.89,-0.48,0.02
2090160018,-0.88,-0.47,0.01
2090162005,-0.88,-0.47,0.01
2090164004,-0.88,-0.47,0.01
2090166008,-0.88,-0.47,0.01
2090168006,-0.88,-0.47,0.01
2090170006,-0.88,-0.46,0.01
2090172007,-0.88,-0.46,0.01
2090173977,-0.88,-0.46,0.01
2090175997,-0.88,-0.46,0.01
2090177980,-0.88,-0.46,0.01
2090180000,-0.88,-0.46,0.01
2090182091,-0.88,-0.45,0.01
2090184014,-0.88,-0.45,0.01
2090185978,-0.88,-0.45,0.01
2090187982,-0.88,-0.45,0.01
2090190023,-0.88,-0.45,0.01
2090191977,-0.89,-0.45,0.01
2090193979,-0.89,-0.45,0.01
2090195992,-0.89,-0.45,0.01
2090197980,-0.89,-0.45,0.01
2090200023,-0.89,-0.45,0.01
2090202033,-0.89,-0.45,0.01
2090204007,-0.89,-0.45,0.01
2090206007,-0.89,-0.45,0.01
2090208006,-0.89,-0.45,0.01
2090210006,-0.89,-0.45,0.01
2090212004,-0.89,-0.47,0.02
2090213978,-0.89,-0.47,0.02
2090215977,-0.89,-0.47,0.02
2090217980,-0.89,-0.47,0.02
2090219975,-0.89,-0.47,0.02
2090221977,-0.89,-0.48,0.01
2090223982,-0.89,-0.48,0.01
2090226230,-0.89,-0.48,0.01
2090228067,-0.89,-0.48,0.01
2090230069,-0.89,-0.48,0.01
2090232022,-0.88,-0.49,0.01
2090233976,-0.88,-0.49,0.01
2090235975,-0.88,-0.49,0.01
2090237980,-0.88,-0.49,0.01
2090240024,-0.88,-0.49,0.01
2090242005,-0.89,-0.48,0.00
2090244003,-0.89,-0.48,0.00
2090246007,-0.89,-0.48,0.00
2090248006,-0.89,-0.48,0.00
2090250006,-0.89,-0.48,0.00
2090252034,-0.88,-0.47,0.01
2090253978,-0.88,-0.47,0.01
2090255979,-0.88,-0.47,0.01
2090257977,-0.88,-0.47,0.01
2090259979,-0.88,-0.47,0.01
2090261978,-0.87,-0.47,0.00
2090263976,-0.87,-0.47,0.00
2090265975,-0.87,-0.47,0.00
2090267980,-0.87,-0.47,0.00
2090269976,-0.87,-0.47,0.00
2090271984,-0.88,-0.46,0.00
2090273977,-0.88,-0.46,0.00
2090276127,-0.88,-0.46,0.00
2090278017,-0.88,-0.46,0.00
2090280026,-0.88,-0.46,0.00
2090282005,-0.88,-0.46,0.01
2090284004,-0.88,-0.46,0.01
2090286008,-0.88,-0.46,0.01
2090288005,-0.88,-0.46,0.01
2090290040,-0.88,-0.46,0.01
2090292008,-0.88,-0.48,0.00
2090293981,-0.88,-0.48,0.00
2090295993,-0.88,-0.48,0.00
2090297976,-0.88,-0.48,0.00
2090299977,-0.88,-0.48,0.00
2090301997,-0.88,-0.48,0.00
2090303980,-0.88,-0.48,0.00
2090305979,-0.88,-0.48,0.00
2090307978,-0.88,-0.48,0.00
2090309977,-0.88,-0.48,0.00
2090311976,-0.88,-0.50,0.00
2090313977,-0.88,-0.50,0.00
2090315980,-0.88,-0.50,0.00
2090317975,-0.88,-0.50,0.00
2090320013,-0.88,-0.50,0.00
2090322051,-0.88,-0.50,0.00
2090324031,-0.88,-0.50,0.00
2090326029,-0.88,-0.50,0.00
2090328050,-0.88,-0.50,0.00
2090330001,-0.88,-0.50,0.00
2090332006,-0.88,-0.50,0.00
2090334006,-0.88,-0.50,0.00
2090336007,-0.88,-0.50,0.00
2090338013,-0.88,-0.50,0.00
2090339978,-0.88,-0.50,0.00
2090341976,-0.87,-0.51,0.00
2090343976,-0.87,-0.51,0.00
2090345975,-0.87,-0.51,0.00
2090347975,-0.87,-0.51,0.00
2090349977,-0.87,-0.51,0.00
2090351999,-0.87,-0.50,-0.00
2090353976,-0.87,-0.50,-0.00
2090355976,-0.87,-0.50,-0.00
2090357974,-0.87,-0.50,-0.00
2090360013,-0.87,-0.50,-0.00
2090362009,-0.88,-0.49,-0.00
2090364005,-0.88,-0.49,-0.00
2090366009,-0.88,-0.49,-0.00
2090368010,-0.88,-0.49,-0.00
2090370003,-0.88,-0.49,-0.00
2090372009,-0.88,-0.49,-0.00
2090373978,-0.88,-0.47,0.00
2090376000,-0.88,-0.47,0.00
2090377982,-0.88,-0.47,0.00
2090379978,-0.88,-0.47,0.00
2090381979,-0.88,-0.47,0.00
2090383978,-0.88,-0.45,0.00
2090385976,-0.88,-0.45,0.00
2090387982,-0.88,-0.45,0.00
2090390017,-0.88,-0.45,0.00
2090391977,-0.88,-0.45,0.00
2090393981,-0.89,-0.45,0.01
2090395991,-0.89,-0.45,0.01
2090397975,-0.89,-0.45,0.01
2090400021,-0.89,-0.45,0.01
2090402031,-0.89,-0.45,0.01
2090404006,-0.89,-0.44,0.01
2090406005,-0.89,-0.44,0.01
2090408019,-0.89,-0.44,0.01
2090410042,-0.89,-0.44,0.01
2090412005,-0.89,-0.44,0.01
2090414004,-0.89,-0.45,0.02
2090415976,-0.89,-0.45,0.02
2090417981,-0.89,-0.45,0.02
2090419978,-0.89,-0.45,0.02
2090421979,-0.89,-0.45,0.02
2090423979,-0.89,-0.46,0.02
2090426098,-0.89,-0.46,0.02
2090427987,-0.89,-0.46,0.02
2090429976,-0.89,-0.46,0.02
2090431976,-0.89,-0.46,0.02
2090433974,-0.88,-0.47,0.02
2090435977,-0.88,-0.47,0.02
2090437979,-0.88,-0.47,0.02
2090440017,-0.88,-0.47,0.02
2090442006,-0.88,-0.47,0.02
2090444006,-0.89,-0.46,0.03
2090446004,-0.89,-0.46,0.03
2090448007,-0.89,-0.46,0.03
2090450004,-0.89,-0.46,0.03
2090452027,-0.89,-0.46,0.03
2090453975,-0.88,-0.46,0.02
2090455985,-0.88,-0.46,0.02
2090457978,-0.88,-0.46,0.02
2090459979,-0.88,-0.46,0.02
2090461979,-0.88,-0.46,0.02
2090463974,-0.89,-0.46,0.03
2090465976,-0.89,-0.46,0.03
2090467982,-0.89,-0.46,0.03
2090469981,-0.89,-0.46,0.03
2090472037,-0.89,-0.46,0.03
2090473977,-0.89,-0.46,0.02
2090476088,-0.89,-0.46,0.02
2090477987,-0.89,-0.46,0.02
2090480019,-0.89,-0.46,0.02
2090482001,-0.89,-0.46,0.02
2090484006,-0.89,-0.46,0.02
2090486006,-0.89,-0.46,0.02
2090488006,-0.89,-0.46,0.02
2090490038,-0.89,-0.46,0.02
2090492014,-0.89,-0.46,0.02
2090493980,-0.88,-0.45,0.02
2090495991,-0.88,-0.45,0.02
2090497974,-0.88,-0.45,0.02
2090499973,-0.88,-0.45,0.02
2090501997,-0.88,-0.45,0.02
2090503974,-0.89,-0.46,0.01
2090505977,-0.89,-0.46,0.01
2090507973,-0.89,-0.46,0.01
2090509975,-0.89,-0.46,0.01
2090511975,-0.89,-0.46,0.01
2090513978,-0.88,-0.46,0.01
2090515977,-0.88,-0.46,0.01
2090517974,-0.88,-0.46,0.01
2090520007,-0.88,-0.46,0.01
2090522004,-0.88,-0.46,0.01
2090524126,-0.88,-0.47,0.00
2090526017,-0.88,-0.47,0.00
2090527961,-0.88,-0.47,0.00
2090529955,-0.88,-0.47,0.00
2090531955,-0.88,-0.47,0.00
2090533957,-0.88,-0.48,0.00
2090535957,-0.88,-0.48,0.00
2090537957,-0.88,-0.48,0.00
2090539952,-0.88,-0.48,0.00
2090541955,-0.88,-0.48,0.00
2090543957,-0.88,-0.48,0.00
2090545955,-0.88,-0.48,-0.00
2090547957,-0.88,-0.48,-0.00
2090549957,-0.88,-0.48,-0.00
2090551966,-0.88,-0.48,-0.00
2090553959,-0.88,-0.48,-0.00
2090555958,-0.87,-0.50,-0.01
2090557958,-0.87,-0.50,-0.01
2090559958,-0.87,-0.50,-0.01
2090561952,-0.87,-0.50,-0.01
2090563952,-0.87,-0.50,-0.01
2090565957,-0.88,-0.50,0.00
2090567958,-0.88,-0.50,0.00
2090630052,-0.88,-0.48,0.00
2090632003,-0.88,-0.48,0.00
2090634006,-0.88,-0.48,0.00
2090635998,-0.89,-0.47,-0.01
2090638003,-0.89,-0.47,-0.01
2090640002,-0.89,-0.47,-0.01
2090642006,-0.89,-0.47,-0.01
2090644002,-0.89,-0.47,-0.01
2090646005,-0.87,-0.48,-0.01
2090647980,-0.87,-0.48,-0.01
2090649975,-0.87,-0.48,-0.01
2090651994,-0.87,-0.48,-0.01
2090653979,-0.87,-0.48,-0.01
2090655978,-0.88,-0.48,-0.02
2090657979,-0.88,-0.48,-0.02
2090659976,-0.88,-0.48,-0.02
2090661984,-0.88,-0.48,-0.02
2090663991,-0.88,-0.48,-0.02
2090665985,-0.89,-0.48,-0.01
2090667979,-0.89,-0.48,-0.01
2090670003,-0.89,-0.48,-0.01
2090672005,-0.89,-0.48,-0.01
2090673999,-0.89,-0.48,-0.01
2090676017,-0.88,-0.48,-0.00
2090678032,-0.88,-0.48,-0.00
2090680040,-0.88,-0.48,-0.00
2090681989,-0.88,-0.48,-0.00
2090683958,-0.88,-0.48,-0.00
2090685957,-0.88,-0.48,0.00
2090687962,-0.88,-0.48,0.00
2090690011,-0.88,-0.48,0.00
2090691976,-0.88,-0.48,0.00
2090693958,-0.88,-0.48,0.00
2090695986,-0.88,-0.46,0.01
2090697957,-0.88,-0.46,0.01
2090699957,-0.88,-0.46,0.01
2090701989,-0.88,-0.46,0.01
2090703958,-0.88,-0.46,0.01
2090705958,-0.88,-0.46,0.02
2090707957,-0.88,-0.46,0.02
2090709957,-0.88,-0.46,0.02
2090711955,-0.88,-0.46,0.02
2090713958,-0.88,-0.46,0.02
2090715958,-0.89,-0.46,0.02
2090717955,-0.89,-0.46,0.02
2092432052,-0.95,-0.34,-0.13
2092434010,-0.95,-0.34,-0.13
2092436004,-0.96,-0.35,-0.11
2092437999,-0.96,-0.35,-0.11
2092440004,-0.96,-0.35,-0.11
2092442001,-0.96,-0.35,-0.11
2092444004,-0.96,-0.35,-0.11
2092446008,-0.96,-0.34,-0.13
2092448008,-0.96,-0.34,-0.13
2092449976,-0.96,-0.34,-0.13
2092452093,-0.96,-0.34,-0.13
2092453981,-0.96,-0.34,-0.13
2092455975,-0.99,-0.36,-0.12
2092457977,-0.99,-0.36,-0.12
2092459978,-0.99,-0.36,-0.12
2092461976,-0.99,-0.36,-0.12
2092463979,-0.99,-0.36,-0.12
2092465977,-0.95,-0.34,-0.11
2092467976,-0.95,-0.34,-0.11
2092469980,-0.95,-0.34,-0.11
2092472009,-0.95,-0.34,-0.11
2092474001,-0.95,-0.34,-0.11
2092476092,-1.00,-0.38,-0.11
2092478048,-1.00,-0.38,-0.11
2092480012,-1.00,-0.38,-0.11
2092482008,-1.00,-0.38,-0.11
2092484012,-1.00,-0.38,-0.11
2092485976,-0.97,-0.37,-0.10
2092487982,-0.97,-0.37,-0.10
2092490012,-0.97,-0.37,-0.10
2092491995,-0.97,-0.37,-0.10
2092493977,-0.97,-0.37,-0.10
2092495993,-0.98,-0.39,-0.11
2092497976,-0.98,-0.39,-0.11
2092499989,-0.98,-0.39,-0.11
2092502092,-0.98,-0.39,-0.11
2092503977,-0.98,-0.39,-0.11
2092505974,-0.98,-0.39,-0.11
2092507977,-0.98,-0.39,-0.11
2092509974,-0.98,-0.39,-0.11
2092512050,-0.98,-0.39,-0.11
2092514031,-0.98,-0.39,-0.11
2092516007,-0.97,-0.39,-0.11
2092518006,-0.97,-0.39,-0.11
2092520006,-0.97,-0.39,-0.11
2092522007,-0.97,-0.39,-0.11
2092524003,-0.97,-0.39,-0.11
2092526119,-0.99,-0.38,-0.10
2092528035,-0.99,-0.38,-0.10
2092530008,-0.99,-0.38,-0.10
2092531980,-0.99,-0.38,-0.10
2092533979,-0.99,-0.38,-0.10
2092535979,-0.97,-0.38,-0.09
2092537979,-0.97,-0.38,-0.09
2092539978,-0.97,-0.38,-0.09
2092541976,-0.97,-0.38,-0.09
2092543980,-0.97,-0.38,-0.09
2092545976,-0.98,-0.38,-0.09
2092547980,-0.98,-0.38,-0.09
2092549981,-0.98,-0.38,-0.09
2092552134,-0.98,-0.38,-0.09
2092554003,-0.98,-0.38,-0.09
2092556004,-0.96,-0.36,-0.07
2092558003,-0.96,-0.36,-0.07
2092560001,-0.96,-0.36,-0.07
2092562000,-0.96,-0.36,-0.07
2092564009,-0.96,-0.36,-0.07
2092565986,-0.98,-0.36,-0.07
2092567981,-0.98,-0.36,-0.07
2092569979,-0.98,-0.36,-0.07
2092571976,-0.98,-0.36,-0.07
2092573984,-0.98,-0.36,-0.07
2092576117,-0.98,-0.36,-0.05
2092578014,-0.98,-0.36,-0.05
2092580028,-0.98,-0.36,-0.05
2092581989,-0.98,-0.36,-0.05
2092583977,-0.98,-0.36,-0.05
2092585975,-0.98,-0.36,-0.05
2092587983,-0.99,-0.37,-0.03
2092590018,-0.99,-0.37,-0.03
2092592020,-0.99,-0.37,-0.03
2092594003,-0.99,-0.37,-0.03
2092596010,-0.99,-0.37,-0.03
2092598005,-0.99,-0.37,-0.02
2092600006,-0.99,-0.37,-0.02
2092602121,-0.99,-0.37,-0.02
2092604011,-0.99,-0.37,-0.02
2092605980,-0.99,-0.37,-0.02
2092607981,-0.97,-0.37,-0.01
2092609979,-0.97,-0.37,-0.01
2092611980,-0.97,-0.37,-0.01
2092613976,-0.97,-0.37,-0.01
2092615976,-0.97,-0.37,-0.01
2092617978,-0.95,-0.36,0.00
2092619981,-0.95,-0.36,0.00
2092622046,-0.95,-0.36,0.00
2092623976,-0.95,-0.36,0.00
2092626073,-0.95,-0.36,0.00
2092627990,-0.93,-0.35,0.01
2092629978,-0.93,-0.35,0.01
2092632052,-0.93,-0.35,0.01
2092634031,-0.93,-0.35,0.01
2092636011,-0.93,-0.35,0.01
2092638006,-0.93,-0.35,0.02
2092640003,-0.93,-0.35,0.02
2092642006,-0.93,-0.35,0.02
2092644006,-0.93,-0.35,0.02
2092646011,-0.93,-0.35,0.02
2092647979,-0.93,-0.34,0.03
2092649979,-0.93,-0.34,0.03
2092652099,-0.93,-0.34,0.03
2092653980,-0.93,-0.34,0.03
2092655979,-0.93,-0.34,0.03
2092657978,-0.93,-0.32,0.03
2092659976,-0.93,-0.32,0.03
2092661976,-0.93,-0.32,0.03
2092663974,-0.93,-0.32,0.03
2092665981,-0.93,-0.32,0.03
2092667980,-0.93,-0.32,0.03
2092669979,-0.93,-0.32,0.03
2092672010,-0.93,-0.32,0.03
2092674006,-0.93,-0.32,0.03
2092676092,-0.93,-0.32,0.03
2092678006,-0.93,-0.33,0.04
2092680003,-0.93,-0.33,0.04
2092682033,-0.93,-0.33,0.04
2092684039,-0.93,-0.33,0.04
2092685984,-0.93,-0.33,0.04
2092687983,-0.93,-0.35,0.06
2092690010,-0.93,-0.35,0.06
2092691981,-0.93,-0.35,0.06
2092693977,-0.93,-0.35,0.06
2092696001,-0.93,-0.35,0.06
2092697979,-0.95,-0.36,0.06
2092699977,-0.95,-0.36,0.06
2092702093,-0.95,-0.36,0.06
2092703980,-0.95,-0.36,0.06
2092705975,-0.95,-0.36,0.06
2092707979,-0.93,-0.37,0.06
2092709977,-0.93,-0.37,0.06
2092712021,-0.93,-0.37,0.06
2092714004,-0.93,-0.37,0.06
2092716008,-0.93,-0.37,0.06
2092718004,-0.93,-0.37,0.06
2092720036,-0.93,-0.37,0.06
2092722010,-0.93,-0.37,0.06
2092724009,-0.93,-0.37,0.06
2092726115,-0.93,-0.37,0.06
2092727987,-0.92,-0.36,0.06
2092729979,-0.92,-0.36,0.06
2092732059,-0.92,-0.36,0.06
2092734024,-0.92,-0.36,0.06
2092735976,-0.92,-0.36,0.06
2092737977,-0.93,-0.36,0.05
2092739973,-0.93,-0.36,0.05
2092741977,-0.93,-0.36,0.05
2092743979,-0.93,-0.36,0.05
2092745973,-0.93,-0.36,0.05
2092747977,-0.92,-0.36,0.06
2092749976,-0.92,-0.36,0.06
2092752131,-0.92,-0.36,0.06
2092754002,-0.92,-0.36,0.06
2092756004,-0.92,-0.36,0.06
2092758003,-0.91,-0.35,0.07
2092760004,-0.91,-0.35,0.07
2092762003,-0.91,-0.35,0.07
2092764011,-0.91,-0.35,0.07
2092765980,-0.91,-0.35,0.07
2092767979,-0.91,-0.35,0.07
2092769979,-0.92,-0.36,0.07
2092771978,-0.92,-0.36,0.07
2092773978,-0.92,-0.36,0.07
2092776078,-0.92,-0.36,0.07
2092777986,-0.92,-0.36,0.07
2092779976,-0.91,-0.36,0.07
2092781978,-0.91,-0.36,0.07
2092784020,-0.91,-0.36,0.07
2092785977,-0.91,-0.36,0.07
2092787980,-0.91,-0.36,0.07
2092790011,-0.92,-0.36,0.07
2092792019,-0.92,-0.36,0.07
2092794004,-0.92,-0.36,0.07
2092796006,-0.92,-0.36,0.07
2092798001,-0.92,-0.36,0.07
2092800006,-0.92,-0.37,0.07
2092802118,-0.92,-0.37,0.07
2092804009,-0.92,-0.37,0.07
2092805976,-0.92,-0.37,0.07
2092807973,-0.92,-0.37,0.07
2092809978,-0.91,-0.37,0.07
2092811981,-0.91,-0.37,0.07
2092813979,-0.91,-0.37,0.07
2092815978,-0.91,-0.37,0.07
2092817975,-0.91,-0.37,0.07
2092819976,-0.91,-0.36,0.06
2092821979,-0.91,-0.36,0.06
2092823979,-0.91,-0.36,0.06
2092826074,-0.91,-0.36,0.06
2092828014,-0.91,-0.36,0.06
2092830062,-0.91,-0.36,0.04
2092832039,-0.91,-0.36,0.04
2092834007,-0.91,-0.36,0.04
2092836005,-0.91,-0.36,0.04
2092838003,-0.91,-0.36,0.04
2092840003,-0.91,-0.37,0.04
2092842001,-0.91,-0.37,0.04
2092844005,-0.91,-0.37,0.04
2092845981,-0.91,-0.37,0.04
2092847984,-0.91,-0.37,0.04
2092849978,-0.93,-0.39,0.03
2092852096,-0.93,-0.39,0.03
2092853979,-0.93,-0.39,0.03
2092855979,-0.93,-0.39,0.03
2092857981,-0.93,-0.39,0.03
2092859980,-0.93,-0.39,0.02
2092861981,-0.93,-0.39,0.02
2092863981,-0.93,-0.39,0.02
2092865981,-0.93,-0.39,0.02
2092867979,-0.93,-0.39,0.02
2092869979,-0.94,-0.40,0.02
2092872012,-0.94,-0.40,0.02
2092874004,-0.94,-0.40,0.02
2092876099,-0.94,-0.40,0.02
2092878006,-0.94,-0.40,0.02
2092880007,-0.95,-0.41,0.02
2092882005,-0.95,-0.41,0.02
2092884001,-0.95,-0.41,0.02
2092885983,-0.95,-0.41,0.02
2092888044,-0.95,-0.41,0.02
2092890062,-0.95,-0.42,0.02
2092892040,-0.95,-0.42,0.02
2092893986,-0.95,-0.42,0.02
2092895990,-0.95,-0.42,0.02
2092897976,-0.95,-0.42,0.02
2092899980,-0.96,-0.42,0.03
2092902093,-0.96,-0.42,0.03
2092903979,-0.96,-0.42,0.03
2092905979,-0.96,-0.42,0.03
2092907977,-0.96,-0.42,0.03
2092909980,-0.95,-0.42,0.03
2092912020,-0.95,-0.42,0.03
2092914004,-0.95,-0.42,0.03
2092916002,-0.95,-0.42,0.03
2092918009,-0.95,-0.42,0.03
2092920006,-0.95,-0.41,0.03
2092922005,-0.95,-0.41,0.03
2092924005,-0.95,-0.41,0.03
2092926079,-0.95,-0.41,0.03
2092927987,-0.95,-0.41,0.03
2092929981,-0.97,-0.41,0.02
2092931980,-0.97,-0.41,0.02
2092933980,-0.97,-0.41,0.02
2092935978,-0.97,-0.41,0.02
2092937980,-0.97,-0.41,0.02
2092939980,-0.96,-0.41,0.04
2092941979,-0.96,-0.41,0.04
2092943981,-0.96,-0.41,0.04
2092945992,-0.96,-0.41,0.04
2092947976,-0.96,-0.41,0.04
2092949977,-0.96,-0.41,0.04
2092952109,-0.97,-0.42,0.03
2092954005,-0.97,-0.42,0.03
2092956006,-0.97,-0.42,0.03
2092958007,-0.97,-0.42,0.03
2092960004,-0.97,-0.42,0.03
2092962005,-0.96,-0.42,0.04
2092964007,-0.96,-0.42,0.04
2092965980,-0.96,-0.42,0.04
2092967979,-0.96,-0.42,0.04
2092969981,-0.96,-0.42,0.04
2092971979,-0.96,-0.41,0.05
2092973981,-0.96,-0.41,0.05
2092976080,-0.96,-0.41,0.05
2092977986,-0.96,-0.41,0.05
2092979977,-0.96,-0.41,0.05
2092981978,-0.95,-0.41,0.06
2092984037,-0.95,-0.41,0.06
2092986028,-0.95,-0.41,0.06
2092987995,-0.95,-0.41,0.06
2092990021,-0.95,-0.41,0.06
2092992048,-0.96,-0.39,0.06
2092994002,-0.96,-0.39,0.06
2092996006,-0.96,-0.39,0.06
2092998006,-0.96,-0.39,0.06
2093000003,-0.96,-0.39,0.06
2093002122,-0.95,-0.38,0.07
2093004008,-0.95,-0.38,0.07
2093005990,-0.95,-0.38,0.07
2093007979,-0.95,-0.38,0.07
2093009976,-0.95,-0.38,0.07
2093011979,-0.96,-0.37,0.07
2093013979,-0.96,-0.37,0.07
2093015984,-0.96,-0.37,0.07
2093017984,-0.96,-0.37,0.07
2093019984,-0.96,-0.37,0.07
2093021984,-0.96,-0.37,0.07
2093023995,-0.96,-0.37,0.07
2093026081,-0.96,-0.37,0.07
2093027991,-0.96,-0.37,0.07
2093029979,-0.96,-0.37,0.07
2093032015,-0.96,-0.38,0.06
2093034006,-0.96,-0.38,0.06
2093036007,-0.96,-0.38,0.06
2093038003,-0.96,-0.38,0.06
2093040008,-0.96,-0.38,0.06
2093042029,-0.95,-0.39,0.05
2093044067,-0.95,-0.39,0.05
2093046039,-0.95,-0.39,0.05
2093047980,-0.95,-0.39,0.05
2093049979,-0.95,-0.39,0.05
2093052096,-0.94,-0.41,0.05
2093053979,-0.94,-0.41,0.05
2093055977,-0.94,-0.41,0.05
2093057976,-0.94,-0.41,0.05
2093059974,-0.94,-0.41,0.05
2093061979,-0.94,-0.41,0.04
2093063978,-0.94,-0.41,0.04
2093065975,-0.94,-0.41,0.04
2093067976,-0.94,-0.41,0.04
2093069981,-0.94,-0.41,0.04
2093072017,-0.93,-0.41,0.04
2093074010,-0.93,-0.41,0.04
2093076094,-0.93,-0.41,0.04
2093078011,-0.93,-0.41,0.04
2093080012,-0.93,-0.41,0.04
2093082008,-0.93,-0.39,0.05
2093083994,-0.93,-0.39,0.05
2093085977,-0.93,-0.39,0.05
2093087983,-0.93,-0.39,0.05
2093089995,-0.93,-0.39,0.05
2093092048,-0.93,-0.38,0.06
2093093997,-0.93,-0.38,0.06
2093095993,-0.93,-0.38,0.06
2093097979,-0.93,-0.38,0.06
2093099979,-0.93,-0.38,0.06
2093102091,-0.94,-0.37,0.06
2093103976,-0.94,-0.37,0.06
2093105977,-0.94,-0.37,0.06
2093107977,-0.94,-0.37,0.06
2093109976,-0.94,-0.37,0.06
2093112023,-0.94,-0.36,0.07
2093114005,-0.94,-0.36,0.07
2093116007,-0.94,-0.36,0.07
2093118003,-0.94,-0.36,0.07
2093120007,-0.94,-0.36,0.07
2093122007,-0.95,-0.36,0.07
2093123987,-0.95,-0.36,0.07
2093126076,-0.95,-0.36,0.07
2093127987,-0.95,-0.36,0.07
2093129980,-0.95,-0.36,0.07
2093131979,-0.95,-0.38,0.05
2093133977,-0.95,-0.38,0.05
2093135976,-0.95,-0.38,0.05
2093137980,-0.95,-0.38,0.05
2093139980,-0.95,-0.38,0.05
2093141980,-0.95,-0.38,0.05
2093143980,-0.96,-0.39,0.05
2093145981,-0.96,-0.39,0.05
2093147977,-0.96,-0.39,0.05
2093149981,-0.96,-0.39,0.05
2093152108,-0.96,-0.39,0.05
2093154006,-0.95,-0.41,0.04
2093156009,-0.95,-0.41,0.04
2093158027,-0.95,-0.41,0.04
2093160039,-0.95,-0.41,0.04
2093162009,-0.95,-0.41,0.04
2093164004,-0.97,-0.41,0.02
2093166008,-0.97,-0.41,0.02
2093167977,-0.97,-0.41,0.02
2093169977,-0.97,-0.41,0.02
2093171976,-0.97,-0.41,0.02
2093173975,-0.96,-0.39,0.02
2093176093,-0.96,-0.39,0.02
2093177993,-0.96,-0.39,0.02
2093179979,-0.96,-0.39,0.02
2093181976,-0.96,-0.39,0.02
2093183979,-0.96,-0.38,0.02
2093185981,-0.96,-0.38,0.02
2093187981,-0.96,-0.38,0.02
2093189994,-0.96,-0.38,0.02
2093192042,-0.96,-0.38,0.02
2093194019,-0.97,-0.34,0.03
2093196022,-0.97,-0.34,0.03
2093197957,-0.97,-0.34,0.03
2093199957,-0.97,-0.34,0.03
2093202076,-0.97,-0.34,0.03
2093203958,-0.97,-0.34,0.00
2093205958,-0.97,-0.34,0.00
2093207955,-0.97,-0.34,0.00
2093209955,-0.97,-0.34,0.00
2093211957,-0.97,-0.34,0.00
2093213957,-0.98,-0.33,-0.01
2093215955,-0.98,-0.33,-0.01
2093217955,-0.98,-0.33,-0.01
2093219955,-0.98,-0.33,-0.01
2093221960,-0.98,-0.33,-0.01
2093223955,-0.96,-0.32,-0.03
2093226030,-0.96,-0.32,-0.03
2093227967,-0.96,-0.32,-0.03
2093229958,-0.96,-0.32,-0.03
2093231958,-0.96,-0.32,-0.03
2093233952,-0.96,-0.31,-0.03
2093235957,-0.96,-0.31,-0.03
2093237952,-0.96,-0.31,-0.03
2093239952,-0.96,-0.31,-0.03
2093252154,-0.96,-0.30,-0.04
2093254001,-0.94,-0.29,-0.07
2093256001,-0.94,-0.29,-0.07
2093258001,-0.94,-0.29,-0.07
2093260001,-0.94,-0.29,-0.07
2093262002,-0.94,-0.29,-0.07
2093264006,-0.94,-0.27,-0.06
2093266004,-0.94,-0.27,-0.06
2093268004,-0.94,-0.27,-0.06
2093269979,-0.94,-0.27,-0.06
2093271980,-0.94,-0.27,-0.06
2093273980,-0.92,-0.27,-0.05
2093276076,-0.92,-0.27,-0.05
2093277986,-0.92,-0.27,-0.05
2093279976,-0.92,-0.27,-0.05
2093281981,-0.92,-0.27,-0.05
2093283980,-0.92,-0.28,-0.05
2093285981,-0.92,-0.28,-0.05
2093287984,-0.92,-0.28,-0.05
2093289993,-0.92,-0.28,-0.05
2093292032,-0.92,-0.28,-0.05
2093294006,-0.93,-0.27,-0.05
2093296005,-0.93,-0.27,-0.05
2093298055,-0.93,-0.27,-0.05
2093300020,-0.93,-0.27,-0.05
2093302152,-0.93,-0.27,-0.05
2093304011,-0.93,-0.27,-0.05
2093306006,-0.93,-0.27,-0.05
2093308014,-0.93,-0.27,-0.05
2093309974,-0.93,-0.27,-0.05
2093311977,-0.93,-0.27,-0.05
2093313977,-0.93,-0.26,-0.04
2093315981,-0.93,-0.26,-0.04
2093317980,-0.93,-0.26,-0.04
2093319979,-0.93,-0.26,-0.04
2093321979,-0.93,-0.26,-0.04
2093323980,-0.93,-0.26,-0.04
2093326074,-0.92,-0.25,-0.04
2093327987,-0.92,-0.25,-0.04
2093329977,-0.92,-0.25,-0.04
2093332011,-0.92,-0.25,-0.04
2093334007,-0.92,-0.25,-0.04
2093336004,-0.94,-0.26,-0.06
2093338003,-0.94,-0.26,-0.06
2093340003,-0.94,-0.26,-0.06
2093342005,-0.94,-0.26,-0.06
2093344006,-0.94,-0.26,-0.06
2093345979,-0.92,-0.26,-0.07
2093347980,-0.92,-0.26,-0.07
2093349976,-0.92,-0.26,-0.07
2093352086,-0.92,-0.26,-0.07
2093353979,-0.92,-0.26,-0.07
2093355979,-0.93,-0.27,-0.07
2093357977,-0.93,-0.27,-0.07
2093359975,-0.93,-0.27,-0.07
2093361980,-0.93,-0.27,-0.07
2093363977,-0.93,-0.27,-0.07
2093365979,-0.92,-0.27,-0.08
2093367975,-0.92,-0.27,-0.08
2093369975,-0.92,-0.27,-0.08
2093372006,-0.92,-0.27,-0.08
2093374003,-0.92,-0.27,-0.08
2093376100,-0.92,-0.27,-0.09
2093378008,-0.92,-0.27,-0.09
2093380004,-0.92,-0.27,-0.09
2093382005,-0.92,-0.27,-0.09
2093384009,-0.92,-0.27,-0.09
2093385977,-0.92,-0.27,-0.09
2093387983,-0.92,-0.27,-0.09
2093389991,-0.92,-0.27,-0.09
2093392005,-0.92,-0.27,-0.09
2093394052,-0.92,-0.27,-0.09
2093396002,-0.93,-0.27,-0.08
2093397982,-0.93,-0.27,-0.08
2093400014,-0.93,-0.27,-0.08
2093402096,-0.93,-0.27,-0.08
2093403974,-0.93,-0.27,-0.08
2093405980,-0.92,-0.25,-0.07
2093407974,-0.92,-0.25,-0.07
2093409979,-0.92,-0.25,-0.07
2093412042,-0.92,-0.25,-0.07
2093414010,-0.92,-0.25,-0.07
2093415957,-0.92,-0.25,-0.06
2093417961,-0.92,-0.25,-0.06
2093419957,-0.92,-0.25,-0.06
2093421957,-0.92,-0.25,-0.06
2093423956,-0.92,-0.25,-0.06
2093426068,-0.91,-0.25,-0.06
2093427968,-0.91,-0.25,-0.06
2093429957,-0.91,-0.25,-0.06
2093431957,-0.91,-0.25,-0.06
2093433956,-0.91,-0.25,-0.06
2093435956,-0.91,-0.25,-0.05
2093437957,-0.91,-0.25,-0.05
2093439952,-0.91,-0.25,-0.05
2093441957,-0.91,-0.25,-0.05
2093443958,-0.91,-0.25,-0.05
2093446009,-0.91,-0.25,-0.04
2093448053,-0.91,-0.25,-0.04
2093450005,-0.91,-0.25,-0.04
2093452120,-0.91,-0.25,-0.04
2093454008,-0.91,-0.25,-0.04
2093456008,-0.91,-0.25,-0.04
2093458009,-0.91,-0.25,-0.04
2093460018,-0.91,-0.25,-0.04
2093462005,-0.91,-0.25,-0.04
2093464008,-0.91,-0.25,-0.04
2093466006,-0.92,-0.25,-0.04
2093468008,-0.92,-0.25,-0.04
2093470007,-0.92,-0.25,-0.04
2093472005,-0.92,-0.25,-0.04
2093474010,-0.92,-0.25,-0.04
2093476083,-0.93,-0.25,-0.05
2093477988,-0.93,-0.25,-0.05
2093479976,-0.93,-0.25,-0.05
2093481976,-0.93,-0.25,-0.05
2093483986,-0.93,-0.25,-0.05
2093485975,-0.93,-0.26,-0.05
2093487982,-0.93,-0.26,-0.05
2093489991,-0.93,-0.26,-0.05
2093492006,-0.93,-0.26,-0.05
2093493979,-0.93,-0.26,-0.05
2093496051,-0.93,-0.27,-0.06
2093498023,-0.93,-0.27,-0.06
2093500024,-0.93,-0.27,-0.06
2093502163,-0.93,-0.27,-0.06
2093504010,-0.93,-0.27,-0.06
2093506005,-0.94,-0.27,-0.07
2093508004,-0.94,-0.27,-0.07
2093510007,-0.94,-0.27,-0.07
2093512008,-0.94,-0.27,-0.07
2093513985,-0.94,-0.27,-0.07
2093515980,-0.94,-0.27,-0.07
2093517979,-0.94,-0.29,-0.07
2093519979,-0.94,-0.29,-0.07
2093521977,-0.94,-0.29,-0.07
2093523976,-0.94,-0.29,-0.07
2093526080,-0.94,-0.29,-0.07
2093527989,-0.95,-0.30,-0.08
2093529976,-0.95,-0.30,-0.08
2093531979,-0.95,-0.30,-0.08
2093533980,-0.95,-0.30,-0.08
2093535975,-0.95,-0.30,-0.08
2093537976,-0.95,-0.30,-0.09
2093540012,-0.95,-0.30,-0.09
2093542005,-0.95,-0.30,-0.09
2093544009,-0.95,-0.30,-0.09
2093546011,-0.95,-0.30,-0.09
2093548012,-0.95,-0.30,-0.11
2093550011,-0.95,-0.30,-0.11
2093552077,-0.95,-0.30,-0.11
2093553977,-0.95,-0.30,-0.11
2093555979,-0.95,-0.30,-0.11
2093557978,-0.95,-0.31,-0.11
2093559977,-0.95,-0.31,-0.11
2093561974,-0.95,-0.31,-0.11
2093563975,-0.95,-0.31,-0.11
2093565977,-0.95,-0.31,-0.11
2093567981,-0.95,-0.32,-0.12
2093569980,-0.95,-0.32,-0.12
2093571977,-0.95,-0.32,-0.12
2093573977,-0.95,-0.32,-0.12
2093576049,-0.95,-0.32,-0.12
2093577987,-0.95,-0.34,-0.13
2093580015,-0.95,-0.34,-0.13
2093582009,-0.95,-0.34,-0.13
2093584005,-0.95,-0.34,-0.13
2093586027,-0.95,-0.34,-0.13
2093588020,-0.95,-0.34,-0.13
2093590011,-0.95,-0.34,-0.13
2093592040,-0.95,-0.34,-0.13
2093594033,-0.95,-0.34,-0.13
2093595990,-0.95,-0.34,-0.13
2093597956,-0.96,-0.35,-0.12
2093599956,-0.96,-0.35,-0.12
2093602079,-0.96,-0.35,-0.12
2093603956,-0.96,-0.35,-0.12
2093605957,-0.96,-0.35,-0.12
2093607952,-0.95,-0.34,-0.12
2093609956,-0.95,-0.34,-0.12
2093611953,-0.95,-0.34,-0.12
2093613958,-0.95,-0.34,-0.12
2093615957,-0.95,-0.34,-0.12
2093617957,-0.93,-0.33,-0.11
2093619953,-0.93,-0.33,-0.11
2093622042,-0.93,-0.33,-0.11
2093623955,-0.93,-0.33,-0.11
2093626036,-0.93,-0.33,-0.11
2093627968,-0.92,-0.32,-0.09
2093654047,-0.91,-0.30,-0.09
2093656006,-0.91,-0.30,-0.09
2093658007,-0.91,-0.29,-0.09
2093660005,-0.91,-0.29,-0.09
2093662008,-0.91,-0.29,-0.09
2093664004,-0.91,-0.29,-0.09
2093666007,-0.91,-0.29,-0.09
2093668006,-0.90,-0.30,-0.10
2093669984,-0.90,-0.30,-0.10
2093671980,-0.90,-0.30,-0.10
2093673976,-0.90,-0.30,-0.10
2093676085,-0.90,-0.30,-0.10
2093677990,-0.91,-0.29,-0.11
2093679985,-0.91,-0.29,-0.11
2093681979,-0.91,-0.29,-0.11
2093683980,-0.91,-0.29,-0.11
2093685974,-0.91,-0.29,-0.11
2093687980,-0.92,-0.30,-0.12
2093689991,-0.92,-0.30,-0.12
2093692008,-0.92,-0.30,-0.12
2093694014,-0.92,-0.30,-0.12
2093696014,-0.92,-0.30,-0.12
2093698007,-0.92,-0.30,-0.12
2093700006,-0.95,-0.30,-0.12
2093702117,-0.95,-0.30,-0.12
2093704090,-0.95,-0.30,-0.12
2093705992,-0.95,-0.30,-0.12
2093707958,-0.95,-0.30,-0.12
2093709958,-0.96,-0.31,-0.11
2093711958,-0.96,-0.31,-0.11
2093713952,-0.96,-0.31,-0.11
2093715958,-0.96,-0.31,-0.11
2093717957,-0.96,-0.31,-0.11
2093719955,-0.98,-0.31,-0.11
2093721955,-0.98,-0.31,-0.11
2093723957,-0.98,-0.31,-0.11
2093726065,-0.98,-0.31,-0.11
2093727973,-0.98,-0.31,-0.11
2093729957,-0.99,-0.30,-0.10
2093731958,-0.99,-0.30,-0.10
2093733958,-0.99,-0.30,-0.10
2093735958,-0.99,-0.30,-0.10
2093737955,-0.99,-0.30,-0.10
2093739955,-1.00,-0.29,-0.10
2093741958,-1.00,-0.29,-0.10
2095356076,-0.88,-0.37,0.07
2095358007,-0.88,-0.37,0.07
2095360002,-0.88,-0.37,0.07
2095362003,-0.88,-0.37,0.07
2095364002,-0.88,-0.37,0.07
2095366001,-0.88,-0.37,0.07
2095368002,-0.88,-0.38,0.06
2095370006,-0.88,-0.38,0.06
2095372003,-0.88,-0.38,0.06
2095373978,-0.88,-0.38,0.06
2095376091,-0.88,-0.38,0.06
2095377986,-0.88,-0.37,0.05
2095379980,-0.88,-0.37,0.05
2095381978,-0.88,-0.37,0.05
2095383985,-0.88,-0.37,0.05
2095385979,-0.88,-0.37,0.05
2095387981,-0.88,-0.38,0.04
2095389990,-0.88,-0.38,0.04
2095392009,-0.88,-0.38,0.04
2095393980,-0.88,-0.38,0.04
2095396018,-0.88,-0.38,0.04
2095398001,-0.88,-0.37,0.04
2095400004,-0.88,-0.37,0.04
2095402116,-0.88,-0.37,0.04
2095404003,-0.88,-0.37,0.04
2095406006,-0.88,-0.37,0.04
2095408008,-0.89,-0.38,0.02
2095409979,-0.89,-0.38,0.02
2095411979,-0.89,-0.38,0.02
2095413976,-0.89,-0.38,0.02
2095415976,-0.89,-0.38,0.02
2095417981,-0.89,-0.39,0.00
2095419977,-0.89,-0.39,0.00
2095421981,-0.89,-0.39,0.00
2095423977,-0.89,-0.39,0.00
2095426081,-0.89,-0.39,0.00
2095427988,-0.92,-0.40,-0.02
2095429977,-0.92,-0.40,-0.02
2095431981,-0.92,-0.40,-0.02
2095433980,-0.92,-0.40,-0.02
2095436010,-0.92,-0.40,-0.02
2095438002,-0.94,-0.42,-0.04
2095440030,-0.94,-0.42,-0.04
2095442035,-0.94,-0.42,-0.04
2095444005,-0.94,-0.42,-0.04
2095446006,-0.94,-0.42,-0.04
2095448006,-0.97,-0.43,-0.04
2095450011,-0.97,-0.43,-0.04
2095452090,-0.97,-0.43,-0.04
2095453980,-0.97,-0.43,-0.04
2095455979,-0.97,-0.43,-0.04
2095457979,-1.00,-0.43,-0.05
2095459977,-1.00,-0.43,-0.05
2095461976,-1.00,-0.43,-0.05
2095463975,-1.00,-0.43,-0.05
2095466023,-1.00,-0.43,-0.05
2095468017,-1.02,-0.43,-0.05
2095469974,-1.02,-0.43,-0.05
2095471973,-1.02,-0.43,-0.05
2095473975,-1.02,-0.43,-0.05
2095476114,-1.02,-0.43,-0.05
2095478010,-1.01,-0.43,-0.05
2095480004,-1.01,-0.43,-0.05
2095482002,-1.01,-0.43,-0.05
2095484004,-1.01,-0.43,-0.05
2095486001,-1.01,-0.43,-0.05
2095488009,-1.03,-0.41,-0.04
2095489993,-1.03,-0.41,-0.04
2095492011,-1.03,-0.41,-0.04
2095493981,-1.03,-0.41,-0.04
2095495991,-1.03,-0.41,-0.04
2095497974,-1.02,-0.40,-0.06
2095499977,-1.02,-0.40,-0.06
2095502089,-1.02,-0.40,-0.06
2095503979,-1.02,-0.40,-0.06
2095505978,-1.02,-0.40,-0.06
2095507977,-1.03,-0.39,-0.07
2095509977,-1.03,-0.39,-0.07
2095511977,-1.03,-0.39,-0.07
2095513981,-1.03,-0.39,-0.07
2095516017,-1.03,-0.39,-0.07
2095518006,-1.04,-0.34,-0.05
2095520002,-1.04,-0.34,-0.05
2095522004,-1.04,-0.34,-0.05
2095524007,-1.04,-0.34,-0.05
2095526108,-1.04,-0.34,-0.05
2095528014,-1.02,-0.35,-0.06
2095529957,-1.02,-0.35,-0.06
2095531957,-1.02,-0.35,-0.06
2095533958,-1.02,-0.35,-0.06
2095535958,-1.02,-0.35,-0.06
2095537952,-1.03,-0.32,-0.08
2095539952,-1.03,-0.32,-0.08
2095541957,-1.03,-0.32,-0.08
2095543955,-1.03,-0.32,-0.08
2095545958,-1.03,-0.32,-0.08
2095548010,-1.00,-0.27,-0.06
2095549978,-1.00,-0.27,-0.06
2095552071,-1.00,-0.27,-0.06
2095553958,-1.00,-0.27,-0.06
2095555953,-1.00,-0.27,-0.06
2095557958,-1.00,-0.27,-0.06
2095559965,-0.96,-0.26,-0.07
2095562051,-0.96,-0.26,-0.07
2095564015,-0.96,-0.26,-0.07
2095566013,-0.96,-0.26,-0.07
2095568005,-0.96,-0.26,-0.07
2095570006,-0.93,-0.23,-0.08
2095572004,-0.93,-0.23,-0.08
2095574001,-0.93,-0.23,-0.08
2095576107,-0.93,-0.23,-0.08
2095578013,-0.93,-0.23,-0.08
2095580006,-0.90,-0.20,-0.07
2095581979,-0.90,-0.20,-0.07
2095583975,-0.90,-0.20,-0.07
2095585981,-0.90,-0.20,-0.07
2095587983,-0.90,-0.20,-0.07
2095589991,-0.89,-0.17,-0.07
2095592007,-0.89,-0.17,-0.07
2095593981,-0.89,-0.17,-0.07
2095595993,-0.89,-0.17,-0.07
2095597980,-0.89,-0.17,-0.07
2095599980,-0.88,-0.17,-0.07
2095602090,-0.88,-0.17,-0.07
2095603979,-0.88,-0.17,-0.07
2095606017,-0.88,-0.17,-0.07
2095608002,-0.88,-0.17,-0.07
2095610005,-0.87,-0.16,-0.05
2095612002,-0.87,-0.16,-0.05
2095614006,-0.87,-0.16,-0.05
2095616004,-0.87,-0.16,-0.05
2095618007,-0.87,-0.16,-0.05
2095619976,-0.84,-0.17,-0.05
2095622056,-0.84,-0.17,-0.05
2095623974,-0.84,-0.17,-0.05
2095626112,-0.84,-0.17,-0.05
2095628054,-0.84,-0.17,-0.05
2095630023,-0.84,-0.18,-0.05
2095631979,-0.84,-0.18,-0.05
2095633976,-0.84,-0.18,-0.05
2095635976,-0.84,-0.18,-0.05
2095637977,-0.84,-0.18,-0.05
2095639976,-0.84,-0.22,-0.06
2095641977,-0.84,-0.22,-0.06
2095643976,-0.84,-0.22,-0.06
2095646015,-0.84,-0.22,-0.06
2095648004,-0.84,-0.22,-0.06
2095650004,-0.84,-0.25,-0.09
2095652121,-0.84,-0.25,-0.09
2095654005,-0.84,-0.25,-0.09
2095656006,-0.84,-0.25,-0.09
2095658005,-0.84,-0.25,-0.09
2095659980,-0.83,-0.26,-0.09
2095661980,-0.83,-0.26,-0.09
2095663980,-0.83,-0.26,-0.09
2095665980,-0.83,-0.26,-0.09
2095667979,-0.83,-0.26,-0.09
2095669980,-0.87,-0.29,-0.12
2095672028,-0.87,-0.29,-0.12
2095673979,-0.87,-0.29,-0.12
2095676082,-0.87,-0.29,-0.12
2095677986,-0.87,-0.29,-0.12
2095679974,-0.88,-0.30,-0.15
2095681979,-0.88,-0.30,-0.15
2095683977,-0.88,-0.30,-0.15
2095686022,-0.88,-0.30,-0.15
2095688010,-0.88,-0.30,-0.15
2095690013,-0.89,-0.32,-0.15
2095692038,-0.89,-0.32,-0.15
2095694006,-0.89,-0.32,-0.15
2095696017,-0.89,-0.32,-0.15
2095698010,-0.89,-0.32,-0.15
2095699979,-0.92,-0.34,-0.14
2095702097,-0.92,-0.34,-0.14
2095703976,-0.92,-0.34,-0.14
2095705979,-0.92,-0.34,-0.14
2095707980,-0.92,-0.34,-0.14
2095709980,-0.92,-0.36,-0.15
2095711980,-0.92,-0.36,-0.15
2095713977,-0.92,-0.36,-0.15
2095715979,-0.92,-0.36,-0.15
2095717980,-0.92,-0.36,-0.15
2095719978,-0.96,-0.38,-0.13
2095721979,-0.96,-0.38,-0.13
2095723979,-0.96,-0.38,-0.13
2095726097,-0.96,-0.38,-0.13
2095728006,-0.96,-0.38,-0.13
2095730004,-0.94,-0.39,-0.11
2095732042,-0.94,-0.39,-0.11
2095734035,-0.94,-0.39,-0.11
2095736030,-0.94,-0.39,-0.11
2095737992,-0.94,-0.39,-0.11
2095739958,-0.94,-0.39,-0.11
2095741952,-0.97,-0.41,-0.12
2095743958,-0.97,-0.41,-0.12
2095745958,-0.97,-0.41,-0.12
2095747957,-0.97,-0.41,-0.12
2095749958,-0.97,-0.41,-0.12
2095752074,-0.96,-0.38,-0.10
2095754018,-0.96,-0.38,-0.10
2095755958,-0.96,-0.38,-0.10
2095757955,-0.96,-0.38,-0.10
2095759955,-0.96,-0.38,-0.10
2095761957,-0.95,-0.38,-0.10
2095763958,-0.95,-0.38,-0.10
2095765957,-0.95,-0.38,-0.10
2095767955,-0.95,-0.38,-0.10
2095769958,-0.95,-0.38,-0.10
2095771952,-0.95,-0.35,-0.09
2095773957,-0.95,-0.35,-0.09
2095838048,-0.95,-0.32,-0.13
2095840005,-0.95,-0.32,-0.13
2095842010,-0.93,-0.32,-0.14
2095844005,-0.93,-0.32,-0.14
2095846007,-0.93,-0.32,-0.14
2095848007,-0.93,-0.32,-0.14
2095850007,-0.93,-0.32,-0.14
2095852114,-0.94,-0.31,-0.16
2095854011,-0.94,-0.31,-0.16
2095855980,-0.94,-0.31,-0.16
2095857979,-0.94,-0.31,-0.16
2095859979,-0.94,-0.31,-0.16
2095861979,-0.93,-0.30,-0.17
2095863980,-0.93,-0.30,-0.17
2095865980,-0.93,-0.30,-0.17
2095867979,-0.93,-0.30,-0.17
2095869979,-0.93,-0.30,-0.17
2095871977,-0.92,-0.30,-0.18
2095873984,-0.92,-0.30,-0.18
2095876076,-0.92,-0.30,-0.18
2095878010,-0.92,-0.30,-0.18
2095880006,-0.92,-0.30,-0.18
2095882003,-0.90,-0.29,-0.18
2095884038,-0.90,-0.29,-0.18
2095886048,-0.90,-0.29,-0.18
2095888034,-0.90,-0.29,-0.18
2095890007,-0.90,-0.29,-0.18
2095892008,-0.91,-0.30,-0.17
2095893957,-0.91,-0.30,-0.17
2095895976,-0.91,-0.30,-0.17
2095897958,-0.91,-0.30,-0.17
2095899955,-0.91,-0.30,-0.17
2095902082,-0.90,-0.30,-0.18
2095903953,-0.90,-0.30,-0.18
2095905957,-0.90,-0.30,-0.18
2095907957,-0.90,-0.30,-0.18
2095909957,-0.90,-0.30,-0.18
2095911955,-0.91,-0.32,-0.19
2095913955,-0.91,-0.32,-0.19
2095915958,-0.91,-0.32,-0.19
2095917958,-0.91,-0.32,-0.19
2095919958,-0.91,-0.32,-0.19
2095921958,-0.91,-0.32,-0.19
2095923958,-0.91,-0.32,-0.19
2095926034,-0.91,-0.32,-0.19
2096440053,-0.93,-0.38,0.05
2096442003,-0.93,-0.38,0.05
2096444006,-0.93,-0.38,0.05
2096446000,-0.93,-0.38,0.05
2096448009,-0.93,-0.39,0.06
2096450011,-0.93,-0.39,0.06
2096452120,-0.93,-0.39,0.06
2096454015,-0.93,-0.39,0.06
2096455979,-0.93,-0.39,0.06
2096457979,-0.93,-0.38,0.05
2096459978,-0.93,-0.38,0.05
2096461981,-0.93,-0.38,0.05
2096463978,-0.93,-0.38,0.05
2096465985,-0.93,-0.38,0.05
2096467979,-0.92,-0.38,0.05
2096469979,-0.92,-0.38,0.05
2096471980,-0.92,-0.38,0.05
2096473974,-0.92,-0.38,0.05
2096476074,-0.92,-0.38,0.05
2096477986,-0.92,-0.38,0.05
2096480013,-0.92,-0.38,0.05
2096482007,-0.92,-0.38,0.05
2096484033,-0.92,-0.38,0.05
2096486045,-0.92,-0.38,0.05
2096488009,-0.92,-0.38,0.05
2096490012,-0.91,-0.38,0.06
2096492038,-0.91,-0.38,0.06
2096494017,-0.91,-0.38,0.06
2096495990,-0.91,-0.38,0.06
2096497981,-0.91,-0.38,0.06
2096499975,-0.92,-0.38,0.05
2096502093,-0.92,-0.38,0.05
2096503974,-0.92,-0.38,0.05
2096505973,-0.92,-0.38,0.05
2096507975,-0.92,-0.38,0.05
2096509975,-0.91,-0.38,0.05
2096511974,-0.91,-0.38,0.05
2096513979,-0.91,-0.38,0.05
2096515979,-0.91,-0.38,0.05
2096517979,-0.91,-0.38,0.05
2096520033,-0.90,-0.36,0.05
2096522006,-0.90,-0.36,0.05
2096523957,-0.90,-0.36,0.05
2096526067,-0.90,-0.36,0.05
2096527971,-0.90,-0.36,0.05
2096529957,-0.89,-0.35,0.07
2096531957,-0.89,-0.35,0.07
2096533956,-0.89,-0.35,0.07
2096535957,-0.89,-0.35,0.07
2096537956,-0.89,-0.35,0.07
2096539957,-0.90,-0.35,0.06
2096541952,-0.90,-0.35,0.06
2096543956,-0.90,-0.35,0.06
2096545956,-0.90,-0.35,0.06
2096547952,-0.90,-0.35,0.06
2096549956,-0.91,-0.34,0.05
2096552038,-0.91,-0.34,0.05
2096553957,-0.91,-0.34,0.05
2096555957,-0.91,-0.34,0.05
2096557957,-0.91,-0.34,0.05
2096559957,-0.91,-0.36,0.06
2096561957,-0.91,-0.36,0.06
2096563961,-0.91,-0.36,0.06
2096565957,-0.91,-0.36,0.06
2096567957,-0.91,-0.36,0.06
2097326121,-0.96,-0.28,0.07
2097328008,-0.96,-0.27,0.07
2097330007,-0.96,-0.27,0.07
2097332007,-0.96,-0.27,0.07
2097334005,-0.96,-0.27,0.07
2097336007,-0.96,-0.27,0.07
2097338004,-0.94,-0.29,0.07
2097340004,-0.94,-0.29,0.07
2097342007,-0.94,-0.29,0.07
2097343977,-0.94,-0.29,0.07
2097345979,-0.94,-0.29,0.07
2097347977,-0.93,-0.30,0.06
2097349986,-0.93,-0.30,0.06
2097352082,-0.93,-0.30,0.06
2097353981,-0.93,-0.30,0.06
2097355980,-0.93,-0.30,0.06
2097357981,-0.95,-0.33,0.05
2097359976,-0.95,-0.33,0.05
2097361978,-0.95,-0.33,0.05
2097363980,-0.95,-0.33,0.05
2097366007,-0.95,-0.33,0.05
2097368005,-0.95,-0.33,0.05
2097370003,-0.95,-0.33,0.05
2097372006,-0.95,-0.33,0.05
2097374005,-0.95,-0.33,0.05
2097376116,-0.95,-0.33,0.05
2097378009,-0.96,-0.34,0.06
2097380009,-0.96,-0.34,0.06
2097381979,-0.96,-0.34,0.06
2097383979,-0.96,-0.34,0.06
2097385977,-0.96,-0.34,0.06
2097387983,-0.96,-0.33,0.06
2097389992,-0.96,-0.33,0.06
2097392011,-0.96,-0.33,0.06
2097393981,-0.96,-0.33,0.06
2097395993,-0.96,-0.33,0.06
2097397977,-0.96,-0.32,0.05
2097399980,-0.96,-0.32,0.05
2097402094,-0.96,-0.32,0.05
2097403977,-0.96,-0.32,0.05
2097406021,-0.96,-0.32,0.05
2097408003,-0.96,-0.32,0.06
2097410003,-0.96,-0.32,0.06
2097412004,-0.96,-0.32,0.06
2097414006,-0.96,-0.32,0.06
2097416058,-0.96,-0.32,0.06
2097418046,-0.96,-0.31,0.07
2097420012,-0.96,-0.31,0.07
2097421977,-0.96,-0.31,0.07
2097423984,-0.96,-0.31,0.07
2097426093,-0.96,-0.31,0.07
2097427987,-0.96,-0.31,0.07
2097429977,-0.97,-0.31,0.07
2097431981,-0.97,-0.31,0.07
2097433979,-0.97,-0.31,0.07
2097435979,-0.97,-0.31,0.07
2097437980,-0.97,-0.31,0.07
2097439980,-0.95,-0.31,0.06
2097441977,-0.95,-0.31,0.06
2097443978,-0.95,-0.31,0.06
2097446009,-0.95,-0.31,0.06
2097448004,-0.95,-0.31,0.06
2097450002,-0.95,-0.32,0.06
2097452103,-0.95,-0.32,0.06
2097454014,-0.95,-0.32,0.06
2097456005,-0.95,-0.32,0.06
2097458005,-0.95,-0.32,0.06
2097459976,-0.95,-0.31,0.07
2097461977,-0.95,-0.31,0.07
2097463981,-0.95,-0.31,0.07
2097465986,-0.95,-0.31,0.07
2097468062,-0.95,-0.31,0.07
2097470022,-0.96,-0.29,0.06
2097471976,-0.96,-0.29,0.06
2097473979,-0.96,-0.29,0.06
2097476091,-0.96,-0.29,0.06
2097477987,-0.96,-0.29,0.06
2097479980,-0.95,-0.28,0.06
2097481981,-0.95,-0.28,0.06
2097483976,-0.95,-0.28,0.06
2097486024,-0.95,-0.28,0.06
2097488001,-0.95,-0.28,0.06
2097490006,-0.94,-0.29,0.07
2097492039,-0.94,-0.29,0.07
2097494007,-0.94,-0.29,0.07
2097496008,-0.94,-0.29,0.07
2097498005,-0.94,-0.29,0.07
2097499978,-0.94,-0.30,0.07
2097502095,-0.94,-0.30,0.07
2097503978,-0.94,-0.30,0.07
2097505976,-0.94,-0.30,0.07
2097507976,-0.94,-0.30,0.07
2097509975,-0.94,-0.31,0.06
2097511979,-0.94,-0.31,0.06
2097513980,-0.94,-0.31,0.06
2097515986,-0.94,-0.31,0.06
2097518026,-0.94,-0.31,0.06
2097520001,-0.95,-0.32,0.05
2097521980,-0.95,-0.32,0.05
2097523977,-0.95,-0.32,0.05
2097526114,-0.95,-0.32,0.05
2097528038,-0.95,-0.32,0.05
2097530023,-0.95,-0.32,0.05
2097532004,-0.95,-0.32,0.05
2097534004,-0.95,-0.32,0.05
2097536008,-0.95,-0.32,0.05
2097538006,-0.95,-0.32,0.05
2097540007,-0.96,-0.30,0.05
2097541979,-0.96,-0.30,0.05
2097543978,-0.96,-0.30,0.05
2097545985,-0.96,-0.30,0.05
2097547981,-0.96,-0.30,0.05
2097549980,-0.94,-0.30,0.04
2097552098,-0.94,-0.30,0.04
2097553980,-0.94,-0.30,0.04
2097555977,-0.94,-0.30,0.04
2097557980,-0.94,-0.30,0.04
2097559976,-0.93,-0.30,0.04
2097561980,-0.93,-0.30,0.04
2097563978,-0.93,-0.30,0.04
2097566006,-0.93,-0.30,0.04
2097568008,-0.93,-0.30,0.04
2097570006,-0.92,-0.30,0.05
2097572005,-0.92,-0.30,0.05
2097574005,-0.92,-0.30,0.05
2097576092,-0.92,-0.30,0.05
2097578000,-0.92,-0.30,0.05
2097579976,-0.93,-0.30,0.05
2097581978,-0.93,-0.30,0.05
2097583980,-0.93,-0.30,0.05
2097585975,-0.93,-0.30,0.05
2097587982,-0.93,-0.30,0.05
2097589989,-0.93,-0.30,0.06
2097592009,-0.93,-0.30,0.06
2097593984,-0.93,-0.30,0.06
2097595992,-0.93,-0.30,0.06
2097597977,-0.93,-0.30,0.06
2097599978,-0.93,-0.30,0.06
2097602084,-0.94,-0.32,0.05
2097603975,-0.94,-0.32,0.05
2097606016,-0.94,-0.32,0.05
2097608000,-0.94,-0.32,0.05
2097610004,-0.94,-0.32,0.05
2097612004,-0.96,-0.33,0.04
2097614091,-0.96,-0.33,0.04
2097616031,-0.96,-0.33,0.04
2097618004,-0.96,-0.33,0.04
2097620010,-0.96,-0.33,0.04
2097622094,-0.95,-0.34,0.04
2097623979,-0.95,-0.34,0.04
2097626090,-0.95,-0.34,0.04
2097627992,-0.95,-0.34,0.04
2097629977,-0.95,-0.34,0.04
2097631976,-0.96,-0.33,0.05
2097633979,-0.96,-0.33,0.05
2097635979,-0.96,-0.33,0.05
2097637977,-0.96,-0.33,0.05
2097639978,-0.96,-0.33,0.05
2097641976,-0.94,-0.35,0.05
2097643979,-0.94,-0.35,0.05
2097646024,-0.94,-0.35,0.05
2097648001,-0.94,-0.35,0.05
2097650005,-0.94,-0.35,0.05
2097652101,-0.93,-0.36,0.04
2097654004,-0.93,-0.36,0.04
2097656001,-0.93,-0.36,0.04
2097658005,-0.93,-0.36,0.04
2097659984,-0.93,-0.36,0.04
2097661985,-0.92,-0.36,0.05
2097663980,-0.92,-0.36,0.05
2097665979,-0.92,-0.36,0.05
2097667977,-0.92,-0.36,0.05
2097669979,-0.92,-0.36,0.05
2097672037,-0.92,-0.36,0.05
2097673978,-0.92,-0.36,0.05
2097676088,-0.92,-0.36,0.05
2097677988,-0.92,-0.36,0.05
2097679973,-0.92,-0.36,0.05
2097681978,-0.93,-0.36,0.06
2097683977,-0.93,-0.36,0.06
2097686013,-0.93,-0.36,0.06
2097688004,-0.93,-0.36,0.06
2097690009,-0.93,-0.36,0.06
2097692037,-0.93,-0.35,0.06
2097694006,-0.93,-0.35,0.06
2097696014,-0.93,-0.35,0.06
2097698012,-0.93,-0.35,0.06
2097699977,-0.93,-0.35,0.06
2097702088,-0.95,-0.33,0.06
2097703989,-0.95,-0.33,0.06
2097705977,-0.95,-0.33,0.06
2097707977,-0.95,-0.33,0.06
2097709977,-0.95,-0.33,0.06
2097711981,-0.95,-0.33,0.05
2097713980,-0.95,-0.33,0.05
2097715979,-0.95,-0.33,0.05
2097717978,-0.95,-0.33,0.05
2097719977,-0.95,-0.33,0.05
2097721981,-0.95,-0.33,0.06
2097724073,-0.95,-0.33,0.06
2097726116,-0.95,-0.33,0.06
2097728018,-0.95,-0.33,0.06
2097730005,-0.95,-0.33,0.06
2097732002,-0.95,-0.34,0.05
2097734004,-0.95,-0.34,0.05
2097736003,-0.95,-0.34,0.05
2097738003,-0.95,-0.34,0.05
2097740006,-0.95,-0.34,0.05
2097741987,-0.95,-0.35,0.05
2097743985,-0.95,-0.35,0.05
2097745978,-0.95,-0.35,0.05
2097747980,-0.95,-0.35,0.05
2097749980,-0.95,-0.35,0.05
2097752080,-0.96,-0.35,0.04
2097753973,-0.96,-0.35,0.04
2097755977,-0.96,-0.35,0.04
2097757980,-0.96,-0.35,0.04
2097759979,-0.96,-0.35,0.04
2097761977,-0.96,-0.32,0.04
2097763979,-0.96,-0.32,0.04
2097766009,-0.96,-0.32,0.04
2097768006,-0.96,-0.32,0.04
2097770002,-0.96,-0.32,0.04
2097772007,-0.96,-0.32,0.04
2097774000,-0.96,-0.32,0.04
2097776091,-0.96,-0.32,0.04
2097778006,-0.96,-0.32,0.04
2097779999,-0.96,-0.32,0.04
2097782066,-0.98,-0.31,0.03
2097784025,-0.98,-0.31,0.03
2097785976,-0.98,-0.31,0.03
2097787977,-0.98,-0.31,0.03
2097789992,-0.98,-0.31,0.03
2097792005,-0.98,-0.31,0.03
2097793980,-0.97,-0.30,0.02
2097795993,-0.97,-0.30,0.02
2097797980,-0.97,-0.30,0.02
2097799980,-0.97,-0.30,0.02
2097802099,-0.97,-0.30,0.02
2097803979,-0.97,-0.29,0.03
2097806024,-0.97,-0.29,0.03
2097808005,-0.97,-0.29,0.03
2097810007,-0.97,-0.29,0.03
2097812001,-0.97,-0.29,0.03
2097814000,-0.96,-0.30,0.03
2097816004,-0.96,-0.30,0.03
2097818009,-0.96,-0.30,0.03
2097819980,-0.96,-0.30,0.03
2097821980,-0.96,-0.30,0.03
2097823985,-0.94,-0.31,0.01
2097826110,-0.94,-0.31,0.01
2097827986,-0.94,-0.31,0.01
2097829976,-0.94,-0.31,0.01
2097831980,-0.94,-0.31,0.01
2097833974,-0.95,-0.33,0.01
2097835976,-0.95,-0.33,0.01
2097837977,-0.95,-0.33,0.01
2097839976,-0.95,-0.33,0.01
2097841977,-0.95,-0.33,0.01
2097843976,-0.93,-0.34,0.01
2097846021,-0.93,-0.34,0.01
2097848005,-0.93,-0.34,0.01
2097850009,-0.93,-0.34,0.01
2097852104,-0.93,-0.34,0.01
2097854005,-0.95,-0.35,0.02
2097856006,-0.95,-0.35,0.02
2097858008,-0.95,-0.35,0.02
2097859976,-0.95,-0.35,0.02
2097861981,-0.95,-0.35,0.02
2097863980,-0.95,-0.35,0.02
2097865979,-0.95,-0.35,0.02
2097867979,-0.95,-0.35,0.02
2097869980,-0.95,-0.35,0.02
2097871980,-0.95,-0.35,0.02
2097873981,-0.95,-0.35,0.02
2097876080,-0.95,-0.35,0.02
2097877986,-0.95,-0.35,0.02
2097879978,-0.95,-0.35,0.02
2097881977,-0.95,-0.35,0.02
2097883980,-0.94,-0.34,0.03
2097886006,-0.94,-0.34,0.03
2097888004,-0.94,-0.34,0.03
2097890010,-0.94,-0.34,0.03
2097892040,-0.94,-0.34,0.03
2097894043,-0.93,-0.34,0.04
2097896035,-0.93,-0.34,0.04
2097898010,-0.93,-0.34,0.04
2097900011,-0.93,-0.34,0.04
2097902118,-0.93,-0.34,0.04
2097904022,-0.93,-0.35,0.04
2097905975,-0.93,-0.35,0.04
2097907976,-0.93,-0.35,0.04
2097909979,-0.93,-0.35,0.04
2097911974,-0.93,-0.35,0.04
2097913980,-0.94,-0.35,0.04
2097915979,-0.94,-0.35,0.04
2097917978,-0.94,-0.35,0.04
2097919975,-0.94,-0.35,0.04
2097921979,-0.94,-0.35,0.04
2097923979,-0.95,-0.35,0.03
2097926108,-0.95,-0.35,0.03
2097928042,-0.95,-0.35,0.03
2097930036,-0.95,-0.35,0.03
2097932021,-0.95,-0.35,0.03
2097934057,-0.96,-0.35,0.02
2097936044,-0.96,-0.35,0.02
2097938006,-0.96,-0.35,0.02
2097940007,-0.96,-0.35,0.02
2097942012,-0.96,-0.35,0.02
2097944007,-0.96,-0.34,0.02
2097946011,-0.96,-0.34,0.02
2097947975,-0.96,-0.34,0.02
2097949979,-0.96,-0.34,0.02
2097952103,-0.96,-0.34,0.02
2097953991,-0.95,-0.34,0.02
2097955976,-0.95,-0.34,0.02
2097957981,-0.95,-0.34,0.02
2097959979,-0.95,-0.34,0.02
2097961978,-0.95,-0.34,0.02
2097963977,-0.94,-0.34,0.02
2097966012,-0.94,-0.34,0.02
2097968008,-0.94,-0.34,0.02
2097970013,-0.94,-0.34,0.02
2097972008,-0.94,-0.34,0.02
2097974009,-0.94,-0.34,0.02
2097976105,-0.94,-0.34,0.04
2097977986,-0.94,-0.34,0.04
2097979979,-0.94,-0.34,0.04
2097981979,-0.94,-0.34,0.04
2097983976,-0.94,-0.34,0.04
2097985977,-0.94,-0.33,0.03
2097987984,-0.94,-0.33,0.03
2097989991,-0.94,-0.33,0.03
2097992009,-0.94,-0.33,0.03
2097993980,-0.94,-0.33,0.03
2097995991,-0.94,-0.32,0.03
2097997974,-0.94,-0.32,0.03
2097999973,-0.94,-0.32,0.03
2098002080,-0.94,-0.32,0.03
2098003990,-0.94,-0.32,0.03
2098006020,-0.94,-0.31,0.03
2098008008,-0.94,-0.31,0.03
2098010009,-0.94,-0.31,0.03
2098012010,-0.94,-0.31,0.03
2098014011,-0.94,-0.31,0.03
2098016064,-0.95,-0.31,0.02
2098018028,-0.95,-0.31,0.02
2098019978,-0.95,-0.31,0.02
2098021978,-0.95,-0.31,0.02
2098023978,-0.95,-0.31,0.02
2098026087,-0.93,-0.31,0.02
2098027987,-0.93,-0.31,0.02
2098029988,-0.93,-0.31,0.02
2098032024,-0.93,-0.31,0.02
2098034029,-0.93,-0.31,0.02
2098035979,-0.93,-0.30,0.02
2098037974,-0.93,-0.30,0.02
2098039975,-0.93,-0.30,0.02
2098041977,-0.93,-0.30,0.02
2098043977,-0.93,-0.30,0.02
2098046014,-0.91,-0.32,0.02
2098048005,-0.91,-0.32,0.02
2098050002,-0.91,-0.32,0.02
2098052120,-0.91,-0.32,0.02
2098054000,-0.91,-0.32,0.02
2098056005,-0.91,-0.32,0.01
2098058009,-0.91,-0.32,0.01
2098059984,-0.91,-0.32,0.01
2098061979,-0.91,-0.32,0.01
2098063979,-0.91,-0.32,0.01
2098065979,-0.91,-0.34,0.01
2098067977,-0.91,-0.34,0.01
2098069982,-0.91,-0.34,0.01
2098071986,-0.91,-0.34,0.01
2098073979,-0.91,-0.34,0.01
2098076083,-0.92,-0.34,0.01
2098077988,-0.92,-0.34,0.01
2098079979,-0.92,-0.34,0.01
2098081979,-0.92,-0.34,0.01
2098083978,-0.92,-0.34,0.01
2098086005,-0.93,-0.34,0.00
2098088006,-0.93,-0.34,0.00
2098090009,-0.93,-0.34,0.00
2098092059,-0.93,-0.34,0.00
2098094034,-0.93,-0.34,0.00
2098096015,-0.94,-0.34,-0.00
2098098007,-0.94,-0.34,-0.00
2098100001,-0.94,-0.34,-0.00
2098102128,-0.94,-0.34,-0.00
2098103978,-0.94,-0.34,-0.00
2098105977,-0.92,-0.34,0.00
2098107981,-0.92,-0.34,0.00
2098110026,-0.92,-0.34,0.00
2098111979,-0.92,-0.34,0.00
2098113979,-0.92,-0.34,0.00
2098115977,-0.89,-0.36,-0.00
2098117975,-0.89,-0.36,-0.00
2098119977,-0.89,-0.36,-0.00
2098121978,-0.89,-0.36,-0.00
2098123973,-0.89,-0.36,-0.00
2098126112,-0.88,-0.37,0.00
2098128007,-0.88,-0.37,0.00
2098130002,-0.88,-0.37,0.00
2098132005,-0.88,-0.37,0.00
2098134001,-0.88,-0.37,0.00
2098136013,-0.88,-0.39,-0.02
2098137992,-0.88,-0.39,-0.02
2098139977,-0.88,-0.39,-0.02
2098141980,-0.88,-0.39,-0.02
2098143981,-0.88,-0.39,-0.02
2098145980,-0.92,-0.41,-0.03
2098147979,-0.92,-0.41,-0.03
2098149978,-0.92,-0.41,-0.03
2098152081,-0.92,-0.41,-0.03
2098153979,-0.92,-0.41,-0.03
2098156038,-0.93,-0.41,-0.04
2098158029,-0.93,-0.41,-0.04
2098159974,-0.93,-0.41,-0.04
2098161974,-0.93,-0.41,-0.04
2098163977,-0.93,-0.41,-0.04
2098166024,-0.93,-0.41,-0.04
2098168007,-0.91,-0.41,-0.02
2098170004,-0.91,-0.41,-0.02
2098172002,-0.91,-0.41,-0.02
2098174007,-0.91,-0.41,-0.02
2098176109,-0.91,-0.41,-0.02
2098178010,-0.90,-0.41,-0.03
2098179976,-0.90,-0.41,-0.03
2098181977,-0.90,-0.41,-0.03
2098183977,-0.90,-0.41,-0.03
2098185979,-0.90,-0.41,-0.03
2098187980,-0.88,-0.41,-0.01
2098189989,-0.88,-0.41,-0.01
2098192011,-0.88,-0.41,-0.01
2098193976,-0.88,-0.41,-0.01
2098195990,-0.88,-0.41,-0.01
2098197975,-0.88,-0.41,-0.02
2098199977,-0.88,-0.41,-0.02
2098202089,-0.88,-0.41,-0.02
2098203992,-0.88,-0.41,-0.02
2098206013,-0.88,-0.41,-0.02
2098208009,-0.88,-0.41,-0.02
2098210006,-0.88,-0.41,-0.02
2098212043,-0.88,-0.41,-0.02
2098214023,-0.88,-0.41,-0.02
2098216034,-0.88,-0.41,-0.02
2098218057,-0.92,-0.43,-0.05
2098220038,-0.92,-0.43,-0.05
2098222008,-0.92,-0.43,-0.05
2098223977,-0.92,-0.43,-0.05
2098226227,-0.92,-0.43,-0.05
2098228070,-0.94,-0.42,-0.05
2098229980,-0.94,-0.42,-0.05
2098231988,-0.94,-0.42,-0.05
2098233979,-0.94,-0.42,-0.05
2098235976,-0.94,-0.42,-0.05
2098237976,-0.91,-0.41,-0.04
2098239975,-0.91,-0.41,-0.04
2098241979,-0.91,-0.41,-0.04
2098243979,-0.91,-0.41,-0.04
2098246018,-0.91,-0.41,-0.04
2098248004,-0.89,-0.40,-0.03
2098250010,-0.89,-0.40,-0.03
2098252122,-0.89,-0.40,-0.03
2098254009,-0.89,-0.40,-0.03
2098256005,-0.89,-0.40,-0.03
2098258008,-0.88,-0.39,-0.03
2098259976,-0.88,-0.39,-0.03
2098261994,-0.88,-0.39,-0.03
2098264132,-0.88,-0.39,-0.03
2098266017,-0.88,-0.39,-0.03
2098267981,-0.93,-0.39,-0.05
2098269976,-0.93,-0.39,-0.05
2098271976,-0.93,-0.39,-0.05
2098273978,-0.93,-0.39,-0.05
2098276091,-0.93,-0.39,-0.05
2098277988,-0.94,-0.39,-0.07
2098279976,-0.94,-0.39,-0.07
2098281975,-0.94,-0.39,-0.07
2098283981,-0.94,-0.39,-0.07
2098286026,-0.94,-0.39,-0.07
2098288002,-0.96,-0.38,-0.07
2098290014,-0.96,-0.38,-0.07
2098292039,-0.96,-0.38,-0.07
2098294002,-0.96,-0.38,-0.07
2098296008,-0.96,-0.38,-0.07
2098298011,-0.93,-0.37,-0.07
2098299978,-0.93,-0.37,-0.07
2098302097,-0.93,-0.37,-0.07
2098303980,-0.93,-0.37,-0.07
2098305979,-0.93,-0.37,-0.07
2098308000,-0.93,-0.39,-0.04
2098310112,-0.93,-0.39,-0.04
2098312017,-0.93,-0.39,-0.04
2098314036,-0.93,-0.39,-0.04
2098316012,-0.93,-0.39,-0.04
2098317979,-0.91,-0.41,-0.05
2098319977,-0.91,-0.41,-0.05
2098321975,-0.91,-0.41,-0.05
2098323974,-0.91,-0.41,-0.05
2098326117,-0.91,-0.41,-0.05
2098328007,-0.93,-0.44,-0.07
2098330001,-0.93,-0.44,-0.07
2098332021,-0.93,-0.44,-0.07
2098334007,-0.93,-0.44,-0.07
2098336008,-0.93,-0.44,-0.07
2098338006,-0.95,-0.43,-0.07
2098339985,-0.95,-0.43,-0.07
2098341979,-0.95,-0.43,-0.07
2098343980,-0.95,-0.43,-0.07
2098345980,-0.95,-0.43,-0.07
2098347977,-0.95,-0.43,-0.07
2098349981,-0.95,-0.41,-0.05
2098352084,-0.95,-0.41,-0.05
2098354043,-0.95,-0.41,-0.05
2098356027,-0.95,-0.41,-0.05
2098357975,-0.95,-0.41,-0.05
2098359974,-0.93,-0.39,-0.05
2098361975,-0.93,-0.39,-0.05
2098363977,-0.93,-0.39,-0.05
2098366019,-0.93,-0.39,-0.05
2098368003,-0.93,-0.39,-0.05
2098370005,-0.92,-0.40,-0.05
2098372006,-0.92,-0.40,-0.05
2098374006,-0.92,-0.40,-0.05
2098376113,-0.92,-0.40,-0.05
2098378012,-0.92,-0.40,-0.05
2098379980,-0.95,-0.40,-0.05
2098381979,-0.95,-0.40,-0.05
2098383977,-0.95,-0.40,-0.05
2098385980,-0.95,-0.40,-0.05
2098387978,-0.95,-0.40,-0.05
2098389991,-0.95,-0.42,-0.06
2098392007,-0.95,-0.42,-0.06
2098393976,-0.95,-0.42,-0.06
2098395989,-0.95,-0.42,-0.06
2098397977,-0.95,-0.42,-0.06
2098399980,-0.98,-0.41,-0.07
2098402179,-0.98,-0.41,-0.07
2098404023,-0.98,-0.41,-0.07
2098406023,-0.98,-0.41,-0.07
2098408007,-0.98,-0.41,-0.07
2098410005,-0.96,-0.39,-0.07
2098412004,-0.96,-0.39,-0.07
2098414007,-0.96,-0.39,-0.07
2098416006,-0.96,-0.39,-0.07
2098418040,-0.96,-0.39,-0.07
2098419979,-0.95,-0.38,-0.07
2098421979,-0.95,-0.38,-0.07
2098423977,-0.95,-0.38,-0.07
2098426094,-0.95,-0.38,-0.07
2098427987,-0.95,-0.38,-0.07
2098429979,-0.95,-0.38,-0.04
2098431981,-0.95,-0.38,-0.04
2098433979,-0.95,-0.38,-0.04
2098435976,-0.95,-0.38,-0.04
2098437976,-0.95,-0.38,-0.04
2098439980,-0.95,-0.39,-0.04
2098441979,-0.95,-0.39,-0.04
2098443979,-0.95,-0.39,-0.04
2098446012,-0.95,-0.39,-0.04
2098448004,-0.95,-0.39,-0.04
2098450003,-0.98,-0.38,-0.06
2098452106,-0.98,-0.38,-0.06
2098454010,-0.98,-0.38,-0.06
2098456063,-0.98,-0.38,-0.06
2098458047,-0.98,-0.38,-0.06
2098460002,-0.97,-0.37,-0.05
2098462007,-0.97,-0.37,-0.05
2098463979,-0.97,-0.37,-0.05
2098465977,-0.97,-0.37,-0.05
2098467984,-0.97,-0.37,-0.05
2098469976,-0.95,-0.36,-0.04
2098471981,-0.95,-0.36,-0.04
2098473978,-0.95,-0.36,-0.04
2098476097,-0.95,-0.36,-0.04
2098477988,-0.95,-0.36,-0.04
2098479977,-0.92,-0.35,-0.04
2098481978,-0.92,-0.35,-0.04
2098483976,-0.92,-0.35,-0.04
2098486015,-0.92,-0.35,-0.04
2098488006,-0.92,-0.35,-0.04
2098490013,-0.90,-0.37,-0.04
2098492037,-0.90,-0.37,-0.04
2098494004,-0.90,-0.37,-0.04
2098496007,-0.90,-0.37,-0.04
2098498008,-0.90,-0.37,-0.04
2098499975,-0.90,-0.38,-0.05
2098502089,-0.90,-0.38,-0.05
2098503980,-0.90,-0.38,-0.05
2098505976,-0.90,-0.38,-0.05
2098507975,-0.90,-0.38,-0.05
2098510013,-0.92,-0.38,-0.06
2098512062,-0.92,-0.38,-0.06
2098514006,-0.92,-0.38,-0.06
2098515975,-0.92,-0.38,-0.06
2098517980,-0.92,-0.38,-0.06
2098520017,-0.93,-0.37,-0.05
2098521977,-0.93,-0.37,-0.05
2098523976,-0.93,-0.37,-0.05
2098526115,-0.93,-0.37,-0.05
2098528009,-0.93,-0.37,-0.05
2098530008,-0.94,-0.35,-0.08
2098532007,-0.94,-0.35,-0.08
2098534008,-0.94,-0.35,-0.08
2098536003,-0.94,-0.35,-0.08
2098538006,-0.94,-0.35,-0.08
2098539979,-0.94,-0.35,-0.08
2098541979,-0.93,-0.32,-0.07
2098543978,-0.93,-0.32,-0.07
2098545978,-0.93,-0.32,-0.07
2098547981,-0.93,-0.32,-0.07
2098549979,-0.93,-0.32,-0.07
2098552081,-0.89,-0.35,-0.06
2098553977,-0.89,-0.35,-0.06
2098555978,-0.89,-0.35,-0.06
2098557980,-0.89,-0.35,-0.06
2098559979,-0.89,-0.35,-0.06
2098561979,-0.91,-0.35,-0.11
2098563977,-0.91,-0.35,-0.11
2098566009,-0.91,-0.35,-0.11
2098568006,-0.91,-0.35,-0.11
2098570005,-0.91,-0.35,-0.11
2098572058,-0.90,-0.38,-0.12
2098574035,-0.90,-0.38,-0.12
2098576118,-0.90,-0.38,-0.12
2098578010,-0.90,-0.38,-0.12
2098580005,-0.90,-0.38,-0.12
2098582008,-0.88,-0.39,-0.11
2098583977,-0.88,-0.39,-0.11
2098585978,-0.88,-0.39,-0.11
2098587978,-0.88,-0.39,-0.11
2098589991,-0.88,-0.39,-0.11
2098592010,-0.88,-0.39,-0.11
2098593982,-0.88,-0.39,-0.11
2098595991,-0.88,-0.39,-0.11
2098597979,-0.88,-0.39,-0.11
2098599980,-0.88,-0.39,-0.11
2098602090,-0.89,-0.40,-0.12
2098603984,-0.89,-0.40,-0.12
2098606019,-0.89,-0.40,-0.12
2098608005,-0.89,-0.40,-0.12
2098610005,-0.89,-0.40,-0.12
2098612005,-0.90,-0.40,-0.10
2098614006,-0.90,-0.40,-0.10
2098616008,-0.90,-0.40,-0.10
2098618008,-0.90,-0.40,-0.10
2098619986,-0.90,-0.40,-0.10
2098622118,-0.91,-0.40,-0.09
2098624029,-0.91,-0.40,-0.09
2098626117,-0.91,-0.40,-0.09
2098627986,-0.91,-0.40,-0.09
2098629976,-0.91,-0.40,-0.09
2098631976,-0.91,-0.40,-0.09
2098633976,-0.91,-0.40,-0.09
2098635981,-0.91,-0.40,-0.09
2098637980,-0.91,-0.40,-0.09
2098639976,-0.91,-0.40,-0.09
2098641978,-0.92,-0.39,-0.07
2098643980,-0.92,-0.39,-0.07
2098646017,-0.92,-0.39,-0.07
2098648004,-0.92,-0.39,-0.07
2098650005,-0.92,-0.39,-0.07
2098652111,-0.91,-0.38,-0.07
2098654008,-0.91,-0.38,-0.07
2098656006,-0.91,-0.38,-0.07
2098658004,-0.91,-0.38,-0.07
2098659982,-0.91,-0.38,-0.07
2098661985,-0.90,-0.37,-0.07
2098663979,-0.90,-0.37,-0.07
2098665976,-0.90,-0.37,-0.07
2098667976,-0.90,-0.37,-0.07
2098669977,-0.90,-0.37,-0.07
2098671981,-0.90,-0.33,-0.02
2098673980,-0.90,-0.33,-0.02
2098676078,-0.90,-0.33,-0.02
2098677988,-0.90,-0.33,-0.02
2098679978,-0.90,-0.33,-0.02
2098681979,-0.89,-0.34,-0.01
2098683979,-0.89,-0.34,-0.01
2098686011,-0.89,-0.34,-0.01
2098688005,-0.89,-0.34,-0.01
2098690011,-0.89,-0.34,-0.01
2098692040,-0.93,-0.32,-0.00
2098694004,-0.93,-0.32,-0.00
2098696011,-0.93,-0.32,-0.00
2098698006,-0.93,-0.32,-0.00
2098699978,-0.93,-0.32,-0.00
2098702095,-0.94,-0.35,-0.03
2098703992,-0.94,-0.35,-0.03
2098705975,-0.94,-0.35,-0.03
2098707976,-0.94,-0.35,-0.03
2098709978,-0.94,-0.35,-0.03
2098711975,-0.96,-0.34,-0.00
2098713980,-0.96,-0.34,-0.00
2098715978,-0.96,-0.34,-0.00
2098717976,-0.96,-0.34,-0.00
2098719981,-0.96,-0.34,-0.00
2098721980,-0.96,-0.34,-0.00
2098724036,-0.95,-0.34,-0.02
2098726113,-0.95,-0.34,-0.02
2098728007,-0.95,-0.34,-0.02
2098730006,-0.95,-0.34,-0.02
2098732019,-0.95,-0.34,-0.02
2098734039,-0.95,-0.36,-0.02
2098736013,-0.95,-0.36,-0.02
2098738008,-0.95,-0.36,-0.02
2098740012,-0.95,-0.36,-0.02
2098741980,-0.95,-0.36,-0.02
2098743980,-0.94,-0.36,-0.00
2098745979,-0.94,-0.36,-0.00
2098747981,-0.94,-0.36,-0.00
2098749979,-0.94,-0.36,-0.00
2098752092,-0.94,-0.36,-0.00
2098753984,-0.93,-0.39,-0.03
2098755978,-0.93,-0.39,-0.03
2098757985,-0.93,-0.39,-0.03
2098759977,-0.93,-0.39,-0.03
2098761977,-0.93,-0.39,-0.03
2098763978,-0.93,-0.38,-0.04
2098766013,-0.93,-0.38,-0.04
2098768004,-0.93,-0.38,-0.04
2098770003,-0.93,-0.38,-0.04
2098772027,-0.93,-0.38,-0.04
2098773990,-0.93,-0.39,-0.08
2098776068,-0.93,-0.39,-0.08
2098777970,-0.93,-0.39,-0.08
2098779958,-0.93,-0.39,-0.08
2098781958,-0.93,-0.39,-0.08
2098783958,-0.92,-0.39,-0.09
2098785955,-0.92,-0.39,-0.09
2098787961,-0.92,-0.39,-0.09
2098789974,-0.92,-0.39,-0.09
2098792006,-0.92,-0.39,-0.09
2098793955,-0.94,-0.41,-0.12
2098795979,-0.94,-0.41,-0.12
2098797957,-0.94,-0.41,-0.12
2098799958,-0.94,-0.41,-0.12
2098802064,-0.94,-0.41,-0.12
2098803955,-0.92,-0.41,-0.15
2098805955,-0.92,-0.41,-0.15
2098807958,-0.92,-0.41,-0.15
2098809958,-0.92,-0.41,-0.15
2098811957,-0.92,-0.41,-0.15
2098813955,-0.90,-0.43,-0.18
2098890052,-0.86,-0.34,-0.09
2098892032,-0.86,-0.34,-0.09
2098894003,-0.88,-0.32,-0.09
2098896008,-0.88,-0.32,-0.09
2098898003,-0.88,-0.32,-0.09
2098900001,-0.88,-0.32,-0.09
2098902119,-0.88,-0.32,-0.09
2098904004,-0.91,-0.30,-0.09
2098905973,-0.91,-0.30,-0.09
2098907977,-0.91,-0.30,-0.09
2098909980,-0.91,-0.30,-0.09
2098911980,-0.91,-0.30,-0.09
2098913976,-0.91,-0.30,-0.09
2098915979,-0.93,-0.28,-0.06
2098917979,-0.93,-0.28,-0.06
2098919979,-0.93,-0.28,-0.06
2098921985,-0.93,-0.28,-0.06
2098923981,-0.93,-0.28,-0.06
2098926071,-0.92,-0.28,-0.02
2098927989,-0.92,-0.28,-0.02
2098930062,-0.92,-0.28,-0.02
2098932007,-0.92,-0.28,-0.02
2098934002,-0.92,-0.28,-0.02
2098936006,-0.92,-0.29,-0.03
2098938007,-0.92,-0.29,-0.03
2098940021,-0.92,-0.29,-0.03
2098942036,-0.92,-0.29,-0.03
2098944020,-0.92,-0.29,-0.03
2098946062,-0.94,-0.30,0.00
2098948013,-0.94,-0.30,0.00
2098949975,-0.94,-0.30,0.00
2098952097,-0.94,-0.30,0.00
2098953993,-0.94,-0.30,0.00
2098955981,-0.94,-0.30,0.00
2098957980,-0.94,-0.30,0.00
2098959981,-0.94,-0.30,0.00
2098961980,-0.94,-0.30,0.00
2098963979,-0.94,-0.30,0.00
2098965977,-0.98,-0.31,-0.00
2098967980,-0.98,-0.31,-0.00
2098970021,-0.98,-0.31,-0.00
2098972001,-0.98,-0.31,-0.00
2098974005,-0.98,-0.31,-0.00
2098976102,-0.96,-0.33,0.00
2098978010,-0.96,-0.33,0.00
2098980007,-0.96,-0.33,0.00
2098982006,-0.96,-0.33,0.00
2098983980,-0.96,-0.33,0.00
2098985976,-1.01,-0.36,-0.02
2098987994,-1.01,-0.36,-0.02
2098990012,-1.01,-0.36,-0.02
2098992091,-1.01,-0.36,-0.02
2098994027,-1.01,-0.36,-0.02
2098995993,-1.02,-0.36,0.00
2098997979,-1.02,-0.36,0.00
2098999976,-1.02,-0.36,0.00
2099002101,-1.02,-0.36,0.00
2099003977,-1.02,-0.36,0.00
2099005979,-1.03,-0.37,-0.01
2099007975,-1.03,-0.37,-0.01
2099010019,-1.03,-0.37,-0.01
2099012002,-1.03,-0.37,-0.01
2099014008,-1.03,-0.37,-0.01
2099016005,-1.03,-0.36,-0.00
2099018007,-1.03,-0.36,-0.00
2099020006,-1.03,-0.36,-0.00
2099022009,-1.03,-0.36,-0.00
2099023980,-1.03,-0.36,-0.00
2099026080,-1.03,-0.39,-0.00
2099027988,-1.03,-0.39,-0.00
2099029981,-1.03,-0.39,-0.00
2099032024,-1.03,-0.39,-0.00
2099033976,-1.03,-0.39,-0.00
2099035975,-1.03,-0.41,-0.00
2099038056,-1.03,-0.41,-0.00
2099040019,-1.03,-0.41,-0.00
2099041975,-1.03,-0.41,-0.00
2099043976,-1.03,-0.41,-0.00
2099045977,-1.04,-0.43,-0.01
2099047975,-1.04,-0.43,-0.01
2099050017,-1.04,-0.43,-0.01
2099052121,-1.04,-0.43,-0.01
2099054007,-1.04,-0.43,-0.01
2099056006,-1.00,-0.43,-0.02
2099058007,-1.00,-0.43,-0.02
2099060006,-1.00,-0.43,-0.02
2099062007,-1.00,-0.43,-0.02
2099063977,-1.00,-0.43,-0.02
2099065978,-1.03,-0.44,-0.00
2099067979,-1.03,-0.44,-0.00
2099069979,-1.03,-0.44,-0.00
2099071978,-1.03,-0.44,-0.00
2099073976,-1.03,-0.44,-0.00
2099076082,-0.96,-0.43,-0.03
2099077988,-0.96,-0.43,-0.03
2099079975,-0.96,-0.43,-0.03
2099081975,-0.96,-0.43,-0.03
2099083977,-0.96,-0.43,-0.03
2099085977,-0.95,-0.45,-0.07
2099088063,-0.95,-0.45,-0.07
2099090041,-0.95,-0.45,-0.07
2099092009,-0.95,-0.45,-0.07
2099094035,-0.95,-0.45,-0.07
2099096010,-0.91,-0.43,-0.06
2099098005,-0.91,-0.43,-0.06
2099100006,-0.91,-0.43,-0.06
2099102122,-0.91,-0.43,-0.06
2099104012,-0.91,-0.43,-0.06
2099105984,-0.91,-0.43,-0.06
2099107980,-0.89,-0.43,-0.07
2099109980,-0.89,-0.43,-0.07
2099111979,-0.89,-0.43,-0.07
2099113979,-0.89,-0.43,-0.07
2099115977,-0.89,-0.43,-0.07
2099117980,-0.88,-0.42,-0.08
2099119981,-0.88,-0.42,-0.08
2099121980,-0.88,-0.42,-0.08
2099123978,-0.88,-0.42,-0.08
2099126079,-0.88,-0.42,-0.08
2099127989,-0.88,-0.41,-0.08
2099130012,-0.88,-0.41,-0.08
2099132005,-0.88,-0.41,-0.08
2099134051,-0.88,-0.41,-0.08
2099136007,-0.88,-0.41,-0.08
2099138006,-0.86,-0.39,-0.05
2099140006,-0.86,-0.39,-0.05
2099142006,-0.86,-0.39,-0.05
2099143976,-0.86,-0.39,-0.05
2099145976,-0.86,-0.39,-0.05
2099148012,-0.86,-0.37,-0.02
2099150055,-0.86,-0.37,-0.02
2099152120,-0.86,-0.37,-0.02
2099153978,-0.86,-0.37,-0.02
2099155977,-0.86,-0.37,-0.02
2099157975,-0.87,-0.34,-0.00
2099159974,-0.87,-0.34,-0.00
2099161980,-0.87,-0.34,-0.00
2099163974,-0.87,-0.34,-0.00
2099165977,-0.87,-0.34,-0.00
2099167976,-0.88,-0.33,0.00
2099170024,-0.88,-0.33,0.00
2099172005,-0.88,-0.33,0.00
2099174004,-0.88,-0.33,0.00
2099176100,-0.88,-0.33,0.00
2099178011,-0.91,-0.32,0.01
2099180006,-0.91,-0.32,0.01
2099182011,-0.91,-0.32,0.01
2099183989,-0.91,-0.32,0.01
2099185985,-0.91,-0.32,0.01
2099187982,-0.92,-0.31,0.02
2099189987,-0.92,-0.31,0.02
2099191979,-0.92,-0.31,0.02
2099194011,-0.92,-0.31,0.02
2099195991,-0.92,-0.31,0.02
2099197976,-0.95,-0.32,0.02
2099199978,-0.95,-0.32,0.02
2099202087,-0.95,-0.32,0.02
2099203989,-0.95,-0.32,0.02
2099205976,-0.95,-0.32,0.02
2099207977,-0.96,-0.32,0.04
2099210018,-0.96,-0.32,0.04
2099212047,-0.96,-0.32,0.04
2099214028,-0.96,-0.32,0.04
2099216020,-0.96,-0.32,0.04
2099218006,-0.98,-0.34,0.06
2099220004,-0.98,-0.34,0.06
2099222007,-0.98,-0.34,0.06
2099224004,-0.98,-0.34,0.06
2099226111,-0.98,-0.34,0.06
2099227986,-0.99,-0.34,0.08
2099229981,-0.99,-0.34,0.08
2099231981,-0.99,-0.34,0.08
2099233980,-0.99,-0.34,0.08
2099236023,-0.99,-0.34,0.08
2099238001,-0.99,-0.35,0.11
2099239977,-0.99,-0.35,0.11
2099241974,-0.99,-0.35,0.11
2099243981,-0.99,-0.35,0.11
2099245979,-0.99,-0.35,0.11
2099247979,-0.99,-0.35,0.12
2099250017,-0.99,-0.35,0.12
2099252118,-0.99,-0.35,0.12
2099254006,-0.99,-0.35,0.12
2099256009,-0.99,-0.35,0.12
2099258005,-0.98,-0.34,0.13
2099260002,-0.98,-0.34,0.13
2099262007,-0.98,-0.34,0.13
2099263980,-0.98,-0.34,0.13
2099265974,-0.98,-0.34,0.13
2099267977,-0.98,-0.34,0.11
2099269976,-0.98,-0.34,0.11
2099271985,-0.98,-0.34,0.11
2099273980,-0.98,-0.34,0.11
2099276218,-0.98,-0.34,0.11
2099278020,-0.98,-0.32,0.09
2099279981,-0.98,-0.32,0.09
2099281977,-0.98,-0.32,0.09
2099283977,-0.98,-0.32,0.09
2099285979,-0.98,-0.32,0.09
2099287981,-0.98,-0.32,0.09
2099290027,-0.96,-0.31,0.09
2099292004,-0.96,-0.31,0.09
2099294038,-0.96,-0.31,0.09
2099296009,-0.96,-0.31,0.09
2099298007,-0.96,-0.31,0.09
2099300007,-0.95,-0.31,0.07
2099302121,-0.95,-0.31,0.07
2099304013,-0.95,-0.31,0.07
2099305979,-0.95,-0.31,0.07
2099307979,-0.95,-0.31,0.07
2099309980,-0.95,-0.30,0.06
2099311979,-0.95,-0.30,0.06
2099313976,-0.95,-0.30,0.06
2099315985,-0.95,-0.30,0.06
2099317975,-0.95,-0.30,0.06
2099319981,-0.92,-0.31,0.06
2099321977,-0.92,-0.31,0.06
2099323977,-0.92,-0.31,0.06
2099326095,-0.92,-0.31,0.06
2099328059,-0.92,-0.31,0.06
2099330042,-0.91,-0.31,0.07
2099332007,-0.91,-0.31,0.07
2099334005,-0.91,-0.31,0.07
2099336003,-0.91,-0.31,0.07
2099338029,-0.91,-0.31,0.07
2099340047,-0.92,-0.32,0.05
2099342007,-0.92,-0.32,0.05
2099344009,-0.92,-0.32,0.05
2099345979,-0.92,-0.32,0.05
2099347977,-0.92,-0.32,0.05
2099349979,-0.91,-0.31,0.05
2099352096,-0.91,-0.31,0.05
2099353976,-0.91,-0.31,0.05
2099355980,-0.91,-0.31,0.05
2099357976,-0.91,-0.31,0.05
2099359980,-0.89,-0.30,0.04
2099361974,-0.89,-0.30,0.04
2099363974,-0.89,-0.30,0.04
2099365976,-0.89,-0.30,0.04
2099367974,-0.89,-0.30,0.04
2099370014,-0.89,-0.30,0.04
2099372006,-0.89,-0.30,0.04
2099374005,-0.89,-0.30,0.04
2099376095,-0.89,-0.30,0.04
2099378010,-0.89,-0.30,0.04
2099380006,-0.87,-0.32,0.02
2099382007,-0.87,-0.32,0.02
2099383976,-0.87,-0.32,0.02
2099386142,-0.87,-0.32,0.02
2099388013,-0.87,-0.32,0.02
2099389988,-0.88,-0.34,0.02
2099391978,-0.88,-0.34,0.02
2099394013,-0.88,-0.34,0.02
2099395991,-0.88,-0.34,0.02
2099397980,-0.88,-0.34,0.02
2099399977,-0.88,-0.35,0.03
2099402093,-0.88,-0.35,0.03
2099403979,-0.88,-0.35,0.03
2099405977,-0.88,-0.35,0.03
2099407975,-0.88,-0.35,0.03
2099410023,-0.91,-0.36,0.02
2099412004,-0.91,-0.36,0.02
2099414001,-0.91,-0.36,0.02
2099416009,-0.91,-0.36,0.02
2099418000,-0.91,-0.36,0.02
2099420006,-0.91,-0.38,0.04
2099422007,-0.91,-0.38,0.04
2099423976,-0.91,-0.38,0.04
2099426078,-0.91,-0.38,0.04
2099427990,-0.91,-0.38,0.04
2099429980,-0.92,-0.39,0.04
2099431979,-0.92,-0.39,0.04
2099433976,-0.92,-0.39,0.04
2099435979,-0.92,-0.39,0.04
2099437978,-0.92,-0.39,0.04
2099439982,-0.92,-0.39,0.07
2099442029,-0.92,-0.39,0.07
2099443980,-0.92,-0.39,0.07
2099445985,-0.92,-0.39,0.07
2099448075,-0.92,-0.39,0.07
2099450041,-0.91,-0.39,0.07
2099452118,-0.91,-0.39,0.07
2099454016,-0.91,-0.39,0.07
2099456004,-0.91,-0.39,0.07
2099458007,-0.91,-0.39,0.07
2099460004,-0.92,-0.40,0.07
2099462007,-0.92,-0.40,0.07
2099464009,-0.92,-0.40,0.07
2099465979,-0.92,-0.40,0.07
2099467980,-0.92,-0.40,0.07
2099469975,-0.91,-0.39,0.08
2099471981,-0.91,-0.39,0.08
2099473980,-0.91,-0.39,0.08
2099476083,-0.91,-0.39,0.08
2099477990,-0.91,-0.39,0.08
2099479981,-0.91,-0.39,0.08
2099481976,-0.95,-0.39,0.07
2099483981,-0.95,-0.39,0.07
2099485981,-0.95,-0.39,0.07
2099487982,-0.95,-0.39,0.07
2099490022,-0.95,-0.39,0.07
2099492005,-0.95,-0.39,0.05
2099494045,-0.95,-0.39,0.05
2099496009,-0.95,-0.39,0.05
2099498006,-0.95,-0.39,0.05
2099500003,-0.95,-0.39,0.05
2099502116,-0.98,-0.41,0.05
2099503979,-0.98,-0.41,0.05
2099505993,-0.98,-0.41,0.05
2099508066,-0.98,-0.41,0.05
2099510018,-0.98,-0.41,0.05
2099511978,-0.98,-0.40,0.05
2099513982,-0.98,-0.40,0.05
2099515977,-0.98,-0.40,0.05
2099517977,-0.98,-0.40,0.05
2099519976,-0.98,-0.40,0.05
2099521976,-0.97,-0.40,0.06
2099523977,-0.97,-0.40,0.06
2099526087,-0.97,-0.40,0.06
2099527987,-0.97,-0.40,0.06
2099530019,-0.97,-0.40,0.06
2099532000,-0.96,-0.39,0.07
2099534002,-0.96,-0.39,0.07
2099536003,-0.96,-0.39,0.07
2099538007,-0.96,-0.39,0.07
2099540006,-0.96,-0.39,0.07
2099542010,-0.97,-0.39,0.06
2099544021,-0.97,-0.39,0.06
2099545979,-0.97,-0.39,0.06
2099547976,-0.97,-0.39,0.06
2099549977,-0.97,-0.39,0.06
2099552090,-0.97,-0.38,0.07
2099553974,-0.97,-0.38,0.07
2099555979,-0.97,-0.38,0.07
2099557979,-0.97,-0.38,0.07
2099559977,-0.97,-0.38,0.07
2099561976,-0.99,-0.37,0.05
2099563977,-0.99,-0.37,0.05
2099565976,-0.99,-0.37,0.05
2099567977,-0.99,-0.37,0.05
2099570022,-0.99,-0.37,0.05
2099572061,-1.00,-0.37,0.04
2099574039,-1.00,-0.37,0.04
2099576114,-1.00,-0.37,0.04
2099578010,-1.00,-0.37,0.04
2099580007,-1.00,-0.37,0.04
2099582008,-1.00,-0.36,0.03
2099584007,-1.00,-0.36,0.03
2099586011,-1.00,-0.36,0.03
2099587984,-1.00,-0.36,0.03
2099589991,-1.00,-0.36,0.03
2099591979,-0.99,-0.37,0.02
2099594011,-0.99,-0.37,0.02
2099595991,-0.99,-0.37,0.02
2099597977,-0.99,-0.37,0.02
2099599974,-0.99,-0.37,0.02
2099602089,-0.98,-0.38,0.00
2099603976,-0.98,-0.38,0.00
2099605978,-0.98,-0.38,0.00
2099607976,-0.98,-0.38,0.00
2099610019,-0.98,-0.38,0.00
2099612008,-0.98,-0.41,-0.01
2099614002,-0.98,-0.41,-0.01
2099616009,-0.98,-0.41,-0.01
2099618003,-0.98,-0.41,-0.01
2099620026,-0.98,-0.41,-0.01
2099622120,-0.96,-0.42,-0.02
2099624031,-0.96,-0.42,-0.02
2099626117,-0.96,-0.42,-0.02
2099627989,-0.96,-0.42,-0.02
2099629979,-0.96,-0.42,-0.02
2099631984,-0.95,-0.42,-0.02
2099633979,-0.95,-0.42,-0.02
2099635980,-0.95,-0.42,-0.02
2099637978,-0.95,-0.42,-0.02
2099639976,-0.95,-0.42,-0.02
2099641984,-0.94,-0.42,-0.04
2099643984,-0.94,-0.42,-0.04
2099646025,-0.94,-0.42,-0.04
2099647980,-0.94,-0.42,-0.04
2099650021,-0.94,-0.42,-0.04
2099652112,-0.97,-0.40,-0.06
2099654004,-0.97,-0.40,-0.06
2099656006,-0.97,-0.40,-0.06
2099658005,-0.97,-0.40,-0.06
2099660004,-0.97,-0.40,-0.06
2099662005,-0.93,-0.37,-0.07
2099663989,-0.93,-0.37,-0.07
2099666104,-0.93,-0.37,-0.07
2099668013,-0.93,-0.37,-0.07
2099669975,-0.93,-0.37,-0.07
2099671978,-0.93,-0.37,-0.07
2099673977,-0.94,-0.38,-0.10
2099676089,-0.94,-0.38,-0.10
2099677990,-0.94,-0.38,-0.10
2099679976,-0.94,-0.38,-0.10
2099681976,-0.94,-0.38,-0.10
2099683978,-0.90,-0.39,-0.09
2099685974,-0.90,-0.39,-0.09
2099687977,-0.90,-0.39,-0.09
2099690029,-0.90,-0.39,-0.09
2099692004,-0.90,-0.39,-0.09
2099694045,-0.90,-0.41,-0.10
2099696014,-0.90,-0.41,-0.10
2099698008,-0.90,-0.41,-0.10
2099700007,-0.90,-0.41,-0.10
2099702114,-0.90,-0.41,-0.10
2099704015,-0.89,-0.42,-0.11
2099705980,-0.89,-0.42,-0.11
2099707984,-0.89,-0.42,-0.11
2099709980,-0.89,-0.42,-0.11
2099712052,-0.89,-0.42,-0.11
2099714021,-0.90,-0.43,-0.11
2099715972,-0.90,-0.43,-0.11
2099717978,-0.90,-0.43,-0.11
2099719974,-0.90,-0.43,-0.11
2099721975,-0.90,-0.43,-0.11
2099723972,-0.90,-0.44,-0.10
2099726092,-0.90,-0.44,-0.10
2099727990,-0.90,-0.44,-0.10
2099730018,-0.90,-0.44,-0.10
2099732001,-0.90,-0.44,-0.10
2099734006,-0.89,-0.42,-0.08
2099736005,-0.89,-0.42,-0.08
2099738003,-0.89,-0.42,-0.08
2099740005,-0.89,-0.42,-0.08
2099742004,-0.89,-0.42,-0.08
2099743979,-0.89,-0.40,-0.07
2099745977,-0.89,-0.40,-0.07
2099748026,-0.89,-0.40,-0.07
2099749996,-0.89,-0.40,-0.07
2099752089,-0.89,-0.40,-0.07
2099753977,-0.88,-0.36,-0.08
2099755976,-0.88,-0.36,-0.08
2099758035,-0.88,-0.36,-0.08
2099760029,-0.88,-0.36,-0.08
2099761976,-0.88,-0.36,-0.08
2099763975,-0.85,-0.35,-0.07
2099765974,-0.85,-0.35,-0.07
2099767974,-0.85,-0.35,-0.07
2099770022,-0.85,-0.35,-0.07
2099772005,-0.85,-0.35,-0.07
2099774007,-0.84,-0.33,-0.09
2099776115,-0.84,-0.33,-0.09
2099778012,-0.84,-0.33,-0.09
2099780009,-0.84,-0.33,-0.09
2099782009,-0.84,-0.33,-0.09
2099783979,-0.84,-0.33,-0.12
2099785978,-0.84,-0.33,-0.12
2099787983,-0.84,-0.33,-0.12
2099789990,-0.84,-0.33,-0.12
2099791975,-0.84,-0.33,-0.12
2099794009,-0.87,-0.31,-0.12
2099795993,-0.87,-0.31,-0.12
2099797975,-0.87,-0.31,-0.12
2099799974,-0.87,-0.31,-0.12
2099802088,-0.87,-0.31,-0.12
2099803976,-0.86,-0.30,-0.13
2099805971,-0.86,-0.30,-0.13
2099808005,-0.86,-0.30,-0.13
2099810046,-0.86,-0.30,-0.13
2099812032,-0.86,-0.30,-0.13
2099814005,-0.89,-0.29,-0.13
2099816002,-0.89,-0.29,-0.13
2099818010,-0.89,-0.29,-0.13
2099820007,-0.89,-0.29,-0.13
2099822011,-0.89,-0.29,-0.13
2099824006,-0.90,-0.27,-0.13
2099826116,-0.90,-0.27,-0.13
2099827987,-0.90,-0.27,-0.13
2099829979,-0.90,-0.27,-0.13
2099831977,-0.90,-0.27,-0.13
2099833976,-0.91,-0.27,-0.13
2099835981,-0.91,-0.27,-0.13
2099837978,-0.91,-0.27,-0.13
2099839992,-0.91,-0.27,-0.13
2099841980,-0.91,-0.27,-0.13
2099843979,-0.92,-0.28,-0.15
2099845975,-0.92,-0.28,-0.15
2099847978,-0.92,-0.28,-0.15
2099849979,-0.92,-0.28,-0.15
2099852107,-0.92,-0.28,-0.15
2099854001,-0.92,-0.28,-0.15
2099856007,-0.93,-0.29,-0.17
2099858007,-0.93,-0.29,-0.17
2099860003,-0.93,-0.29,-0.17
2099862007,-0.93,-0.29,-0.17
2099864035,-0.93,-0.29,-0.17
2099866036,-0.91,-0.29,-0.20
2099868057,-0.91,-0.29,-0.20
2099870020,-0.91,-0.29,-0.20
2099871979,-0.91,-0.29,-0.20
2099873978,-0.91,-0.29,-0.20
2099876091,-0.92,-0.29,-0.22
2099877990,-0.92,-0.29,-0.22
2099879979,-0.92,-0.29,-0.22
2099881979,-0.92,-0.29,-0.22
2099883980,-0.92,-0.29,-0.22
2099885980,-0.91,-0.27,-0.22
2099887983,-0.91,-0.27,-0.22
2099889989,-0.91,-0.27,-0.22
2099892017,-0.91,-0.27,-0.22
2099894046,-0.91,-0.27,-0.22
2099896006,-0.90,-0.28,-0.23
2099898006,-0.90,-0.28,-0.23
2099900008,-0.90,-0.28,-0.23
2099902116,-0.90,-0.28,-0.23
2099904007,-0.90,-0.28,-0.23
2099905987,-0.91,-0.27,-0.23
2099907979,-0.91,-0.27,-0.23
2099909980,-0.91,-0.27,-0.23
2099911977,-0.91,-0.27,-0.23
2099913979,-0.91,-0.27,-0.23
2099915980,-0.89,-0.27,-0.25
2099917979,-0.89,-0.27,-0.25
2099919979,-0.89,-0.27,-0.25
2099921976,-0.89,-0.27,-0.25
2099923977,-0.89,-0.27,-0.25
2099926076,-0.97,-0.27,-0.17
2099927989,-0.97,-0.27,-0.17
2099930136,-0.97,-0.27,-0.17
2099932038,-0.97,-0.27,-0.17
2099934006,-0.97,-0.27,-0.17
2099936002,-0.95,-0.29,-0.15
2099938007,-0.95,-0.29,-0.15
2099940006,-0.95,-0.29,-0.15
2099942008,-0.95,-0.29,-0.15
2099944009,-0.95,-0.29,-0.15
2099945979,-0.95,-0.30,-0.17
2099947977,-0.95,-0.30,-0.17
2099949977,-0.95,-0.30,-0.17
2099952104,-0.95,-0.30,-0.17
2099954024,-0.95,-0.30,-0.17
2099955977,-0.96,-0.31,-0.14
2099957978,-0.96,-0.31,-0.14
2099959980,-0.96,-0.31,-0.14
2099961976,-0.96,-0.31,-0.14
2099963979,-0.96,-0.31,-0.14
2099965975,-0.95,-0.31,-0.13
2099967976,-0.95,-0.31,-0.13
2099969978,-0.95,-0.31,-0.13
2099972022,-0.95,-0.31,-0.13
2099974007,-0.95,-0.31,-0.13
2099976103,-0.93,-0.32,-0.13
2099978036,-0.93,-0.32,-0.13
2099980040,-0.93,-0.32,-0.13
2099982004,-0.93,-0.32,-0.13
2099984010,-0.93,-0.32,-0.13
2099985979,-0.92,-0.34,-0.14
2099987983,-0.92,-0.34,-0.14
2099989992,-0.92,-0.34,-0.14
2099991981,-0.92,-0.34,-0.14
2099994026,-0.92,-0.34,-0.14
2099996015,-0.95,-0.35,-0.13
2099997979,-0.95,-0.35,-0.13
2099999978,-0.95,-0.35,-0.13
2100002098,-0.95,-0.35,-0.13
2100003977,-0.95,-0.35,-0.13
2100005975,-0.94,-0.38,-0.11
2100007976,-0.94,-0.38,-0.11
2100009976,-0.94,-0.38,-0.11
2100012013,-0.94,-0.38,-0.11
2100014004,-0.94,-0.38,-0.11
2100016008,-0.93,-0.40,-0.12
2100018034,-0.93,-0.40,-0.12
2100020035,-0.93,-0.40,-0.12
2100022009,-0.93,-0.40,-0.12
2100024008,-0.93,-0.40,-0.12
2100026113,-0.93,-0.43,-0.11
2100027992,-0.93,-0.43,-0.11
2100030032,-0.93,-0.43,-0.11
2100031975,-0.93,-0.43,-0.11
2100033978,-0.93,-0.43,-0.11
2100035981,-0.93,-0.43,-0.11
2100037981,-0.93,-0.45,-0.11
2100039978,-0.93,-0.45,-0.11
2100041977,-0.93,-0.45,-0.11
2100043975,-0.93,-0.45,-0.11
2100045978,-0.93,-0.45,-0.11
2100047977,-0.92,-0.47,-0.12
2100049977,-0.92,-0.47,-0.12
2100052129,-0.92,-0.47,-0.12
2100054038,-0.92,-0.47,-0.12
2100056039,-0.92,-0.47,-0.12
2100058001,-0.90,-0.47,-0.09
2100060005,-0.90,-0.47,-0.09
2100062006,-0.90,-0.47,-0.09
2100064005,-0.90,-0.47,-0.09
2100066009,-0.90,-0.47,-0.09
2100067972,-0.89,-0.48,-0.11
2100069979,-0.89,-0.48,-0.11
2100071979,-0.89,-0.48,-0.11
2100073973,-0.89,-0.48,-0.11
2100076088,-0.89,-0.48,-0.11
2100077987,-0.89,-0.48,-0.12
2100079979,-0.89,-0.48,-0.12
2100081976,-0.89,-0.48,-0.12
2100083974,-0.89,-0.48,-0.12
2100085977,-0.89,-0.48,-0.12
2100088000,-0.90,-0.47,-0.13
2100090067,-0.90,-0.47,-0.13
2100092042,-0.90,-0.47,-0.13
2100094042,-0.90,-0.47,-0.13
2100096007,-0.90,-0.47,-0.13
2100098006,-0.89,-0.50,-0.12
2100100008,-0.89,-0.50,-0.12
2100102139,-0.89,-0.50,-0.12
2100104012,-0.89,-0.50,-0.12
2100106007,-0.89,-0.50,-0.12
2100107993,-0.90,-0.50,-0.11
2100109980,-0.90,-0.50,-0.11
2100111980,-0.90,-0.50,-0.11
2100113977,-0.90,-0.50,-0.11
2100115979,-0.90,-0.50,-0.11
2100117977,-0.90,-0.51,-0.10
2100119981,-0.90,-0.51,-0.10
2100121979,-0.90,-0.51,-0.10
2100123979,-0.90,-0.51,-0.10
2100126076,-0.90,-0.51,-0.10
2100127987,-0.92,-0.50,-0.11
2100129977,-0.92,-0.50,-0.11
2100132010,-0.92,-0.50,-0.11
2100134007,-0.92,-0.50,-0.11
2100136004,-0.92,-0.50,-0.11
2100138004,-0.91,-0.48,-0.11
2100140005,-0.91,-0.48,-0.11
2100142005,-0.91,-0.48,-0.11
2100144008,-0.91,-0.48,-0.11
2100145982,-0.91,-0.48,-0.11
2100148063,-0.89,-0.47,-0.08
2100150016,-0.89,-0.47,-0.08
2100152097,-0.89,-0.47,-0.08
2100153980,-0.89,-0.47,-0.08
2100155975,-0.89,-0.47,-0.08
2100158017,-0.89,-0.45,-0.09
2100159976,-0.89,-0.45,-0.09
2100161975,-0.89,-0.45,-0.09
2100163976,-0.89,-0.45,-0.09
2100165975,-0.89,-0.45,-0.09
2100167979,-0.91,-0.43,-0.11
2100169975,-0.91,-0.43,-0.11
2100172023,-0.91,-0.43,-0.11
2100174001,-0.91,-0.43,-0.11
2100176103,-0.91,-0.43,-0.11
2100178009,-0.89,-0.43,-0.09
2100180008,-0.89,-0.43,-0.09
2100182008,-0.89,-0.43,-0.09
2100184008,-0.89,-0.43,-0.09
2100185979,-0.89,-0.43,-0.09
2100187980,-0.87,-0.40,-0.08
2100189991,-0.87,-0.40,-0.08
2100191979,-0.87,-0.40,-0.08
2100194015,-0.87,-0.40,-0.08
2100195992,-0.87,-0.40,-0.08
2100197977,-0.88,-0.38,-0.09
2100199976,-0.88,-0.38,-0.09
2100202089,-0.88,-0.38,-0.09
2100203990,-0.88,-0.38,-0.09
2100205977,-0.88,-0.38,-0.09
2100207977,-0.89,-0.36,-0.07
2100210121,-0.89,-0.36,-0.07
2100212044,-0.89,-0.36,-0.07
2100214006,-0.89,-0.36,-0.07
2100216005,-0.89,-0.36,-0.07
2100218005,-0.90,-0.35,-0.04
2100220010,-0.90,-0.35,-0.04
2100222008,-0.90,-0.35,-0.04
2100224008,-0.90,-0.35,-0.04
2100226218,-0.90,-0.35,-0.04
2100228036,-0.90,-0.35,-0.04
2100229988,-0.91,-0.35,-0.02
2100231977,-0.91,-0.35,-0.02
2100233979,-0.91,-0.35,-0.02
2100235975,-0.91,-0.35,-0.02
2100237980,-0.91,-0.35,-0.02
2100239979,-0.92,-0.36,-0.01
2100241980,-0.92,-0.36,-0.01
2100243980,-0.92,-0.36,-0.01
2100245979,-0.92,-0.36,-0.01
2100247977,-0.92,-0.36,-0.01
2100249977,-0.91,-0.33,0.00
2100252131,-0.91,-0.33,0.00
2100254034,-0.91,-0.33,0.00
2100256067,-0.91,-0.33,0.00
2100258065,-0.91,-0.33,0.00
2100260035,-0.91,-0.34,-0.00
2100262030,-0.91,-0.34,-0.00
2100264006,-0.91,-0.34,-0.00
2100266009,-0.91,-0.34,-0.00
2100268005,-0.91,-0.34,-0.00
2100270010,-0.92,-0.31,-0.00
2100271980,-0.92,-0.31,-0.00
2100273980,-0.92,-0.31,-0.00
2100276098,-0.92,-0.31,-0.00
2100277991,-0.92,-0.31,-0.00
2100279978,-0.91,-0.30,-0.00
2100281977,-0.91,-0.30,-0.00
2100283980,-0.91,-0.30,-0.00
2100285980,-0.91,-0.30,-0.00
2100287982,-0.91,-0.30,-0.00
2100289986,-0.91,-0.27,0.00
2100292012,-0.91,-0.27,0.00
2100294044,-0.91,-0.27,0.00
2100296005,-0.91,-0.27,0.00
2100298012,-0.91,-0.27,0.00
2100300009,-0.93,-0.26,0.01
2100302114,-0.93,-0.26,0.01
2100304011,-0.93,-0.26,0.01
2100305977,-0.93,-0.26,0.01
2100307980,-0.93,-0.26,0.01
2100309979,-0.95,-0.26,0.02
2100311978,-0.95,-0.26,0.02
2100313976,-0.95,-0.26,0.02
2100316005,-0.95,-0.26,0.02
2100318067,-0.95,-0.26,0.02
2100320018,-0.98,-0.27,0.00
2100321979,-0.98,-0.27,0.00
2100323981,-0.98,-0.27,0.00
2100326092,-0.98,-0.27,0.00
2100327986,-0.98,-0.27,0.00
2100329974,-0.98,-0.28,-0.01
2100332018,-0.98,-0.28,-0.01
2100334004,-0.98,-0.28,-0.01
2100336004,-0.98,-0.28,-0.01
2100338008,-0.98,-0.28,-0.01
2100340007,-1.01,-0.30,-0.03
2100342002,-1.01,-0.30,-0.03
2100344005,-1.01,-0.30,-0.03
2100345981,-1.01,-0.30,-0.03
2100347980,-1.01,-0.30,-0.03
2100349979,-1.00,-0.31,-0.04
2100352083,-1.00,-0.31,-0.04
2100353977,-1.00,-0.31,-0.04
2100355976,-1.00,-0.31,-0.04
2100357980,-1.00,-0.31,-0.04
2100359979,-1.00,-0.32,-0.05
2100361980,-1.00,-0.32,-0.05
2100363983,-1.00,-0.32,-0.05
2100365985,-1.00,-0.32,-0.05
2100367980,-1.00,-0.32,-0.05
2100369975,-0.99,-0.32,-0.06
2100372008,-0.99,-0.32,-0.06
2100374007,-0.99,-0.32,-0.06
2100376102,-0.99,-0.32,-0.06
2100378041,-0.99,-0.32,-0.06
2100380006,-0.98,-0.31,-0.05
2100382002,-0.98,-0.31,-0.05
2100384008,-0.98,-0.31,-0.05
2100385979,-0.98,-0.31,-0.05
2100387982,-0.98,-0.31,-0.05
2100389990,-0.96,-0.28,-0.03
2100391980,-0.96,-0.28,-0.03
2100394035,-0.96,-0.28,-0.03
2100395989,-0.96,-0.28,-0.03
2100397976,-0.96,-0.28,-0.03
2100399976,-0.96,-0.26,-0.04
2100402090,-0.96,-0.26,-0.04
2100403980,-0.96,-0.26,-0.04
2100405979,-0.96,-0.26,-0.04
2100407979,-0.96,-0.26,-0.04
2100409978,-0.96,-0.26,-0.04
2100412022,-0.95,-0.25,-0.04
2100414006,-0.95,-0.25,-0.04
2100416005,-0.95,-0.25,-0.04
2100418039,-0.95,-0.25,-0.04
2100420036,-0.95,-0.25,-0.04
2100422006,-0.95,-0.24,0.00
2100424008,-0.95,-0.24,0.00
2100426112,-0.95,-0.24,0.00
2100427990,-0.95,-0.24,0.00
2100430035,-0.95,-0.24,0.00
2100431980,-0.95,-0.25,0.03
2100433979,-0.95,-0.25,0.03
2100435975,-0.95,-0.25,0.03
2100437976,-0.95,-0.25,0.03
2100439978,-0.95,-0.25,0.03
2100441977,-0.96,-0.27,0.03
2100443978,-0.96,-0.27,0.03
2100445976,-0.96,-0.27,0.03
2100447976,-0.96,-0.27,0.03
2100449975,-0.96,-0.27,0.03
2100452124,-0.98,-0.29,0.06
2100454015,-0.98,-0.29,0.06
2100456007,-0.98,-0.29,0.06
2100458006,-0.98,-0.29,0.06
2100460007,-0.98,-0.29,0.06
2100462025,-0.98,-0.32,0.09
2100464033,-0.98,-0.32,0.09
2100466012,-0.98,-0.32,0.09
2100467976,-0.98,-0.32,0.09
2100469980,-0.98,-0.32,0.09
2100471979,-0.98,-0.35,0.11
2100473978,-0.98,-0.35,0.11
2100476087,-0.98,-0.35,0.11
2100477988,-0.98,-0.35,0.11
2100479977,-0.98,-0.35,0.11
2100481976,-1.01,-0.38,0.12
2100483976,-1.01,-0.38,0.12
2100485980,-1.01,-0.38,0.12
2100487978,-1.01,-0.38,0.12
2100489991,-1.01,-0.38,0.12
2100492059,-1.02,-0.40,0.12
2100494036,-1.02,-0.40,0.12
2100496018,-1.02,-0.40,0.12
2100498029,-1.02,-0.40,0.12
2100500004,-1.02,-0.40,0.12
2100502126,-1.02,-0.41,0.13
2100504007,-1.02,-0.41,0.13
2100506007,-1.02,-0.41,0.13
2100508006,-1.02,-0.41,0.13
2100510010,-1.02,-0.41,0.13
2100511976,-1.02,-0.41,0.13
2100513976,-1.02,-0.41,0.13
2100515977,-1.02,-0.41,0.13
2100517978,-1.02,-0.41,0.13
2100519979,-1.02,-0.41,0.13
2100521980,-1.03,-0.41,0.12
2100523979,-1.03,-0.41,0.12
2100526078,-1.03,-0.41,0.12
2100527988,-1.03,-0.41,0.12
2100529979,-1.03,-0.41,0.12
2100532012,-1.01,-0.40,0.11
2100534008,-1.01,-0.40,0.11
2100536002,-1.01,-0.40,0.11
2100538004,-1.01,-0.40,0.11
2100540005,-1.01,-0.40,0.11
2100542008,-1.00,-0.39,0.11
2100544008,-1.00,-0.39,0.11
2100545980,-1.00,-0.39,0.11
2100547976,-1.00,-0.39,0.11
2100549977,-1.00,-0.39,0.11
2100552084,-1.00,-0.39,0.10
2100553979,-1.00,-0.39,0.10
2100555978,-1.00,-0.39,0.10
2100557972,-1.00,-0.39,0.10
2100559977,-1.00,-0.39,0.10
2100561989,-1.00,-0.38,0.07
2100564072,-1.00,-0.38,0.07
2100566017,-1.00,-0.38,0.07
2100568014,-1.00,-0.38,0.07
2100569979,-1.00,-0.38,0.07
2100572021,-0.99,-0.35,0.06
2100574005,-0.99,-0.35,0.06
2100576109,-0.99,-0.35,0.06
2100578012,-0.99,-0.35,0.06
2100580008,-0.99,-0.35,0.06
2100582007,-0.97,-0.34,0.05
2100584002,-0.97,-0.34,0.05
2100585980,-0.97,-0.34,0.05
2100587982,-0.97,-0.34,0.05
2100589987,-0.97,-0.34,0.05
2100591976,-0.97,-0.34,0.03
2100593981,-0.97,-0.34,0.03
2100595991,-0.97,-0.34,0.03
2100598011,-0.97,-0.34,0.03
2100599976,-0.97,-0.34,0.03
2100602088,-0.96,-0.32,0.01
2100603978,-0.96,-0.32,0.01
2100605977,-0.96,-0.32,0.01
2100607977,-0.96,-0.32,0.01
2100609975,-0.96,-0.32,0.01
2100612019,-0.96,-0.32,0.01
2100614005,-0.93,-0.32,0.02
2100616069,-0.93,-0.32,0.02
2100618042,-0.93,-0.32,0.02
2100620003,-0.93,-0.32,0.02
2100622075,-0.93,-0.32,0.02
2100624009,-0.90,-0.32,0.02
2100626116,-0.90,-0.32,0.02
2100628016,-0.90,-0.32,0.02
2100629979,-0.90,-0.32,0.02
2100631978,-0.90,-0.32,0.02
2100633979,-0.89,-0.31,0.02
2100635981,-0.89,-0.31,0.02
2100637981,-0.89,-0.31,0.02
2100639981,-0.89,-0.31,0.02
2100641980,-0.89,-0.31,0.02
2100643980,-0.89,-0.32,0.01
2100645974,-0.89,-0.32,0.01
2100647979,-0.89,-0.32,0.01
2100649978,-0.89,-0.32,0.01
2100652106,-0.89,-0.32,0.01
2100654006,-0.90,-0.32,0.01
2100656006,-0.90,-0.32,0.01
2100658002,-0.90,-0.32,0.01
2100660007,-0.90,-0.32,0.01
2100662004,-0.90,-0.32,0.01
2100664009,-0.89,-0.34,0.01
2100665980,-0.89,-0.34,0.01
2100668010,-0.89,-0.34,0.01
2100670013,-0.89,-0.34,0.01
2100671978,-0.89,-0.34,0.01
2100673975,-0.90,-0.34,0.02
2100676106,-0.90,-0.34,0.02
2100678060,-0.90,-0.34,0.02
2100680020,-0.90,-0.34,0.02
2100681974,-0.90,-0.34,0.02
2100683979,-0.90,-0.37,0.02
2100685977,-0.90,-0.37,0.02
2100687980,-0.90,-0.37,0.02
2100689990,-0.90,-0.37,0.02
2100692036,-0.90,-0.37,0.02
2100694002,-0.90,-0.39,0.04
2100696019,-0.90,-0.39,0.04
2100698038,-0.90,-0.39,0.04
2100700003,-0.90,-0.39,0.04
2100702121,-0.90,-0.39,0.04
2100704014,-0.89,-0.40,0.05
2100706012,-0.89,-0.40,0.05
2100707979,-0.89,-0.40,0.05
2100709977,-0.89,-0.40,0.05
2100711977,-0.89,-0.40,0.05
2100713979,-0.89,-0.42,0.07
2100715977,-0.89,-0.42,0.07
2100717976,-0.89,-0.42,0.07
2100719981,-0.89,-0.42,0.07
2100721980,-0.89,-0.42,0.07
2100723981,-0.90,-0.42,0.09
2100726085,-0.90,-0.42,0.09
2100727987,-0.90,-0.42,0.09
2100729977,-0.90,-0.42,0.09
2100732010,-0.90,-0.42,0.09
2100734006,-0.90,-0.43,0.10
2100736009,-0.90,-0.43,0.10
2100738028,-0.90,-0.43,0.10
2100740127,-0.90,-0.43,0.10
2100742039,-0.90,-0.43,0.10
2100744007,-0.89,-0.42,0.11
2100746006,-0.89,-0.42,0.11
2100747976,-0.89,-0.42,0.11
2100749979,-0.89,-0.42,0.11
2100752098,-0.89,-0.42,0.11
2100753981,-0.91,-0.41,0.12
2100755978,-0.91,-0.41,0.12
2100757985,-0.91,-0.41,0.12
2100759978,-0.91,-0.41,0.12
2100761978,-0.91,-0.41,0.12
2100763977,-0.92,-0.42,0.11
2100765980,-0.92,-0.42,0.11
2100767979,-0.92,-0.42,0.11
2100769978,-0.92,-0.42,0.11
2100772014,-0.92,-0.42,0.11
2100774008,-0.90,-0.39,0.12
2100776100,-0.90,-0.39,0.12
2100778013,-0.90,-0.39,0.12
2100780006,-0.90,-0.39,0.12
2100782002,-0.90,-0.39,0.12
2100783977,-0.89,-0.41,0.11
2100785976,-0.89,-0.41,0.11
2100787978,-0.89,-0.41,0.11
2100789991,-0.89,-0.41,0.11
2100791976,-0.89,-0.41,0.11
2100793978,-0.89,-0.41,0.11
2100795994,-0.91,-0.42,0.11
2100798009,-0.91,-0.42,0.11
2100799976,-0.91,-0.42,0.11
2100802091,-0.91,-0.42,0.11
2100803975,-0.91,-0.42,0.11
2100805976,-0.92,-0.44,0.09
2100807977,-0.92,-0.44,0.09
2100809974,-0.92,-0.44,0.09
2100812023,-0.92,-0.44,0.09
2100814009,-0.92,-0.44,0.09
2100816005,-0.94,-0.45,0.05
2100818006,-0.94,-0.45,0.05
2100820009,-0.94,-0.45,0.05
2100822007,-0.94,-0.45,0.05
2100823986,-0.94,-0.45,0.05
2100826083,-0.97,-0.46,0.04
2100827988,-0.97,-0.46,0.04
2100830070,-0.97,-0.46,0.04
2100832020,-0.97,-0.46,0.04
2100833979,-0.97,-0.46,0.04
2100835976,-0.97,-0.45,0.04
2100837974,-0.97,-0.45,0.04
2100839977,-0.97,-0.45,0.04
2100841976,-0.97,-0.45,0.04
2100843978,-0.97,-0.45,0.04
2100845979,-0.98,-0.43,0.02
2100847974,-0.98,-0.43,0.02
2100849975,-0.98,-0.43,0.02
2100852136,-0.98,-0.43,0.02
2100854009,-0.98,-0.43,0.02
2100856005,-1.00,-0.43,0.01
2100858006,-1.00,-0.43,0.01
2100860005,-1.00,-0.43,0.01
2100862006,-1.00,-0.43,0.01
2100864010,-1.00,-0.43,0.01
2100865980,-0.99,-0.42,0.00
2100867979,-0.99,-0.42,0.00
2100869978,-0.99,-0.42,0.00
2100871978,-0.99,-0.42,0.00
2100873999,-0.99,-0.42,0.00
2100876111,-0.98,-0.43,0.02
2100877986,-0.98,-0.43,0.02
2100879976,-0.98,-0.43,0.02
2100881976,-0.98,-0.43,0.02
2100883979,-0.98,-0.43,0.02
2100885977,-0.95,-0.44,0.01
2100887982,-0.95,-0.44,0.01
2100889990,-0.95,-0.44,0.01
2100892018,-0.95,-0.44,0.01
2100894114,-0.95,-0.44,0.01
2100896040,-0.95,-0.42,-0.01
2100898038,-0.95,-0.42,-0.01
2100900008,-0.95,-0.42,-0.01
2100902125,-0.95,-0.42,-0.01
2100904009,-0.95,-0.42,-0.01
2100906006,-0.93,-0.41,-0.02
2100908013,-0.93,-0.41,-0.02
2100909978,-0.93,-0.41,-0.02
2100911976,-0.93,-0.41,-0.02
2100913976,-0.93,-0.41,-0.02
2100915974,-0.91,-0.38,-0.01
2100917984,-0.91,-0.38,-0.01
2100919980,-0.91,-0.38,-0.01
2100921980,-0.91,-0.38,-0.01
2100923979,-0.91,-0.38,-0.01
2100926080,-0.87,-0.36,-0.02
2100927987,-0.87,-0.36,-0.02
2100929980,-0.87,-0.36,-0.02
2100932014,-0.87,-0.36,-0.02
2100934008,-0.87,-0.36,-0.02
2100936008,-0.87,-0.34,-0.04
2100938005,-0.87,-0.34,-0.04
2100940006,-0.87,-0.34,-0.04
2100942005,-0.87,-0.34,-0.04
2100944007,-0.87,-0.34,-0.04
2100946074,-0.87,-0.29,-0.01
2100948018,-0.87,-0.29,-0.01
2100949979,-0.87,-0.29,-0.01
2100952096,-0.87,-0.29,-0.01
2100953992,-0.87,-0.29,-0.01
2100955981,-0.86,-0.29,-0.02
2100957980,-0.86,-0.29,-0.02
2100959979,-0.86,-0.29,-0.02
2100961979,-0.86,-0.29,-0.02
2100963979,-0.86,-0.29,-0.02
2100965978,-0.88,-0.25,-0.05
2100967975,-0.88,-0.25,-0.05
2100969979,-0.88,-0.25,-0.05
2100972023,-0.88,-0.25,-0.05
2100974007,-0.88,-0.25,-0.05
2100976104,-0.88,-0.25,-0.05
2100978055,-0.90,-0.24,-0.07
2100980009,-0.90,-0.24,-0.07
2100982009,-0.90,-0.24,-0.07
2100984008,-0.90,-0.24,-0.07
2100985997,-0.90,-0.24,-0.07
2100987981,-0.92,-0.23,-0.08
2100989987,-0.92,-0.23,-0.08
2100991976,-0.92,-0.23,-0.08
2100993978,-0.92,-0.23,-0.08
2100995992,-0.92,-0.23,-0.08
2100998011,-0.93,-0.22,-0.10
2100999979,-0.93,-0.22,-0.10
2101002093,-0.93,-0.22,-0.10
2101003979,-0.93,-0.22,-0.10
2101005974,-0.93,-0.22,-0.10
2101007975,-0.90,-0.22,-0.11
2101009977,-0.90,-0.22,-0.11
2101012021,-0.90,-0.22,-0.11
2101014009,-0.90,-0.22,-0.11
2101016028,-0.90,-0.22,-0.11
2101018067,-0.89,-0.22,-0.12
2101020042,-0.89,-0.22,-0.12
2101022005,-0.89,-0.22,-0.12
2101024009,-0.89,-0.22,-0.12
2101026117,-0.89,-0.22,-0.12
2101027989,-0.89,-0.23,-0.15
2101029981,-0.89,-0.23,-0.15
2101031978,-0.89,-0.23,-0.15
2101033980,-0.89,-0.23,-0.15
2101035976,-0.89,-0.23,-0.15
2101037976,-0.88,-0.23,-0.15
2101039981,-0.88,-0.23,-0.15
2101041979,-0.88,-0.23,-0.15
2101043979,-0.88,-0.23,-0.15
2101045980,-0.88,-0.23,-0.15
2101047977,-0.89,-0.25,-0.16
2101049976,-0.89,-0.25,-0.16
2101052116,-0.89,-0.25,-0.16
2101054009,-0.89,-0.25,-0.16
2101056009,-0.89,-0.25,-0.16
2101058005,-0.90,-0.23,-0.17
2101060010,-0.90,-0.23,-0.17
2101062009,-0.90,-0.23,-0.17
2101064012,-0.90,-0.23,-0.17
2101065980,-0.90,-0.23,-0.17
2101067979,-0.89,-0.22,-0.14
2101069980,-0.89,-0.22,-0.14
2101071979,-0.89,-0.22,-0.14
2101073979,-0.89,-0.22,-0.14
2101076080,-0.89,-0.22,-0.14
2101077989,-0.91,-0.23,-0.17
2101080018,-0.91,-0.23,-0.17
2101082044,-0.91,-0.23,-0.17
2101084019,-0.91,-0.23,-0.17
2101085985,-0.91,-0.23,-0.17
2101087979,-0.94,-0.23,-0.18
2101089988,-0.94,-0.23,-0.18
2101092022,-0.94,-0.23,-0.18
2101094008,-0.94,-0.23,-0.18
2101096010,-0.94,-0.23,-0.18
2101098034,-0.95,-0.25,-0.15
2101100006,-0.95,-0.25,-0.15
2101102124,-0.95,-0.25,-0.15
2101104013,-0.95,-0.25,-0.15
2101105977,-0.95,-0.25,-0.15
2101107978,-0.95,-0.26,-0.16
2101109979,-0.95,-0.26,-0.16
2101111976,-0.95,-0.26,-0.16
2101113981,-0.95,-0.26,-0.16
2101115980,-0.95,-0.26,-0.16
2101117979,-0.95,-0.27,-0.16
2101119979,-0.95,-0.27,-0.16
2101121985,-0.95,-0.27,-0.16
2101123980,-0.95,-0.27,-0.16
2101126076,-0.95,-0.27,-0.16
2101127987,-0.97,-0.30,-0.18
2101129978,-0.97,-0.30,-0.18
2101132014,-0.97,-0.30,-0.18
2101134009,-0.97,-0.30,-0.18
2101136008,-0.97,-0.30,-0.18
2101138010,-0.95,-0.30,-0.14
2101140012,-0.95,-0.30,-0.14
2101142045,-0.95,-0.30,-0.14
2101144070,-0.95,-0.30,-0.14
2101146020,-0.95,-0.30,-0.14
