timestamp,accX,accY,accZ
2118846053,-0.88,-0.49,0.11
2118847991,-0.87,-0.51,0.03
2118849990,-0.87,-0.51,0.03
2118852106,-0.87,-0.51,0.03
2118853991,-0.87,-0.51,0.03
2118855987,-0.87,-0.51,0.03
2118857990,-0.88,-0.50,0.02
2118859991,-0.88,-0.50,0.02
2118861986,-0.88,-0.50,0.02
2118863990,-0.88,-0.50,0.02
2118865987,-0.88,-0.50,0.02
2118867991,-0.87,-0.48,0.01
2118869986,-0.87,-0.48,0.01
2118871986,-0.87,-0.48,0.01
2118873986,-0.87,-0.48,0.01
2118876063,-0.87,-0.48,0.01
2118877996,-0.88,-0.44,0.01
2118879992,-0.88,-0.44,0.01
2118881987,-0.88,-0.44,0.01
2118883990,-0.88,-0.44,0.01
2118886050,-0.88,-0.44,0.01
2118888032,-0.89,-0.46,0.01
2118890014,-0.89,-0.46,0.01
2118892009,-0.89,-0.46,0.01
2118894010,-0.89,-0.46,0.01
2118896013,-0.89,-0.46,0.01
2118898053,-0.88,-0.48,0.00
2118900009,-0.88,-0.48,0.00
2118902107,-0.88,-0.48,0.00
2118903991,-0.88,-0.48,0.00
2118905989,-0.88,-0.48,0.00
2118908023,-0.88,-0.49,0.00
2118910001,-0.88,-0.49,0.00
2118911991,-0.88,-0.49,0.00
2118913984,-0.88,-0.49,0.00
2118915986,-0.88,-0.49,0.00
2118917984,-0.88,-0.49,0.00
2118919984,-0.88,-0.49,0.01
2118921986,-0.88,-0.49,0.01
2118923984,-0.88,-0.49,0.01
2118926112,-0.88,-0.49,0.01
2118928010,-0.88,-0.49,0.01
2118930010,-0.88,-0.49,0.00
2118932029,-0.88,-0.49,0.00
2118934059,-0.88,-0.49,0.00
2118936041,-0.88,-0.49,0.00
2118938013,-0.88,-0.49,0.00
2118940016,-0.88,-0.48,0.01
2118942016,-0.88,-0.48,0.01
2118943987,-0.88,-0.48,0.01
2118945987,-0.88,-0.48,0.01
2118947990,-0.88,-0.48,0.01
2118949992,-0.88,-0.48,0.01
2118952107,-0.88,-0.48,0.01
2118953987,-0.88,-0.48,0.01
2118955997,-0.88,-0.48,0.01
2118957991,-0.88,-0.48,0.01
2118959990,-0.88,-0.48,0.01
2118961986,-0.88,-0.48,0.01
2118963990,-0.88,-0.48,0.01
2118966021,-0.88,-0.48,0.01
2118968014,-0.88,-0.48,0.01
2118970010,-0.87,-0.48,0.01
2118972015,-0.87,-0.48,0.01
2118974016,-0.87,-0.48,0.01
2118976110,-0.87,-0.48,0.01
2118978016,-0.87,-0.48,0.01
2118980074,-0.88,-0.48,0.01
2118982023,-0.88,-0.48,0.01
2118983989,-0.88,-0.48,0.01
2118985992,-0.88,-0.48,0.01
2118987990,-0.88,-0.48,0.01
2118989995,-0.87,-0.49,0.01
2118991989,-0.87,-0.49,0.01
2118993992,-0.87,-0.49,0.01
2118995999,-0.87,-0.49,0.01
2118997996,-0.87,-0.49,0.01
2119000022,-0.88,-0.48,0.01
2119002105,-0.88,-0.48,0.01
2119003989,-0.88,-0.48,0.01
2119006027,-0.88,-0.48,0.01
2119008050,-0.88,-0.48,0.01
2119010011,-0.88,-0.48,0.01
2119012013,-0.88,-0.48,0.01
2119014014,-0.88,-0.48,0.01
2119016011,-0.88,-0.48,0.01
2119018009,-0.88,-0.48,0.01
2119020012,-0.88,-0.49,0.01
2119021984,-0.88,-0.49,0.01
2119023992,-0.88,-0.49,0.01
2119026102,-0.88,-0.49,0.01
2119028076,-0.88,-0.49,0.01
2119030028,-0.88,-0.49,0.00
2119031987,-0.88,-0.49,0.00
2119033990,-0.88,-0.49,0.00
2119035991,-0.88,-0.49,0.00
2119037991,-0.88,-0.49,0.00
2119039992,-0.87,-0.49,0.01
2119041998,-0.87,-0.49,0.01
2119043992,-0.87,-0.49,0.01
2119046028,-0.87,-0.49,0.01
2119048013,-0.87,-0.49,0.01
2119050014,-0.88,-0.49,0.00
2119052132,-0.88,-0.49,0.00
2119054011,-0.88,-0.49,0.00
2119056013,-0.88,-0.49,0.00
2119058014,-0.88,-0.49,0.00
2119060009,-0.88,-0.48,0.01
2119061990,-0.88,-0.48,0.01
2119063989,-0.88,-0.48,0.01
2119065989,-0.88,-0.48,0.01
2119067990,-0.88,-0.48,0.01
2119069990,-0.88,-0.49,0.00
2119071993,-0.88,-0.49,0.00
2119074124,-0.88,-0.49,0.00
2119076122,-0.88,-0.49,0.00
2119077998,-0.88,-0.49,0.00
2119079990,-0.88,-0.48,0.00
2119081990,-0.88,-0.48,0.00
2119083991,-0.88,-0.48,0.00
2119086028,-0.88,-0.48,0.00
2119088015,-0.88,-0.48,0.00
2119090020,-0.88,-0.48,0.01
2119092013,-0.88,-0.48,0.01
2119094018,-0.88,-0.48,0.01
2119096022,-0.88,-0.48,0.01
2119098014,-0.88,-0.48,0.01
2119100011,-0.88,-0.48,0.00
2119102141,-0.88,-0.48,0.00
2119103991,-0.88,-0.48,0.00
2119105992,-0.88,-0.48,0.00
2119108022,-0.88,-0.48,0.00
2119109990,-0.88,-0.48,0.00
2119111987,-0.88,-0.48,0.01
2119113990,-0.88,-0.48,0.01
2119115991,-0.88,-0.48,0.01
2119117985,-0.88,-0.48,0.01
2119120058,-0.88,-0.48,0.01
2119122033,-0.88,-0.48,0.01
2119123990,-0.88,-0.48,0.01
2119126125,-0.88,-0.48,0.01
2119128014,-0.88,-0.48,0.01
2119130015,-0.88,-0.48,0.01
2119132019,-0.88,-0.48,0.01
2119134015,-0.88,-0.48,0.01
2119136009,-0.88,-0.48,0.01
2119138012,-0.88,-0.48,0.01
2119139993,-0.88,-0.48,0.01
2119141991,-0.88,-0.48,0.01
2119143987,-0.88,-0.48,0.01
2119145991,-0.88,-0.48,0.01
2119147991,-0.88,-0.48,0.01
2119149992,-0.88,-0.48,0.01
2119152085,-0.88,-0.48,0.01
2119153990,-0.88,-0.48,0.01
2119155987,-0.88,-0.48,0.01
2119157990,-0.88,-0.48,0.01
2119159989,-0.88,-0.48,0.01
2119161990,-0.88,-0.48,0.01
2119163993,-0.88,-0.48,0.01
2119166127,-0.88,-0.48,0.01
2119168055,-0.88,-0.48,0.01
2119170011,-0.88,-0.48,0.01
2119172017,-0.88,-0.48,0.01
2119174014,-0.88,-0.48,0.01
2119176117,-0.88,-0.48,0.01
2119178023,-0.88,-0.48,0.01
2119180015,-0.88,-0.48,0.01
2119182016,-0.88,-0.48,0.02
2119184012,-0.88,-0.48,0.02
2119185991,-0.88,-0.48,0.02
2119187994,-0.88,-0.48,0.02
2119189995,-0.88,-0.48,0.02
2119191991,-0.88,-0.48,0.01
2119193991,-0.88,-0.48,0.01
2119195996,-0.88,-0.48,0.01
2119197985,-0.88,-0.48,0.01
2119199988,-0.88,-0.48,0.01
2119202090,-0.88,-0.48,0.02
2119204037,-0.88,-0.48,0.02
2119206014,-0.88,-0.48,0.02
2119208059,-0.88,-0.48,0.02
2119210011,-0.88,-0.48,0.02
2119212035,-0.88,-0.48,0.01
2119214072,-0.88,-0.48,0.01
2119216049,-0.88,-0.48,0.01
2119218010,-0.88,-0.48,0.01
2119220010,-0.88,-0.48,0.01
2119222014,-0.88,-0.48,0.01
2119224011,-0.88,-0.48,0.01
2119226112,-0.88,-0.48,0.01
2119227999,-0.88,-0.48,0.01
2119229990,-0.88,-0.48,0.01
2119231986,-0.88,-0.48,0.01
2119233990,-0.88,-0.48,0.01
2119235990,-0.88,-0.48,0.01
2119237989,-0.88,-0.48,0.01
2119239992,-0.88,-0.48,0.01
2119241990,-0.88,-0.48,0.01
2119243991,-0.88,-0.48,0.01
2119245992,-0.88,-0.48,0.01
2119248018,-0.88,-0.48,0.01
2119250010,-0.88,-0.48,0.01
2119252114,-0.88,-0.48,0.00
2119254013,-0.88,-0.48,0.00
2119256018,-0.88,-0.48,0.00
2119258012,-0.88,-0.48,0.00
2119260070,-0.88,-0.48,0.00
2119262037,-0.88,-0.48,0.00
2119264021,-0.88,-0.48,0.00
2119265987,-0.88,-0.48,0.00
2119267991,-0.88,-0.48,0.00
2119269991,-0.88,-0.48,0.00
2119271986,-0.88,-0.48,0.00
2119273991,-0.88,-0.48,0.00
2119276104,-0.88,-0.48,0.00
2119277994,-0.88,-0.48,0.00
2119279990,-0.88,-0.48,0.00
2119281990,-0.87,-0.48,0.01
2119283991,-0.87,-0.48,0.01
2119285992,-0.87,-0.48,0.01
2119288022,-0.87,-0.48,0.01
2119290015,-0.87,-0.48,0.01
2119292010,-0.88,-0.48,0.01
2119294017,-0.88,-0.48,0.01
2119296012,-0.88,-0.48,0.01
2119298013,-0.88,-0.48,0.01
2119300014,-0.88,-0.48,0.01
2119302089,-0.88,-0.48,0.01
2119303985,-0.88,-0.49,0.01
2119306001,-0.88,-0.49,0.01
2119308069,-0.88,-0.49,0.01
2119310040,-0.88,-0.49,0.01
2119311991,-0.88,-0.49,0.01
2119314000,-0.88,-0.49,0.02
2119315986,-0.88,-0.49,0.02
2119317985,-0.88,-0.49,0.02
2119319991,-0.88,-0.49,0.02
2119321986,-0.88,-0.49,0.02
2119323990,-0.88,-0.49,0.01
2119326107,-0.88,-0.49,0.01
2119328025,-0.88,-0.49,0.01
2119330016,-0.88,-0.49,0.01
2119332016,-0.88,-0.49,0.01
2119334019,-0.88,-0.48,0.01
2119336014,-0.88,-0.48,0.01
2119338019,-0.88,-0.48,0.01
2119340014,-0.88,-0.48,0.01
2119342009,-0.88,-0.48,0.01
2119343985,-0.87,-0.49,0.01
2119345991,-0.87,-0.49,0.01
2119347990,-0.87,-0.49,0.01
2119349992,-0.87,-0.49,0.01
2119352088,-0.87,-0.49,0.01
2119353991,-0.88,-0.48,0.01
2119356082,-0.88,-0.48,0.01
2119358025,-0.88,-0.48,0.01
2119359991,-0.88,-0.48,0.01
2119361989,-0.88,-0.48,0.01
2119363986,-0.87,-0.48,0.00
2119365987,-0.87,-0.48,0.00
2119368029,-0.87,-0.48,0.00
2119370021,-0.87,-0.48,0.00
2119372012,-0.87,-0.48,0.00
2119374016,-0.88,-0.48,0.00
2119376124,-0.88,-0.48,0.00
2119378016,-0.88,-0.48,0.00
2119380014,-0.88,-0.48,0.00
2119381992,-0.88,-0.48,0.00
2119383986,-0.88,-0.48,0.00
2119385991,-0.88,-0.48,0.00
2119387993,-0.88,-0.48,0.00
2119389996,-0.88,-0.48,0.00
2119391990,-0.88,-0.48,0.00
2119393990,-0.88,-0.48,0.00
2119395996,-0.88,-0.48,0.00
2119397991,-0.88,-0.48,0.00
2119399990,-0.88,-0.48,0.00
2119402088,-0.88,-0.48,0.00
2119403990,-0.87,-0.49,0.00
2119405986,-0.87,-0.49,0.00
2119408018,-0.87,-0.49,0.00
2119410058,-0.87,-0.49,0.00
2119412013,-0.87,-0.49,0.00
2119414075,-0.88,-0.48,0.00
2119416071,-0.88,-0.48,0.00
2119418039,-0.88,-0.48,0.00
2119420015,-0.88,-0.48,0.00
2119422012,-0.88,-0.48,0.00
2119424009,-0.88,-0.48,0.00
2119426128,-0.88,-0.48,0.00
2119427994,-0.88,-0.48,0.00
2119429990,-0.88,-0.48,0.00
2119431990,-0.88,-0.48,0.00
2119433990,-0.87,-0.48,0.01
2119435992,-0.87,-0.48,0.01
2119437987,-0.87,-0.48,0.01
2119439991,-0.87,-0.48,0.01
2119441990,-0.87,-0.48,0.01
2119443982,-0.88,-0.48,0.00
2119445981,-0.88,-0.48,0.00
2119448021,-0.88,-0.48,0.00
2119450013,-0.88,-0.48,0.00
2119452111,-0.88,-0.48,0.00
2119454011,-0.88,-0.48,0.01
2119456018,-0.88,-0.48,0.01
2119458011,-0.88,-0.48,0.01
2119460014,-0.88,-0.48,0.01
2119461986,-0.88,-0.48,0.01
2119463986,-0.88,-0.48,0.01
2119465990,-0.88,-0.48,0.01
2119467991,-0.88,-0.48,0.01
2119469991,-0.88,-0.48,0.01
2119471992,-0.88,-0.48,0.01
2119473990,-0.88,-0.48,0.00
2119476092,-0.88,-0.48,0.00
2119477994,-0.88,-0.48,0.00
2119479990,-0.88,-0.48,0.00
2119481990,-0.88,-0.48,0.00
2119484060,-0.89,-0.48,0.02
2119486038,-0.89,-0.48,0.02
2119488022,-0.89,-0.48,0.02
2119490020,-0.89,-0.48,0.02
2119492009,-0.89,-0.48,0.02
2119494016,-0.89,-0.48,0.02
2119496014,-0.88,-0.48,0.02
2119498010,-0.88,-0.48,0.02
2119500014,-0.88,-0.48,0.02
2119502111,-0.88,-0.48,0.02
2119503986,-0.88,-0.48,0.02
2119505992,-0.88,-0.48,0.01
2119507987,-0.88,-0.48,0.01
2119509996,-0.88,-0.48,0.01
2119512033,-0.88,-0.48,0.01
2119514023,-0.88,-0.48,0.01
2119515991,-0.88,-0.47,0.02
2119517990,-0.88,-0.47,0.02
2119519991,-0.88,-0.47,0.02
2119521987,-0.88,-0.47,0.02
2119523987,-0.88,-0.47,0.02
2119526090,-0.87,-0.48,0.02
2119528032,-0.87,-0.48,0.02
2119530014,-0.87,-0.48,0.02
2119532014,-0.87,-0.48,0.02
2119534009,-0.87,-0.48,0.02
2119536014,-0.88,-0.47,0.01
2119538011,-0.88,-0.47,0.01
2119540075,-0.88,-0.47,0.01
2119542058,-0.88,-0.47,0.01
2119544012,-0.88,-0.47,0.01
2119545999,-0.88,-0.48,0.02
2119547990,-0.88,-0.48,0.02
2119549991,-0.88,-0.48,0.02
2119552110,-0.88,-0.48,0.02
2119553989,-0.88,-0.48,0.02
2119555991,-0.88,-0.48,0.01
2119557991,-0.88,-0.48,0.01
2119559992,-0.88,-0.48,0.01
2119561986,-0.88,-0.48,0.01
2119563991,-0.88,-0.48,0.01
2119565990,-0.88,-0.47,0.02
2119568014,-0.88,-0.47,0.02
2119570012,-0.88,-0.47,0.02
2119572010,-0.88,-0.47,0.02
2119574016,-0.88,-0.47,0.02
2119576107,-0.88,-0.47,0.02
2119578019,-0.88,-0.47,0.02
2119580008,-0.88,-0.47,0.02
2119581991,-0.88,-0.47,0.02
2119583992,-0.88,-0.47,0.02
2119585992,-0.88,-0.47,0.02
2119588124,-0.88,-0.47,0.02
2119590024,-0.88,-0.47,0.02
2119591990,-0.88,-0.47,0.02
2119593991,-0.88,-0.47,0.02
2119595995,-0.88,-0.48,0.01
2119597991,-0.88,-0.48,0.01
2119599992,-0.88,-0.48,0.01
2119602112,-0.88,-0.48,0.01
2119603987,-0.88,-0.48,0.01
2119605990,-0.88,-0.47,0.02
2119608028,-0.88,-0.47,0.02
2119610008,-0.88,-0.47,0.02
2119612011,-0.88,-0.47,0.02
2119614065,-0.88,-0.47,0.02
2119616041,-0.88,-0.48,0.00
2119618010,-0.88,-0.48,0.00
2119620013,-0.88,-0.48,0.00
2119622083,-0.88,-0.48,0.00
2119623984,-0.88,-0.48,0.00
2119626101,-0.88,-0.47,0.01
2119627995,-0.88,-0.47,0.01
2119629984,-0.88,-0.47,0.01
2119632045,-0.88,-0.47,0.01
2119634032,-0.88,-0.47,0.01
2119635990,-0.88,-0.48,0.00
2119637986,-0.88,-0.48,0.00
2119639985,-0.88,-0.48,0.00
2119641985,-0.88,-0.48,0.00
2119643986,-0.88,-0.48,0.00
2119645991,-0.88,-0.48,-0.00
2119648020,-0.88,-0.48,-0.00
2119650008,-0.88,-0.48,-0.00
2119652123,-0.88,-0.48,-0.00
2119654012,-0.88,-0.48,-0.00
2119656010,-0.88,-0.48,-0.00
2119658013,-0.88,-0.48,-0.00
2119660009,-0.88,-0.48,-0.00
2119661991,-0.88,-0.48,-0.00
2119663992,-0.88,-0.48,-0.00
2119665992,-0.88,-0.48,-0.00
2119667993,-0.88,-0.48,-0.00
2119669991,-0.88,-0.48,-0.00
2119671992,-0.88,-0.48,-0.00
2119673991,-0.88,-0.48,-0.00
2119676088,-0.88,-0.48,-0.00
2119678050,-0.87,-0.49,0.00
2119680027,-0.87,-0.49,0.00
2119681987,-0.87,-0.49,0.00
2119683991,-0.87,-0.49,0.00
2119685991,-0.87,-0.49,0.00
2119688024,-0.88,-0.50,-0.01
2119690014,-0.88,-0.50,-0.01
2119692010,-0.88,-0.50,-0.01
2119694020,-0.88,-0.50,-0.01
2119696024,-0.88,-0.50,-0.01
2119698016,-0.88,-0.49,0.00
2119700008,-0.88,-0.49,0.00
2119702126,-0.88,-0.49,0.00
2119703994,-0.88,-0.49,0.00
2119705996,-0.88,-0.49,0.00
2119707991,-0.88,-0.50,-0.00
2119709983,-0.88,-0.50,-0.00
2119711990,-0.88,-0.50,-0.00
2119713989,-0.88,-0.50,-0.00
2119716069,-0.88,-0.50,-0.00
2119718003,-0.87,-0.50,0.00
2119719986,-0.87,-0.50,0.00
2119721990,-0.87,-0.50,0.00
2119723991,-0.87,-0.50,0.00
2119726120,-0.87,-0.50,0.00
2119728046,-0.87,-0.50,0.00
2119730022,-0.87,-0.50,0.00
2119732015,-0.87,-0.50,0.00
2119734015,-0.87,-0.50,0.00
2119736012,-0.87,-0.50,0.00
2119738014,-0.87,-0.50,0.00
2119740020,-0.87,-0.50,0.00
2119742009,-0.87,-0.50,0.00
2119744009,-0.87,-0.50,0.00
2119745990,-0.87,-0.50,0.00
2119747991,-0.86,-0.50,0.00
2119749989,-0.86,-0.50,0.00
2119752099,-0.86,-0.50,0.00
2119753989,-0.86,-0.50,0.00
2119755991,-0.86,-0.50,0.00
2119757990,-0.88,-0.50,-0.00
2119759984,-0.88,-0.50,-0.00
2119762001,-0.88,-0.50,-0.00
2119763990,-0.88,-0.50,-0.00
2119765991,-0.88,-0.50,-0.00
2119768020,-0.88,-0.49,0.01
2119770010,-0.88,-0.49,0.01
2119772013,-0.88,-0.49,0.01
2119774060,-0.88,-0.49,0.01
2119776125,-0.88,-0.49,0.01
2119778020,-0.88,-0.49,0.00
2119780014,-0.88,-0.49,0.00
2119782016,-0.88,-0.49,0.00
2119784014,-0.88,-0.49,0.00
2119785992,-0.88,-0.49,0.00
2119787993,-0.87,-0.49,0.00
2119789995,-0.87,-0.49,0.00
2119791985,-0.87,-0.49,0.00
2119793992,-0.87,-0.49,0.00
2119795998,-0.87,-0.49,0.00
2119797990,-0.87,-0.49,0.01
2119799992,-0.87,-0.49,0.01
2119802092,-0.87,-0.49,0.01
2119803987,-0.87,-0.49,0.01
2119805990,-0.87,-0.49,0.01
2119808022,-0.88,-0.48,0.00
2119810018,-0.88,-0.48,0.00
2119812013,-0.88,-0.48,0.00
2119814016,-0.88,-0.48,0.00
2119816043,-0.88,-0.48,0.00
2119818043,-0.88,-0.47,0.01
2119820059,-0.88,-0.47,0.01
2119822041,-0.88,-0.47,0.01
2119824018,-0.88,-0.47,0.01
2119826127,-0.88,-0.47,0.01
2119828001,-0.88,-0.48,0.01
2119829992,-0.88,-0.48,0.01
2119831991,-0.88,-0.48,0.01
2119833987,-0.88,-0.48,0.01
2119836000,-0.88,-0.48,0.01
2119837976,-0.88,-0.47,0.01
2119839977,-0.88,-0.47,0.01
2119841977,-0.88,-0.47,0.01
2119843981,-0.88,-0.47,0.01
2119845979,-0.88,-0.47,0.01
2119848009,-0.88,-0.47,0.01
2119850002,-0.88,-0.47,0.01
2119852102,-0.88,-0.47,0.01
2119854006,-0.88,-0.47,0.01
2119856003,-0.88,-0.47,0.01
2119858005,-0.88,-0.47,0.01
2119860005,-0.89,-0.47,0.02
2119861978,-0.89,-0.47,0.02
2119863974,-0.89,-0.47,0.02
2119866044,-0.89,-0.47,0.02
2119868030,-0.89,-0.47,0.02
2119869978,-0.88,-0.47,0.02
2119871977,-0.88,-0.47,0.02
2119873978,-0.88,-0.47,0.02
2119876090,-0.88,-0.47,0.02
2119877986,-0.88,-0.47,0.02
2119879977,-0.88,-0.46,0.04
2119881974,-0.88,-0.46,0.04
2119883976,-0.88,-0.46,0.04
2119885976,-0.88,-0.46,0.04
2119888021,-0.88,-0.46,0.04
2119890011,-0.88,-0.47,0.02
2119892003,-0.88,-0.47,0.02
2119894017,-0.88,-0.47,0.02
2119896012,-0.88,-0.47,0.02
2119898005,-0.88,-0.47,0.02
2119900009,-0.88,-0.46,0.03
2119902082,-0.88,-0.46,0.03
2119903977,-0.88,-0.46,0.03
2119905977,-0.88,-0.46,0.03
2119907979,-0.88,-0.46,0.03
2119909976,-0.88,-0.47,0.02
2119911979,-0.88,-0.47,0.02
2119914032,-0.88,-0.47,0.02
2119916039,-0.88,-0.47,0.02
2119917976,-0.88,-0.47,0.02
2119920024,-0.88,-0.46,0.02
2119922024,-0.88,-0.46,0.02
2119923979,-0.88,-0.46,0.02
2119926093,-0.88,-0.46,0.02
2119928025,-0.88,-0.46,0.02
2119930002,-0.88,-0.46,0.04
2119932003,-0.88,-0.46,0.04
2119934006,-0.88,-0.46,0.04
2119936000,-0.88,-0.46,0.04
2119938004,-0.88,-0.46,0.04
2119940005,-0.89,-0.46,0.02
2119941979,-0.89,-0.46,0.02
2119943978,-0.89,-0.46,0.02
2119945979,-0.89,-0.46,0.02
2119947980,-0.89,-0.46,0.02
2119949976,-0.89,-0.47,0.02
2119951994,-0.89,-0.47,0.02
2119953984,-0.89,-0.47,0.02
2119955990,-0.89,-0.47,0.02
2119957976,-0.89,-0.47,0.02
2119959984,-0.89,-0.46,0.03
2119961977,-0.89,-0.46,0.03
2119963977,-0.89,-0.46,0.03
2119965975,-0.89,-0.46,0.03
2119968011,-0.89,-0.46,0.03
2119970007,-0.88,-0.46,0.02
2119972006,-0.88,-0.46,0.02
2119974007,-0.88,-0.46,0.02
2119976040,-0.88,-0.46,0.02
2119978009,-0.88,-0.46,0.02
2119980013,-0.88,-0.47,0.01
2119981978,-0.88,-0.47,0.01
2119983979,-0.88,-0.47,0.01
2119985978,-0.88,-0.47,0.01
2119987977,-0.88,-0.47,0.01
2119989991,-0.88,-0.47,0.02
2119992006,-0.88,-0.47,0.02
2119993980,-0.88,-0.47,0.02
2119995992,-0.88,-0.47,0.02
2119997974,-0.88,-0.47,0.02
2119999977,-0.88,-0.48,0.01
2120002000,-0.88,-0.48,0.01
2120003980,-0.88,-0.48,0.01
2120005979,-0.88,-0.48,0.01
2120008019,-0.88,-0.48,0.01
2120010004,-0.88,-0.48,0.01
2120012003,-0.88,-0.48,0.01
2120014004,-0.88,-0.48,0.01
2120016034,-0.88,-0.48,0.01
2120018012,-0.88,-0.48,0.01
2120020044,-0.88,-0.49,0.01
2120022004,-0.88,-0.49,0.01
2120023981,-0.88,-0.49,0.01
2120026016,-0.88,-0.49,0.01
2120028036,-0.88,-0.49,0.01
2120029980,-0.88,-0.49,0.01
2120031980,-0.88,-0.49,0.01
2120033976,-0.88,-0.49,0.01
2120035977,-0.88,-0.49,0.01
2120037976,-0.88,-0.49,0.01
2120039975,-0.87,-0.49,0.00
2120041979,-0.87,-0.49,0.00
2120043976,-0.87,-0.49,0.00
2120045977,-0.87,-0.49,0.00
2120048020,-0.87,-0.49,0.00
2120050008,-0.87,-0.49,0.00
2120052032,-0.87,-0.50,-0.00
2120054010,-0.87,-0.50,-0.00
2120056006,-0.87,-0.50,-0.00
2120058008,-0.87,-0.50,-0.00
2120060003,-0.87,-0.50,-0.00
2120062007,-0.88,-0.49,-0.01
2120063979,-0.88,-0.49,-0.01
2120065977,-0.88,-0.49,-0.01
2120067978,-0.88,-0.49,-0.01
2120069980,-0.88,-0.49,-0.01
2120071980,-0.88,-0.50,-0.01
2120073981,-0.88,-0.50,-0.01
2120075996,-0.88,-0.50,-0.01
2120077982,-0.88,-0.50,-0.01
2120079980,-0.88,-0.50,-0.01
2120082110,-0.87,-0.50,-0.01
2120084011,-0.87,-0.50,-0.01
2120085978,-0.87,-0.50,-0.01
2120088018,-0.87,-0.50,-0.01
2120090015,-0.87,-0.50,-0.01
2120092009,-0.87,-0.50,-0.02
2120094012,-0.87,-0.50,-0.02
2120096012,-0.87,-0.50,-0.02
2120098008,-0.87,-0.50,-0.02
2120100008,-0.87,-0.50,-0.02
2120102035,-0.87,-0.50,-0.02
2120103978,-0.87,-0.50,-0.02
2120105980,-0.87,-0.50,-0.02
2120107976,-0.87,-0.50,-0.02
2120109979,-0.87,-0.50,-0.02
2120111976,-0.88,-0.50,-0.01
2120113975,-0.88,-0.50,-0.01
2120115984,-0.88,-0.50,-0.01
2120117980,-0.88,-0.50,-0.01
2120120006,-0.88,-0.50,-0.01
2120121977,-0.87,-0.50,-0.00
2120123976,-0.87,-0.50,-0.00
2120126039,-0.87,-0.50,-0.00
2120128020,-0.87,-0.50,-0.00
2120130000,-0.87,-0.50,-0.00
2120132002,-0.87,-0.50,-0.01
2120134029,-0.87,-0.50,-0.01
2120136056,-0.87,-0.50,-0.01
2120138035,-0.87,-0.50,-0.01
2120140012,-0.87,-0.50,-0.01
2120142007,-0.87,-0.50,-0.00
2120144011,-0.87,-0.50,-0.00
2120145980,-0.87,-0.50,-0.00
2120147981,-0.87,-0.50,-0.00
2120149980,-0.87,-0.50,-0.00
2120152004,-0.87,-0.50,-0.00
2120153978,-0.87,-0.50,-0.00
2120155976,-0.87,-0.50,-0.00
2120157979,-0.87,-0.50,-0.00
2120159984,-0.87,-0.50,-0.00
2120161977,-0.87,-0.49,0.00
2120163980,-0.87,-0.49,0.00
2120165980,-0.87,-0.49,0.00
2120168015,-0.87,-0.49,0.00
2120170005,-0.87,-0.49,0.00
2120172003,-0.88,-0.48,0.01
2120174003,-0.88,-0.48,0.01
2120176016,-0.88,-0.48,0.01
2120178013,-0.88,-0.48,0.01
2120180006,-0.88,-0.48,0.01
2120181977,-0.88,-0.48,0.00
2120183976,-0.88,-0.48,0.00
2120185981,-0.88,-0.48,0.00
2120187982,-0.88,-0.48,0.00
2120189992,-0.88,-0.48,0.00
2120191979,-0.88,-0.48,0.00
2120193993,-0.88,-0.48,0.00
2120196059,-0.88,-0.48,0.00
2120198021,-0.88,-0.48,0.00
2120199981,-0.88,-0.48,0.00
2120202001,-0.88,-0.48,0.01
2120203983,-0.88,-0.48,0.01
2120205989,-0.88,-0.48,0.01
2120208017,-0.88,-0.48,0.01
2120210000,-0.88,-0.48,0.01
2120212002,-0.89,-0.47,0.01
2120214010,-0.89,-0.47,0.01
2120216005,-0.89,-0.47,0.01
2120218001,-0.89,-0.47,0.01
2120220035,-0.89,-0.47,0.01
2120221985,-0.88,-0.47,0.02
2120223978,-0.88,-0.47,0.02
2120226165,-0.88,-0.47,0.02
2120228040,-0.88,-0.47,0.02
2120230033,-0.88,-0.47,0.02
2120231985,-0.88,-0.46,0.02
2120233975,-0.88,-0.46,0.02
2120235974,-0.88,-0.46,0.02
2120237975,-0.88,-0.46,0.02
2120239976,-0.88,-0.46,0.02
2120241974,-0.88,-0.46,0.02
2120243976,-0.89,-0.46,0.02
2120245973,-0.89,-0.46,0.02
2120248022,-0.89,-0.46,0.02
2120250008,-0.89,-0.46,0.02
2120252031,-0.89,-0.46,0.02
2120254002,-0.89,-0.46,0.02
2120256004,-0.89,-0.46,0.02
2120258060,-0.89,-0.46,0.02
2120260048,-0.89,-0.46,0.02
2120262002,-0.89,-0.46,0.02
2120264000,-0.88,-0.46,0.04
2120265975,-0.88,-0.46,0.04
2120267974,-0.88,-0.46,0.04
2120269978,-0.88,-0.46,0.04
2120271976,-0.88,-0.46,0.04
2120273979,-0.88,-0.46,0.03
2120276004,-0.88,-0.46,0.03
2120277985,-0.88,-0.46,0.03
2120279977,-0.88,-0.46,0.03
2120281980,-0.88,-0.46,0.03
2120283979,-0.89,-0.46,0.03
2120285977,-0.89,-0.46,0.03
2120288012,-0.89,-0.46,0.03
2120290009,-0.89,-0.46,0.03
2120292004,-0.89,-0.46,0.03
2120294007,-0.88,-0.46,0.03
2120296010,-0.88,-0.46,0.03
2120298009,-0.88,-0.46,0.03
2120300005,-0.88,-0.46,0.03
2120301999,-0.88,-0.46,0.03
2120303976,-0.89,-0.46,0.02
2120305980,-0.89,-0.46,0.02
2120307980,-0.89,-0.46,0.02
2120309976,-0.89,-0.46,0.02
2120311975,-0.89,-0.46,0.02
2120313980,-0.88,-0.47,0.03
2120315977,-0.88,-0.47,0.03
2120318048,-0.88,-0.47,0.03
2120320047,-0.88,-0.47,0.03
2120321984,-0.88,-0.47,0.03
2120323991,-0.88,-0.47,0.02
2120326007,-0.88,-0.47,0.02
2120328023,-0.88,-0.47,0.02
2120330035,-0.88,-0.47,0.02
2120332060,-0.88,-0.47,0.02
2120334006,-0.88,-0.46,0.02
2120336007,-0.88,-0.46,0.02
2120338004,-0.88,-0.46,0.02
2120340002,-0.88,-0.46,0.02
2120342000,-0.88,-0.46,0.02
2120343979,-0.88,-0.47,0.02
2120345980,-0.88,-0.47,0.02
2120347976,-0.88,-0.47,0.02
2120349980,-0.88,-0.47,0.02
2120352007,-0.88,-0.47,0.02
2120353980,-0.88,-0.48,0.01
2120355979,-0.88,-0.48,0.01
2120357979,-0.88,-0.48,0.01
2120359978,-0.88,-0.48,0.01
2120361979,-0.88,-0.48,0.01
2120363979,-0.89,-0.47,0.02
2120365975,-0.89,-0.47,0.02
2120368011,-0.89,-0.47,0.02
2120370005,-0.89,-0.47,0.02
2120372001,-0.89,-0.47,0.02
2120374009,-0.88,-0.48,0.00
2120376019,-0.88,-0.48,0.00
2120378012,-0.88,-0.48,0.00
2120380006,-0.88,-0.48,0.00
2120381977,-0.88,-0.48,0.00
2120383980,-0.88,-0.48,0.00
2120385976,-0.88,-0.48,0.00
2120387982,-0.88,-0.48,0.00
2120389991,-0.88,-0.48,0.00
2120391974,-0.88,-0.48,0.00
2120393980,-0.88,-0.49,0.01
2120395993,-0.88,-0.49,0.01
2120397974,-0.88,-0.49,0.01
2120399975,-0.88,-0.49,0.01
2120401997,-0.88,-0.49,0.01
2120403976,-0.88,-0.49,0.00
2120405976,-0.88,-0.49,0.00
2120408013,-0.88,-0.49,0.00
2120410005,-0.88,-0.49,0.00
2120412007,-0.88,-0.49,0.00
2120414005,-0.87,-0.49,0.00
2120416059,-0.87,-0.49,0.00
2120418041,-0.87,-0.49,0.00
2120420009,-0.87,-0.49,0.00
2120422002,-0.87,-0.49,0.00
2120424014,-0.88,-0.49,-0.00
2120426027,-0.88,-0.49,-0.00
2120428018,-0.88,-0.49,-0.00
2120429978,-0.88,-0.49,-0.00
2120432021,-0.88,-0.49,-0.00
2120434013,-0.88,-0.49,-0.00
2120435975,-0.87,-0.49,-0.00
2120437975,-0.87,-0.49,-0.00
2120439977,-0.87,-0.49,-0.00
2120441974,-0.87,-0.49,-0.00
2120443975,-0.87,-0.49,-0.00
2120445976,-0.88,-0.49,-0.01
2120448020,-0.88,-0.49,-0.01
2120450003,-0.88,-0.49,-0.01
2120452033,-0.88,-0.49,-0.01
2120454006,-0.88,-0.49,-0.01
2120456013,-0.88,-0.49,-0.01
2120458005,-0.88,-0.49,-0.01
2120460009,-0.88,-0.49,-0.01
2120461984,-0.88,-0.49,-0.01
2120463984,-0.88,-0.49,-0.01
2120465979,-0.87,-0.49,-0.01
2120467978,-0.87,-0.49,-0.01
2120469980,-0.87,-0.49,-0.01
2120471975,-0.87,-0.49,-0.01
2120473977,-0.87,-0.49,-0.01
2120476002,-0.88,-0.50,-0.01
2120477985,-0.88,-0.50,-0.01
2120479980,-0.88,-0.50,-0.01
2120482038,-0.88,-0.50,-0.01
2120484031,-0.88,-0.50,-0.01
2120485973,-0.87,-0.50,-0.00
2120488015,-0.87,-0.50,-0.00
2120490007,-0.87,-0.50,-0.00
2120492021,-0.87,-0.50,-0.00
2120494007,-0.87,-0.50,-0.00
2120496009,-0.87,-0.50,-0.01
2120498004,-0.87,-0.50,-0.01
2120500002,-0.87,-0.50,-0.01
2120502035,-0.87,-0.50,-0.01
2120503975,-0.87,-0.50,-0.01
2120505973,-0.87,-0.49,-0.00
2120507975,-0.87,-0.49,-0.00
2120509974,-0.87,-0.49,-0.00
2120511975,-0.87,-0.49,-0.00
2120513979,-0.87,-0.49,-0.00
2120515980,-0.87,-0.49,0.00
2120517979,-0.87,-0.49,0.00
2120519974,-0.87,-0.49,0.00
2120521978,-0.87,-0.49,0.00
2120524010,-0.87,-0.49,0.00
2120525996,-0.87,-0.50,0.00
2120528019,-0.87,-0.50,0.00
2120530006,-0.87,-0.50,0.00
2120532002,-0.87,-0.50,0.00
2120534003,-0.87,-0.50,0.00
2120536059,-0.87,-0.50,0.01
2120538001,-0.87,-0.50,0.01
2120540007,-0.87,-0.50,0.01
2120542037,-0.87,-0.50,0.01
2120544030,-0.87,-0.50,0.01
2120545976,-0.87,-0.50,0.00
2120547975,-0.87,-0.50,0.00
2120549986,-0.87,-0.50,0.00
2120552002,-0.87,-0.50,0.00
2120553977,-0.87,-0.50,0.00
2120555974,-0.88,-0.49,0.01
2120557979,-0.88,-0.49,0.01
2120559976,-0.88,-0.49,0.01
2120561976,-0.88,-0.49,0.01
2120563976,-0.88,-0.49,0.01
2120565976,-0.88,-0.49,0.01
2120568018,-0.88,-0.49,0.01
2120570004,-0.88,-0.49,0.01
2120572002,-0.88,-0.49,0.01
2120574003,-0.88,-0.49,0.01
2120576016,-0.87,-0.49,0.00
2120578011,-0.87,-0.49,0.00
2120580010,-0.87,-0.49,0.00
2120581977,-0.87,-0.49,0.00
2120583984,-0.87,-0.49,0.00
2120585979,-0.88,-0.48,0.01
2120587981,-0.88,-0.48,0.01
2120589989,-0.88,-0.48,0.01
2120591975,-0.88,-0.48,0.01
2120593979,-0.88,-0.48,0.01
2120595990,-0.88,-0.47,0.01
2120598108,-0.88,-0.47,0.01
2120600016,-0.88,-0.47,0.01
2120602001,-0.88,-0.47,0.01
2120603977,-0.88,-0.47,0.01
2120605977,-0.88,-0.47,0.02
2120608023,-0.88,-0.47,0.02
2120610006,-0.88,-0.47,0.02
2120611999,-0.88,-0.47,0.02
2120614011,-0.88,-0.47,0.02
2120616008,-0.88,-0.47,0.02
2120618003,-0.89,-0.46,0.02
2120620009,-0.89,-0.46,0.02
2120622056,-0.89,-0.46,0.02
2120624012,-0.89,-0.46,0.02
2120626001,-0.89,-0.46,0.02
2120627982,-0.89,-0.46,0.01
2120629981,-0.89,-0.46,0.01
2120631979,-0.89,-0.46,0.01
2120633978,-0.89,-0.46,0.01
2120636027,-0.89,-0.46,0.01
2120638029,-0.89,-0.46,0.03
2120639979,-0.89,-0.46,0.03
2120641977,-0.89,-0.46,0.03
2120643977,-0.89,-0.46,0.03
2120646080,-0.89,-0.46,0.03
2120648039,-0.88,-0.46,0.02
2120650003,-0.88,-0.46,0.02
2120652128,-0.88,-0.46,0.02
2120654010,-0.88,-0.46,0.02
2120656005,-0.88,-0.46,0.02
2120658006,-0.89,-0.46,0.02
2120660005,-0.89,-0.46,0.02
2120661978,-0.89,-0.46,0.02
2120663980,-0.89,-0.46,0.02
2120665979,-0.89,-0.46,0.02
2120667981,-0.88,-0.46,0.02
2120669980,-0.88,-0.46,0.02
2120671980,-0.88,-0.46,0.02
2120673981,-0.88,-0.46,0.02
2120676002,-0.88,-0.46,0.02
2120677986,-0.89,-0.46,0.02
2120679987,-0.89,-0.46,0.02
2120681984,-0.89,-0.46,0.02
2120683985,-0.89,-0.46,0.02
2120685984,-0.89,-0.46,0.02
2120688013,-0.89,-0.46,0.04
2120690036,-0.89,-0.46,0.04
2120692059,-0.89,-0.46,0.04
2120694044,-0.89,-0.46,0.04
2120696014,-0.89,-0.46,0.04
2120698005,-0.88,-0.46,0.03
2120700005,-0.88,-0.46,0.03
2120702124,-0.88,-0.46,0.03
2120704014,-0.88,-0.46,0.03
2120705991,-0.88,-0.46,0.03
2120707975,-0.88,-0.47,0.02
2120709978,-0.88,-0.47,0.02
2120711976,-0.88,-0.47,0.02
2120713978,-0.88,-0.47,0.02
2120715976,-0.88,-0.47,0.02
2120717975,-0.88,-0.47,0.01
2120719981,-0.88,-0.47,0.01
2120721980,-0.88,-0.47,0.01
2120724013,-0.88,-0.47,0.01
2120726000,-0.88,-0.47,0.01
2120728018,-0.88,-0.46,0.02
2120730005,-0.88,-0.46,0.02
2120732004,-0.88,-0.46,0.02
2120734004,-0.88,-0.46,0.02
2120736003,-0.88,-0.46,0.02
2120738003,-0.88,-0.47,0.01
2120740011,-0.88,-0.47,0.01
2120741981,-0.88,-0.47,0.01
2120743984,-0.88,-0.47,0.01
2120745990,-0.88,-0.47,0.01
2120747981,-0.88,-0.46,0.01
2120749974,-0.88,-0.46,0.01
2120751997,-0.88,-0.46,0.01
2120753980,-0.88,-0.46,0.01
2120755979,-0.88,-0.46,0.01
2120757977,-0.88,-0.48,0.01
2120759978,-0.88,-0.48,0.01
2120761980,-0.88,-0.48,0.01
2120763979,-0.88,-0.48,0.01
2120765976,-0.88,-0.48,0.01
2120768005,-0.88,-0.50,0.00
2120770006,-0.88,-0.50,0.00
2120772002,-0.88,-0.50,0.00
2120774002,-0.88,-0.50,0.00
2120776015,-0.88,-0.50,0.00
2120778007,-0.89,-0.50,-0.00
2120780035,-0.89,-0.50,-0.00
2120782016,-0.89,-0.50,-0.00
2120783980,-0.89,-0.50,-0.00
2120785980,-0.89,-0.50,-0.00
2120787981,-0.86,-0.51,0.00
2120789988,-0.86,-0.51,0.00
2120791976,-0.86,-0.51,0.00
2120793980,-0.86,-0.51,0.00
2120795993,-0.86,-0.51,0.00
2120797975,-0.90,-0.52,-0.00
2120799977,-0.90,-0.52,-0.00
2120801997,-0.90,-0.52,-0.00
2120803980,-0.90,-0.52,-0.00
2120805979,-0.90,-0.52,-0.00
2120808020,-0.90,-0.52,-0.00
2120810007,-0.86,-0.50,-0.02
2120812003,-0.86,-0.50,-0.02
2120814002,-0.86,-0.50,-0.02
2120816004,-0.86,-0.50,-0.02
2120818007,-0.86,-0.50,-0.02
2120820006,-0.88,-0.48,-0.01
2120821981,-0.88,-0.48,-0.01
2120824008,-0.88,-0.48,-0.01
2120825998,-0.88,-0.48,-0.01
2120827981,-0.88,-0.48,-0.01
2120829977,-0.88,-0.46,-0.01
2120831975,-0.88,-0.46,-0.01
2120833976,-0.88,-0.46,-0.01
2120835976,-0.88,-0.46,-0.01
2120837975,-0.88,-0.46,-0.01
2120839974,-0.88,-0.48,-0.00
2120841977,-0.88,-0.48,-0.00
2120843978,-0.88,-0.48,-0.00
2120846033,-0.88,-0.48,-0.00
2120848015,-0.88,-0.48,-0.00
2120850068,-0.89,-0.50,-0.02
2120852017,-0.89,-0.50,-0.02
2120853957,-0.89,-0.50,-0.02
2120855956,-0.89,-0.50,-0.02
2120857956,-0.89,-0.50,-0.02
2120859956,-0.88,-0.51,-0.01
2120862024,-0.88,-0.51,-0.01
2120864047,-0.88,-0.51,-0.01
2120866036,-0.88,-0.51,-0.01
2120868003,-0.88,-0.51,-0.01
2120870005,-0.87,-0.51,0.00
2120872007,-0.87,-0.51,0.00
2120874007,-0.87,-0.51,0.00
2120876020,-0.87,-0.51,0.00
2120877993,-0.87,-0.51,0.00
2120879979,-0.86,-0.52,-0.01
2120881979,-0.86,-0.52,-0.01
2120883976,-0.86,-0.52,-0.01
2120885976,-0.86,-0.52,-0.01
2120888010,-0.86,-0.52,-0.01
2120890012,-0.85,-0.50,-0.00
2120892007,-0.85,-0.50,-0.00
2120894008,-0.85,-0.50,-0.00
2120896006,-0.85,-0.50,-0.00
2120898002,-0.85,-0.50,-0.00
2120900005,-0.87,-0.50,-0.00
2120901992,-0.87,-0.50,-0.00
2120903979,-0.87,-0.50,-0.00
2120905977,-0.87,-0.50,-0.00
2120907983,-0.87,-0.50,-0.00
2120910064,-0.87,-0.50,0.00
2120912021,-0.87,-0.50,0.00
2120913976,-0.87,-0.50,0.00
2120915979,-0.87,-0.50,0.00
2120917974,-0.87,-0.50,0.00
2120919978,-0.87,-0.50,0.00
2120921980,-0.87,-0.50,0.00
2120924012,-0.87,-0.50,0.00
2120926003,-0.87,-0.50,0.00
2120928026,-0.87,-0.50,0.00
2120930004,-0.88,-0.50,0.01
2120932004,-0.88,-0.50,0.01
2120934005,-0.88,-0.50,0.01
2120936007,-0.88,-0.50,0.01
2120938004,-0.88,-0.50,0.01
2120940008,-0.88,-0.50,0.00
2120941983,-0.88,-0.50,0.00
2120943985,-0.88,-0.50,0.00
2120946028,-0.88,-0.50,0.00
2120947978,-0.88,-0.50,0.00
2120949977,-0.89,-0.48,0.00
2120951996,-0.89,-0.48,0.00
2120953978,-0.89,-0.48,0.00
2120956037,-0.89,-0.48,0.00
2120958033,-0.89,-0.48,0.00
2120959975,-0.88,-0.47,0.01
2120961978,-0.88,-0.47,0.01
2120963975,-0.88,-0.47,0.01
2120965976,-0.88,-0.47,0.01
2120968021,-0.88,-0.47,0.01
2120970006,-0.88,-0.46,0.00
2120972006,-0.88,-0.46,0.00
2120974009,-0.88,-0.46,0.00
2120976021,-0.88,-0.46,0.00
2120978004,-0.88,-0.46,0.00
2120980006,-0.88,-0.46,0.01
2120981979,-0.88,-0.46,0.01
2120983974,-0.88,-0.46,0.01
2120985977,-0.88,-0.46,0.01
2120987981,-0.88,-0.46,0.01
2120989987,-0.89,-0.45,0.02
2120991979,-0.89,-0.45,0.02
2120993980,-0.89,-0.45,0.02
2120995990,-0.89,-0.45,0.02
2120997978,-0.89,-0.45,0.02
2120999975,-0.89,-0.45,0.02
2121002023,-0.89,-0.44,0.03
2121004067,-0.89,-0.44,0.03
2121006024,-0.89,-0.44,0.03
2121008017,-0.89,-0.44,0.03
2121010006,-0.89,-0.44,0.03
2121012002,-0.88,-0.46,0.03
2121014002,-0.88,-0.46,0.03
2121016003,-0.88,-0.46,0.03
2121018005,-0.88,-0.46,0.03
2121020005,-0.88,-0.46,0.03
2121021979,-0.88,-0.47,0.03
2121024010,-0.88,-0.47,0.03
2121026001,-0.88,-0.47,0.03
2121027977,-0.88,-0.47,0.03
2121029976,-0.88,-0.47,0.03
2121031975,-0.88,-0.46,0.04
2121033979,-0.88,-0.46,0.04
2121035975,-0.88,-0.46,0.04
2121037976,-0.88,-0.46,0.04
2121039974,-0.88,-0.46,0.04
2121041976,-0.88,-0.46,0.04
2121043976,-0.88,-0.46,0.04
2121045989,-0.88,-0.46,0.04
2121048059,-0.88,-0.46,0.04
2121050029,-0.88,-0.46,0.04
2121052171,-0.88,-0.46,0.04
2121054036,-0.88,-0.46,0.04
2121056009,-0.88,-0.46,0.04
2121058004,-0.88,-0.46,0.04
2121060007,-0.88,-0.46,0.04
2121062008,-0.88,-0.46,0.03
2121064013,-0.88,-0.46,0.03
2121065979,-0.88,-0.46,0.03
2121067979,-0.88,-0.46,0.03
2121069979,-0.88,-0.46,0.03
2121071980,-0.89,-0.45,0.04
2121073984,-0.89,-0.45,0.04
2121076006,-0.89,-0.45,0.04
2121077981,-0.89,-0.45,0.04
2121079977,-0.89,-0.45,0.04
2121081976,-0.88,-0.46,0.03
2121083977,-0.88,-0.46,0.03
2121085980,-0.88,-0.46,0.03
2121088008,-0.88,-0.46,0.03
2121090010,-0.88,-0.46,0.03
2121092002,-0.89,-0.47,0.03
2121094007,-0.89,-0.47,0.03
2121096009,-0.89,-0.47,0.03
2121098059,-0.89,-0.47,0.03
2121100038,-0.89,-0.47,0.03
2121102126,-0.89,-0.47,0.03
2121104013,-0.89,-0.47,0.03
2121105984,-0.89,-0.47,0.03
2121107980,-0.89,-0.47,0.03
2121109979,-0.89,-0.47,0.03
2121111974,-0.88,-0.48,0.03
2121113976,-0.88,-0.48,0.03
2121115981,-0.88,-0.48,0.03
2121117979,-0.88,-0.48,0.03
2121119980,-0.88,-0.48,0.03
2121121979,-0.88,-0.49,0.01
2121124005,-0.88,-0.49,0.01
2121126000,-0.88,-0.49,0.01
2121128018,-0.88,-0.49,0.01
2121130005,-0.88,-0.49,0.01
2121132003,-0.87,-0.48,0.01
2121134001,-0.87,-0.48,0.01
2121136000,-0.87,-0.48,0.01
2121138009,-0.87,-0.48,0.01
2121140005,-0.87,-0.48,0.01
2121141977,-0.88,-0.48,0.01
2121144063,-0.88,-0.48,0.01
2121146022,-0.88,-0.48,0.01
2121147977,-0.88,-0.48,0.01
2121149979,-0.88,-0.48,0.01
2121152001,-0.87,-0.49,0.00
2121153981,-0.87,-0.49,0.00
2121155976,-0.87,-0.49,0.00
2121157978,-0.87,-0.49,0.00
2121159978,-0.87,-0.49,0.00
2121161974,-0.88,-0.49,-0.00
2121163976,-0.88,-0.49,-0.00
2121165978,-0.88,-0.49,-0.00
2121168020,-0.88,-0.49,-0.00
2121170004,-0.88,-0.49,-0.00
2121172001,-0.88,-0.49,0.00
2121174006,-0.88,-0.49,0.00
2121176015,-0.88,-0.49,0.00
2121178008,-0.88,-0.49,0.00
2121180005,-0.88,-0.49,0.00
2121181979,-0.88,-0.49,0.00
2121183976,-0.88,-0.50,-0.01
2121185976,-0.88,-0.50,-0.01
2121187986,-0.88,-0.50,-0.01
2121189989,-0.88,-0.50,-0.01
2121191979,-0.88,-0.50,-0.01
2121193977,-0.88,-0.49,-0.02
2121195991,-0.88,-0.49,-0.02
2121197978,-0.88,-0.49,-0.02
2121199978,-0.88,-0.49,-0.02
2121201996,-0.88,-0.49,-0.02
2121203981,-0.88,-0.50,-0.01
2121205990,-0.88,-0.50,-0.01
2121208013,-0.88,-0.50,-0.01
2121210006,-0.88,-0.50,-0.01
2121212007,-0.88,-0.50,-0.01
2121214008,-0.87,-0.49,-0.01
2121216002,-0.87,-0.49,-0.01
2121218004,-0.87,-0.49,-0.01
2121220008,-0.87,-0.49,-0.01
2121221983,-0.87,-0.49,-0.01
2121224012,-0.87,-0.50,-0.01
2121226006,-0.87,-0.50,-0.01
2121227982,-0.87,-0.50,-0.01
2121229977,-0.87,-0.50,-0.01
2121231975,-0.87,-0.50,-0.01
2121233976,-0.87,-0.49,-0.01
2121235974,-0.87,-0.49,-0.01
2121237974,-0.87,-0.49,-0.01
2121239977,-0.87,-0.49,-0.01
2121241977,-0.87,-0.49,-0.01
2121243974,-0.87,-0.50,-0.00
2121245976,-0.87,-0.50,-0.00
2121248013,-0.87,-0.50,-0.00
2121250006,-0.87,-0.50,-0.00
2121252071,-0.87,-0.50,-0.00
2121254026,-0.86,-0.50,0.00
2121256037,-0.86,-0.50,0.00
2121258040,-0.86,-0.50,0.00
2121260031,-0.86,-0.50,0.00
2121262086,-0.86,-0.50,0.00
2121264039,-0.87,-0.50,0.00
2121266015,-0.87,-0.50,0.00
2121267979,-0.87,-0.50,0.00
2121269976,-0.87,-0.50,0.00
2121271979,-0.87,-0.50,0.00
2121273979,-0.87,-0.50,0.00
2121276004,-0.87,-0.50,0.00
2121277986,-0.87,-0.50,0.00
2121279975,-0.87,-0.50,0.00
2121281976,-0.87,-0.50,0.00
2121283980,-0.86,-0.50,0.01
2121285978,-0.86,-0.50,0.01
2121288010,-0.86,-0.50,0.01
2121290015,-0.86,-0.50,0.01
2121292010,-0.86,-0.50,0.01
2121294011,-0.87,-0.50,0.01
2121296013,-0.87,-0.50,0.01
2121298007,-0.87,-0.50,0.01
2121299979,-0.87,-0.50,0.01
2121301996,-0.87,-0.50,0.01
2121303976,-0.88,-0.50,0.00
2121305975,-0.88,-0.50,0.00
2121307976,-0.88,-0.50,0.00
2121309981,-0.88,-0.50,0.00
2121311979,-0.88,-0.50,0.00
2121313975,-0.88,-0.50,0.01
2121315974,-0.88,-0.50,0.01
2121318104,-0.88,-0.50,0.01
2121320018,-0.88,-0.50,0.01
2121321978,-0.88,-0.50,0.01
2121324008,-0.87,-0.49,-0.00
2121326002,-0.87,-0.49,-0.00
2121328025,-0.87,-0.49,-0.00
2121330005,-0.87,-0.49,-0.00
2121332009,-0.87,-0.49,-0.00
2121334009,-0.88,-0.48,0.00
2121336008,-0.88,-0.48,0.00
2121338010,-0.88,-0.48,0.00
2121340007,-0.88,-0.48,0.00
2121341980,-0.88,-0.48,0.00
2121343979,-0.88,-0.46,0.00
2121345980,-0.88,-0.46,0.00
2121347981,-0.88,-0.46,0.00
2121349979,-0.88,-0.46,0.00
2121351993,-0.88,-0.46,0.00
2121353997,-0.87,-0.46,0.00
2121356029,-0.87,-0.46,0.00
2121357977,-0.87,-0.46,0.00
2121359976,-0.87,-0.46,0.00
2121361975,-0.87,-0.46,0.00
2121364039,-0.88,-0.46,0.01
2121366027,-0.88,-0.46,0.01
2121368015,-0.88,-0.46,0.01
2121370004,-0.88,-0.46,0.01
2121372003,-0.88,-0.46,0.01
2121374005,-0.88,-0.46,0.01
2121376023,-0.89,-0.46,0.02
2121378009,-0.89,-0.46,0.02
2121380005,-0.89,-0.46,0.02
2121381980,-0.89,-0.46,0.02
2121383979,-0.89,-0.46,0.02
2121385979,-0.89,-0.46,0.02
2121387979,-0.89,-0.46,0.02
2121389989,-0.89,-0.46,0.02
2121391979,-0.89,-0.46,0.02
2121393980,-0.89,-0.46,0.02
2121395993,-0.88,-0.48,0.03
2121397977,-0.88,-0.48,0.03
2121399976,-0.88,-0.48,0.03
2121402000,-0.88,-0.48,0.03
2121403981,-0.88,-0.48,0.03
2121405978,-0.88,-0.48,0.02
2121408007,-0.88,-0.48,0.02
2121410004,-0.88,-0.48,0.02
2121412004,-0.88,-0.48,0.02
2121414006,-0.88,-0.48,0.02
2121416005,-0.88,-0.48,0.02
2121418005,-0.88,-0.48,0.02
2121420001,-0.88,-0.48,0.02
2121421982,-0.88,-0.48,0.02
2121424010,-0.88,-0.48,0.02
2121425999,-0.88,-0.48,0.02
2121427980,-0.88,-0.48,0.02
2121429977,-0.88,-0.48,0.02
2121431977,-0.88,-0.48,0.02
2121433975,-0.88,-0.48,0.02
2121435975,-0.88,-0.48,0.03
2121438070,-0.88,-0.48,0.03
2121440020,-0.88,-0.48,0.03
2121441977,-0.88,-0.48,0.03
2121443975,-0.88,-0.48,0.03
2121445980,-0.88,-0.49,0.01
2121448020,-0.88,-0.49,0.01
2121450006,-0.88,-0.49,0.01
2121452125,-0.88,-0.49,0.01
2121454008,-0.88,-0.49,0.01
2121456011,-0.88,-0.47,0.02
2121458049,-0.88,-0.47,0.02
2121460005,-0.88,-0.47,0.02
2121462004,-0.88,-0.47,0.02
2121463989,-0.88,-0.47,0.02
2121465982,-0.88,-0.46,0.02
2121467986,-0.88,-0.46,0.02
2121469979,-0.88,-0.46,0.02
2121471975,-0.88,-0.46,0.02
2121473977,-0.88,-0.46,0.02
2121476002,-0.89,-0.46,0.02
2121477986,-0.89,-0.46,0.02
2121479980,-0.89,-0.46,0.02
2121481980,-0.89,-0.46,0.02
2121483979,-0.89,-0.46,0.02
2121485978,-0.87,-0.46,0.02
2121488117,-0.87,-0.46,0.02
2121490047,-0.87,-0.46,0.02
2121492003,-0.87,-0.46,0.02
2121494005,-0.87,-0.46,0.02
2121496008,-0.87,-0.48,0.01
2121498007,-0.87,-0.48,0.01
2121500006,-0.87,-0.48,0.01
2121502119,-0.87,-0.48,0.01
2121504010,-0.87,-0.48,0.01
2121505980,-0.87,-0.46,0.02
2121507977,-0.87,-0.46,0.02
2121509976,-0.87,-0.46,0.02
2121511975,-0.87,-0.46,0.02
2121513977,-0.87,-0.46,0.02
2121515980,-0.88,-0.47,0.02
2121517976,-0.88,-0.47,0.02
2121519979,-0.88,-0.47,0.02
2121521981,-0.88,-0.47,0.02
2121524009,-0.88,-0.47,0.02
2121525997,-0.89,-0.47,0.02
2121527979,-0.89,-0.47,0.02
2121530018,-0.89,-0.47,0.02
2121532005,-0.89,-0.47,0.02
2121534003,-0.89,-0.47,0.02
2121536003,-0.89,-0.48,0.02
2121538004,-0.89,-0.48,0.02
2121540004,-0.89,-0.48,0.02
2121542003,-0.89,-0.48,0.02
2121543980,-0.89,-0.48,0.02
2121545980,-0.88,-0.48,0.01
2121547979,-0.88,-0.48,0.01
2121549979,-0.88,-0.48,0.01
2121551995,-0.88,-0.48,0.01
2121553980,-0.88,-0.48,0.01
2121555976,-0.87,-0.49,0.01
2121557975,-0.87,-0.49,0.01
2121559979,-0.87,-0.49,0.01
2121561976,-0.87,-0.49,0.01
2121563980,-0.87,-0.49,0.01
2121565977,-0.87,-0.49,0.01
2121567981,-0.87,-0.49,0.01
2121570012,-0.87,-0.49,0.01
2121572005,-0.87,-0.49,0.01
2121574005,-0.87,-0.49,0.01
2121576027,-0.87,-0.49,0.01
2121578046,-0.87,-0.48,0.01
2121580007,-0.87,-0.48,0.01
2121582000,-0.87,-0.48,0.01
2121584008,-0.87,-0.48,0.01
2121585976,-0.87,-0.48,0.01
2121587980,-0.87,-0.49,0.02
2121589992,-0.87,-0.49,0.02
2121591978,-0.87,-0.49,0.02
2121593980,-0.87,-0.49,0.02
2121595992,-0.87,-0.49,0.02
2121597990,-0.88,-0.50,0.01
2121599979,-0.88,-0.50,0.01
2121602000,-0.88,-0.50,0.01
2121603979,-0.88,-0.50,0.01
2121605977,-0.88,-0.50,0.01
2121607978,-0.88,-0.50,0.00
2121610013,-0.88,-0.50,0.00
2121612006,-0.88,-0.50,0.00
2121614005,-0.88,-0.50,0.00
2121616004,-0.88,-0.50,0.00
2121618001,-0.88,-0.50,-0.00
2121620005,-0.88,-0.50,-0.00
2121622083,-0.88,-0.50,-0.00
2121624012,-0.88,-0.50,-0.00
2121626002,-0.88,-0.50,-0.00
2121627986,-0.87,-0.49,-0.00
2121629981,-0.87,-0.49,-0.00
2121631980,-0.87,-0.49,-0.00
2121633977,-0.87,-0.49,-0.00
2121635977,-0.87,-0.49,-0.00
2121637979,-0.88,-0.48,-0.01
2121639977,-0.88,-0.48,-0.01
2121641980,-0.88,-0.48,-0.01
2121643977,-0.88,-0.48,-0.01
2121645977,-0.88,-0.48,-0.01
2121648014,-0.88,-0.47,-0.02
2121650039,-0.88,-0.47,-0.02
2121652029,-0.88,-0.47,-0.02
2121654007,-0.88,-0.47,-0.02
2121656006,-0.88,-0.47,-0.02
2121658005,-0.88,-0.46,-0.01
2121660029,-0.88,-0.46,-0.01
2121662043,-0.88,-0.46,-0.01
2121664002,-0.88,-0.46,-0.01
2121666005,-0.88,-0.46,-0.01
2121667975,-0.88,-0.48,-0.01
2121669975,-0.88,-0.48,-0.01
2121671979,-0.88,-0.48,-0.01
2121673977,-0.88,-0.48,-0.01
2121676003,-0.88,-0.48,-0.01
2121677981,-0.88,-0.48,0.00
2121679980,-0.88,-0.48,0.00
2121681977,-0.88,-0.48,0.00
2121683981,-0.88,-0.48,0.00
2121685981,-0.88,-0.48,0.00
2121687980,-0.88,-0.49,0.01
2121690020,-0.88,-0.49,0.01
2121692049,-0.88,-0.49,0.01
2121694044,-0.88,-0.49,0.01
2121696014,-0.88,-0.49,0.01
2121698009,-0.88,-0.50,0.01
2121700009,-0.88,-0.50,0.01
2121702039,-0.88,-0.50,0.01
2121704011,-0.88,-0.50,0.01
2121706017,-0.88,-0.50,0.01
2121707976,-0.86,-0.49,0.02
2121709977,-0.86,-0.49,0.02
2121711976,-0.86,-0.49,0.02
2121713973,-0.86,-0.49,0.02
2121715977,-0.86,-0.49,0.02
2121717976,-0.87,-0.50,0.02
2121719977,-0.87,-0.50,0.02
2121721976,-0.87,-0.50,0.02
2121724008,-0.87,-0.50,0.02
2121725999,-0.87,-0.50,0.02
2121727985,-0.87,-0.48,0.02
2121730020,-0.87,-0.48,0.02
2121732007,-0.87,-0.48,0.02
2121734009,-0.87,-0.48,0.02
2121736009,-0.87,-0.48,0.02
2121738053,-0.88,-0.49,0.02
2121740034,-0.88,-0.49,0.02
2121742019,-0.88,-0.49,0.02
2121744008,-0.88,-0.49,0.02
2121746015,-0.88,-0.49,0.02
2121747980,-0.88,-0.48,0.02
2121749976,-0.88,-0.48,0.02
2121752000,-0.88,-0.48,0.02
2121753979,-0.88,-0.48,0.02
2121755977,-0.88,-0.48,0.02
2121757977,-0.88,-0.48,0.02
2121759979,-0.88,-0.48,0.01
2121761978,-0.88,-0.48,0.01
2121764025,-0.88,-0.48,0.01
2121765996,-0.88,-0.48,0.01
2121767977,-0.88,-0.48,0.01
2121770024,-0.88,-0.48,0.01
2121772008,-0.88,-0.48,0.01
2121774009,-0.88,-0.48,0.01
2121776022,-0.88,-0.48,0.01
2121778015,-0.88,-0.48,0.01
2121780009,-0.88,-0.47,0.01
2121782010,-0.88,-0.47,0.01
2121784044,-0.88,-0.47,0.01
2121786027,-0.88,-0.47,0.01
2121787979,-0.88,-0.47,0.01
2121789991,-0.88,-0.48,0.01
2121791978,-0.88,-0.48,0.01
2121793983,-0.88,-0.48,0.01
2121795990,-0.88,-0.48,0.01
2121797973,-0.88,-0.48,0.01
2121799973,-0.88,-0.46,-0.00
2121801998,-0.88,-0.46,-0.00
2121803979,-0.88,-0.46,-0.00
2121805977,-0.88,-0.46,-0.00
2121807977,-0.88,-0.46,-0.00
2121810014,-0.88,-0.46,0.00
2121812006,-0.88,-0.46,0.00
2121814002,-0.88,-0.46,0.00
2121816007,-0.88,-0.46,0.00
2121818006,-0.88,-0.46,0.00
2121820003,-0.89,-0.46,0.00
2121822000,-0.89,-0.46,0.00
2121824016,-0.89,-0.46,0.00
2121826000,-0.89,-0.46,0.00
2121827981,-0.89,-0.46,0.00
2121830003,-0.88,-0.46,0.00
2121832044,-0.88,-0.46,0.00
2121834008,-0.88,-0.46,0.00
2121835976,-0.88,-0.46,0.00
2121837977,-0.88,-0.46,0.00
2121839977,-0.89,-0.46,0.00
2121841976,-0.89,-0.46,0.00
2121843981,-0.89,-0.46,0.00
2121845977,-0.89,-0.46,0.00
2121847977,-0.89,-0.46,0.00
2121850015,-0.88,-0.48,0.01
2121852123,-0.88,-0.48,0.01
2121854004,-0.88,-0.48,0.01
2121856001,-0.88,-0.48,0.01
2121858004,-0.88,-0.48,0.01
2121860005,-0.88,-0.48,0.02
2121862007,-0.88,-0.48,0.02
2121863983,-0.88,-0.48,0.02
2121866041,-0.88,-0.48,0.02
2121868014,-0.88,-0.48,0.02
2121869979,-0.88,-0.48,0.02
2121871977,-0.88,-0.48,0.02
2121873976,-0.88,-0.48,0.02
2121876002,-0.88,-0.48,0.02
2121878080,-0.88,-0.48,0.02
2121880015,-0.88,-0.48,0.04
2121881975,-0.88,-0.48,0.04
2121883979,-0.88,-0.48,0.04
2121885979,-0.88,-0.48,0.04
2121887979,-0.88,-0.48,0.04
2121890029,-0.87,-0.48,0.03
2121892007,-0.87,-0.48,0.03
2121894006,-0.87,-0.48,0.03
2121896005,-0.87,-0.48,0.03
2121898007,-0.87,-0.48,0.03
2121900011,-0.87,-0.49,0.04
2121902122,-0.87,-0.49,0.04
2121904013,-0.87,-0.49,0.04
2121905980,-0.87,-0.49,0.04
2121907980,-0.87,-0.49,0.04
2121909979,-0.87,-0.48,0.02
2121911979,-0.87,-0.48,0.02
2121913977,-0.87,-0.48,0.02
2121915978,-0.87,-0.48,0.02
2121917981,-0.87,-0.48,0.02
2121919976,-0.87,-0.48,0.02
2121922010,-0.87,-0.48,0.02
2121924144,-0.87,-0.48,0.02
2121926038,-0.87,-0.48,0.02
2121927981,-0.87,-0.48,0.02
2121930017,-0.88,-0.47,0.01
2121932007,-0.88,-0.47,0.01
2121934001,-0.88,-0.47,0.01
2121936002,-0.88,-0.47,0.01
2121938002,-0.88,-0.47,0.01
2121940005,-0.88,-0.47,0.02
2121942006,-0.88,-0.47,0.02
2121943981,-0.88,-0.47,0.02
2121945977,-0.88,-0.47,0.02
2121947975,-0.88,-0.47,0.02
2121949977,-0.88,-0.47,0.02
2121951993,-0.89,-0.48,0.00
2121953987,-0.89,-0.48,0.00
2121955991,-0.89,-0.48,0.00
2121957973,-0.89,-0.48,0.00
2121959979,-0.89,-0.48,0.00
2121961975,-0.89,-0.47,0.01
2121963979,-0.89,-0.47,0.01
2121965979,-0.89,-0.47,0.01
2121967979,-0.89,-0.47,0.01
2121970010,-0.89,-0.47,0.01
2121972006,-0.89,-0.47,0.01
2121974007,-0.89,-0.47,0.01
2121976017,-0.89,-0.47,0.01
2121978010,-0.89,-0.47,0.01
2121980004,-0.89,-0.47,0.01
2121981993,-0.88,-0.47,0.01
2121983979,-0.88,-0.47,0.01
2121985979,-0.88,-0.47,0.01
2121987982,-0.88,-0.47,0.01
2121989987,-0.88,-0.47,0.01
2121991979,-0.88,-0.48,0.00
2121993980,-0.88,-0.48,0.00
2121995992,-0.88,-0.48,0.00
2121997979,-0.88,-0.48,0.00
2121999980,-0.88,-0.48,0.00
2122001994,-0.88,-0.48,0.02
2122003976,-0.88,-0.48,0.02
2122005979,-0.88,-0.48,0.02
2122007976,-0.88,-0.48,0.02
2122010014,-0.88,-0.48,0.02
2122012004,-0.87,-0.48,0.02
2122014001,-0.87,-0.48,0.02
2122016005,-0.87,-0.48,0.02
2122018044,-0.87,-0.48,0.02
2122020012,-0.87,-0.48,0.02
2122022006,-0.88,-0.48,0.01
2122024008,-0.88,-0.48,0.01
2122026030,-0.88,-0.48,0.01
2122027985,-0.88,-0.48,0.01
2122029974,-0.88,-0.48,0.01
2122031977,-0.88,-0.48,0.02
2122033977,-0.88,-0.48,0.02
2122035976,-0.88,-0.48,0.02
2122037978,-0.88,-0.48,0.02
2122040034,-0.88,-0.48,0.02
2122041975,-0.88,-0.48,0.02
2122043979,-0.88,-0.48,0.02
2122045977,-0.88,-0.48,0.02
2122047977,-0.88,-0.48,0.02
2122050014,-0.88,-0.48,0.02
2122052028,-0.87,-0.49,0.01
2122054005,-0.87,-0.49,0.01
2122056012,-0.87,-0.49,0.01
2122058005,-0.87,-0.49,0.01
2122060010,-0.87,-0.49,0.01
2122062003,-0.87,-0.48,0.00
2122063980,-0.87,-0.48,0.00
2122065976,-0.87,-0.48,0.00
2122067978,-0.87,-0.48,0.00
2122070025,-0.87,-0.48,0.00
2122072014,-0.88,-0.48,0.00
2122073975,-0.88,-0.48,0.00
2122076000,-0.88,-0.48,0.00
2122077987,-0.88,-0.48,0.00
2122079977,-0.88,-0.48,0.00
2122081993,-0.88,-0.48,0.00
2122084057,-0.88,-0.48,0.00
2122086018,-0.88,-0.48,0.00
2122087982,-0.88,-0.48,0.00
2122090032,-0.88,-0.48,0.00
2122092005,-0.88,-0.48,0.00
2122094005,-0.88,-0.48,0.00
2122096010,-0.88,-0.48,0.00
2122098008,-0.88,-0.48,0.00
2122100008,-0.88,-0.48,0.00
2122102028,-0.88,-0.48,0.01
2122103978,-0.88,-0.48,0.01
2122105979,-0.88,-0.48,0.01
2122107977,-0.88,-0.48,0.01
2122109976,-0.88,-0.48,0.01
2122111984,-0.88,-0.48,0.01
2122113978,-0.88,-0.48,0.01
2122115979,-0.88,-0.48,0.01
2122117978,-0.88,-0.48,0.01
2122119977,-0.88,-0.48,0.01
2122121989,-0.88,-0.48,0.02
2122123981,-0.88,-0.48,0.02
2122126017,-0.88,-0.48,0.02
2122127980,-0.88,-0.48,0.02
2122130020,-0.88,-0.48,0.02
2122132005,-0.88,-0.48,0.02
2122134007,-0.88,-0.48,0.02
2122136003,-0.88,-0.48,0.02
2122138002,-0.88,-0.48,0.02
2122140000,-0.88,-0.48,0.02
2122142030,-0.88,-0.48,0.02
2122144068,-0.88,-0.47,0.02
2122146024,-0.88,-0.47,0.02
2122147979,-0.88,-0.47,0.02
2122149978,-0.88,-0.47,0.02
2122152003,-0.88,-0.47,0.02
2122153975,-0.88,-0.47,0.01
2122155980,-0.88,-0.47,0.01
2122157977,-0.88,-0.47,0.01
2122159977,-0.88,-0.47,0.01
2122161974,-0.88,-0.47,0.01
2122163981,-0.88,-0.48,0.00
2122165980,-0.88,-0.48,0.00
2122167979,-0.88,-0.48,0.00
2122170022,-0.88,-0.48,0.00
2122172002,-0.88,-0.48,0.00
2122174050,-0.88,-0.47,0.01
2122176020,-0.88,-0.47,0.01
2122178011,-0.88,-0.47,0.01
2122180005,-0.88,-0.47,0.01
2122182009,-0.88,-0.47,0.01
2122184009,-0.88,-0.47,0.00
2122185979,-0.88,-0.47,0.00
2122187989,-0.88,-0.47,0.00
2122189987,-0.88,-0.47,0.00
2122191978,-0.88,-0.47,0.00
2122193976,-0.89,-0.47,0.01
2122195990,-0.89,-0.47,0.01
2122197974,-0.89,-0.47,0.01
2122199976,-0.89,-0.47,0.01
2122201996,-0.89,-0.47,0.01
2122203978,-0.89,-0.47,0.01
2122205995,-0.89,-0.47,0.01
2122208117,-0.89,-0.47,0.01
2122210040,-0.89,-0.47,0.01
2122212007,-0.89,-0.47,0.01
2122214006,-0.88,-0.47,0.02
2122216007,-0.88,-0.47,0.02
2122218004,-0.88,-0.47,0.02
2122220005,-0.88,-0.47,0.02
2122222005,-0.88,-0.47,0.02
2122223980,-0.88,-0.47,0.02
2122226229,-0.88,-0.47,0.02
2122228068,-0.88,-0.47,0.02
2122229981,-0.88,-0.47,0.02
2122231989,-0.88,-0.47,0.02
2122233976,-0.88,-0.47,0.03
2122235977,-0.88,-0.47,0.03
2122237976,-0.88,-0.47,0.03
2122239978,-0.88,-0.47,0.03
2122241976,-0.88,-0.47,0.03
2122243976,-0.88,-0.47,0.03
2122245977,-0.88,-0.47,0.03
2122247977,-0.88,-0.47,0.03
2122250019,-0.88,-0.47,0.03
2122252126,-0.88,-0.47,0.03
2122254009,-0.88,-0.48,0.02
2122256001,-0.88,-0.48,0.02
2122258009,-0.88,-0.48,0.02
2122260006,-0.88,-0.48,0.02
2122262008,-0.88,-0.48,0.02
2122264005,-0.88,-0.48,0.02
2122265981,-0.88,-0.48,0.02
2122268074,-0.88,-0.48,0.02
2122270023,-0.88,-0.48,0.02
2122271978,-0.88,-0.48,0.02
2122273993,-0.88,-0.48,0.02
2122276046,-0.88,-0.48,0.02
2122277991,-0.88,-0.48,0.02
2122279975,-0.88,-0.48,0.02
2122281974,-0.88,-0.48,0.02
2122283979,-0.89,-0.48,0.01
2122285976,-0.89,-0.48,0.01
2122287983,-0.89,-0.48,0.01
2122290026,-0.89,-0.48,0.01
2122292009,-0.89,-0.48,0.01
2122294008,-0.89,-0.47,0.01
2122296009,-0.89,-0.47,0.01
2122298006,-0.89,-0.47,0.01
2122300007,-0.89,-0.47,0.01
2122302123,-0.89,-0.47,0.01
2122303975,-0.88,-0.48,0.01
2122305979,-0.88,-0.48,0.01
2122307976,-0.88,-0.48,0.01
2122309975,-0.88,-0.48,0.01
2122312006,-0.88,-0.48,0.01
2122314148,-0.88,-0.48,0.02
2122316016,-0.88,-0.48,0.02
2122317982,-0.88,-0.48,0.02
2122319980,-0.88,-0.48,0.02
2122321979,-0.88,-0.48,0.02
2122323979,-0.88,-0.48,0.02
2122326028,-0.88,-0.47,0.01
2122327985,-0.88,-0.47,0.01
2122330027,-0.88,-0.47,0.01
2122332003,-0.88,-0.47,0.01
2122334003,-0.88,-0.47,0.01
2122336007,-0.88,-0.47,0.02
2122338007,-0.88,-0.47,0.02
2122340008,-0.88,-0.47,0.02
2122341999,-0.88,-0.47,0.02
2122343981,-0.88,-0.47,0.02
2122345984,-0.88,-0.48,0.01
2122347978,-0.88,-0.48,0.01
2122349976,-0.88,-0.48,0.01
2122351993,-0.88,-0.48,0.01
2122353981,-0.88,-0.48,0.01
2122355979,-0.87,-0.48,0.01
2122357979,-0.87,-0.48,0.01
2122359980,-0.87,-0.48,0.01
2122361978,-0.87,-0.48,0.01
2122363981,-0.87,-0.48,0.01
2122365980,-0.87,-0.48,0.01
2122367974,-0.87,-0.48,0.01
2122370013,-0.87,-0.48,0.01
2122372004,-0.87,-0.48,0.01
2122374007,-0.87,-0.48,0.01
2122376018,-0.88,-0.48,0.01
2122378010,-0.88,-0.48,0.01
2122380005,-0.88,-0.48,0.01
2122382007,-0.88,-0.48,0.01
2122383983,-0.88,-0.48,0.01
2122385979,-0.88,-0.48,0.01
2122387979,-0.88,-0.48,0.01
2122389988,-0.88,-0.48,0.01
2122391978,-0.88,-0.48,0.01
2122393981,-0.88,-0.48,0.01
2122395991,-0.89,-0.48,0.00
2122397979,-0.89,-0.48,0.00
2122399979,-0.89,-0.48,0.00
2122402000,-0.89,-0.48,0.00
2122403984,-0.89,-0.48,0.00
2122405977,-0.88,-0.48,0.00
2122407974,-0.88,-0.48,0.00
2122410010,-0.88,-0.48,0.00
2122412005,-0.88,-0.48,0.00
2122414006,-0.88,-0.48,0.00
2122416007,-0.88,-0.48,0.01
2122418047,-0.88,-0.48,0.01
2122420024,-0.88,-0.48,0.01
2122422052,-0.88,-0.48,0.01
2122424006,-0.88,-0.48,0.01
2122426038,-0.88,-0.48,0.01
2122427980,-0.88,-0.48,0.01
2122429976,-0.88,-0.48,0.01
2122431979,-0.88,-0.48,0.01
2122433977,-0.88,-0.48,0.01
2122435977,-0.87,-0.49,0.00
2122437977,-0.87,-0.49,0.00
2122439978,-0.87,-0.49,0.00
2122441977,-0.87,-0.49,0.00
2122443978,-0.87,-0.49,0.00
2122445974,-0.88,-0.48,0.01
2122447979,-0.88,-0.48,0.01
2122450004,-0.88,-0.48,0.01
2122452021,-0.88,-0.48,0.01
2122454003,-0.88,-0.48,0.01
2122456010,-0.87,-0.49,0.01
2122458008,-0.87,-0.49,0.01
2122460005,-0.87,-0.49,0.01
2122462010,-0.87,-0.49,0.01
2122463980,-0.87,-0.49,0.01
2122465980,-0.88,-0.49,0.02
2122467977,-0.88,-0.49,0.02
2122470041,-0.88,-0.49,0.02
2122472033,-0.88,-0.49,0.02
2122473976,-0.88,-0.49,0.02
2122476001,-0.88,-0.48,0.02
2122477985,-0.88,-0.48,0.02
2122479975,-0.88,-0.48,0.02
2122482021,-0.88,-0.48,0.02
2122483974,-0.88,-0.48,0.02
2122485975,-0.88,-0.48,0.01
2122487982,-0.88,-0.48,0.01
2122490028,-0.88,-0.48,0.01
2122492015,-0.88,-0.48,0.01
2122494004,-0.88,-0.48,0.01
2122496011,-0.88,-0.48,0.01
2122498010,-0.88,-0.48,0.01
2122500006,-0.88,-0.48,0.01
2122502038,-0.88,-0.48,0.01
2122504010,-0.88,-0.48,0.01
2122505979,-0.88,-0.48,0.01
2122507980,-0.89,-0.46,0.01
2122509980,-0.89,-0.46,0.01
2122511980,-0.89,-0.46,0.01
2122513979,-0.89,-0.46,0.01
2122515986,-0.89,-0.46,0.01
2122517977,-0.88,-0.47,0.00
2122520061,-0.88,-0.47,0.00
2122522024,-0.88,-0.47,0.00
2122523981,-0.88,-0.47,0.00
2122526028,-0.88,-0.47,0.00
2122527977,-0.88,-0.47,0.01
2122530015,-0.88,-0.47,0.01
2122532003,-0.88,-0.47,0.01
2122534001,-0.88,-0.47,0.01
2122536004,-0.88,-0.47,0.01
2122538003,-0.88,-0.48,0.00
2122540002,-0.88,-0.48,0.00
2122542005,-0.88,-0.48,0.00
2122543976,-0.88,-0.48,0.00
2122545975,-0.88,-0.48,0.00
2122547981,-0.88,-0.47,0.02
2122549978,-0.88,-0.47,0.02
2122551996,-0.88,-0.47,0.02
2122553975,-0.88,-0.47,0.02
2122555976,-0.88,-0.47,0.02
2122557981,-0.88,-0.48,0.01
2122559979,-0.88,-0.48,0.01
2122561979,-0.88,-0.48,0.01
2122563978,-0.88,-0.48,0.01
2122565975,-0.88,-0.48,0.01
2122567975,-0.88,-0.48,0.02
2122570010,-0.88,-0.48,0.02
2122572008,-0.88,-0.48,0.02
2122574006,-0.88,-0.48,0.02
2122576013,-0.88,-0.48,0.02
2122578008,-0.87,-0.48,0.02
2122580017,-0.87,-0.48,0.02
2122582007,-0.87,-0.48,0.02
2122583978,-0.87,-0.48,0.02
2122585980,-0.87,-0.48,0.02
2122588052,-0.88,-0.48,0.02
2122590057,-0.88,-0.48,0.02
2122592025,-0.88,-0.48,0.02
2122593977,-0.88,-0.48,0.02
2122595991,-0.88,-0.48,0.02
2122597974,-0.89,-0.48,0.02
2122599979,-0.89,-0.48,0.02
2122602002,-0.89,-0.48,0.02
2122603979,-0.89,-0.48,0.02
2122605975,-0.89,-0.48,0.02
2122607974,-0.88,-0.46,0.03
2122610015,-0.88,-0.46,0.03
2122612002,-0.88,-0.46,0.03
2122613999,-0.88,-0.46,0.03
2122616007,-0.88,-0.46,0.03
2122618005,-0.88,-0.46,0.02
2122620004,-0.88,-0.46,0.02
2122622077,-0.88,-0.46,0.02
2122623981,-0.88,-0.46,0.02
2122626024,-0.88,-0.46,0.02
2122627984,-0.88,-0.46,0.01
2122629976,-0.88,-0.46,0.01
2122631980,-0.88,-0.46,0.01
2122633979,-0.88,-0.46,0.01
2122635979,-0.88,-0.46,0.01
2122637974,-0.88,-0.46,0.02
2122639974,-0.88,-0.46,0.02
2122641998,-0.88,-0.46,0.02
2122644068,-0.88,-0.46,0.02
2122646022,-0.88,-0.46,0.02
2122647981,-0.88,-0.46,0.02
2122650023,-0.88,-0.46,0.02
2122652034,-0.88,-0.46,0.02
2122654005,-0.88,-0.46,0.02
2122656005,-0.88,-0.46,0.02
2122658000,-0.88,-0.47,0.02
2122660001,-0.88,-0.47,0.02
2122662006,-0.88,-0.47,0.02
2122663979,-0.88,-0.47,0.02
2122665977,-0.88,-0.47,0.02
2122667978,-0.88,-0.48,0.02
2122669980,-0.88,-0.48,0.02
2122671976,-0.88,-0.48,0.02
2122673979,-0.88,-0.48,0.02
2122675998,-0.88,-0.48,0.02
2122677982,-0.88,-0.48,0.02
2122679976,-0.88,-0.48,0.02
2122681977,-0.88,-0.48,0.02
2122683978,-0.88,-0.48,0.02
2122686027,-0.88,-0.48,0.02
2122687981,-0.88,-0.47,0.02
2122690018,-0.88,-0.47,0.02
2122692003,-0.88,-0.47,0.02
2122694009,-0.88,-0.47,0.02
2122696014,-0.88,-0.47,0.02
2122698007,-0.88,-0.47,0.02
2122700006,-0.88,-0.47,0.02
2122702039,-0.88,-0.47,0.02
2122704066,-0.88,-0.47,0.02
2122706025,-0.88,-0.47,0.02
2122707975,-0.88,-0.47,0.02
2122709975,-0.88,-0.48,0.02
2122711981,-0.88,-0.48,0.02
2122713978,-0.88,-0.48,0.02
2122715973,-0.88,-0.48,0.02
2122717972,-0.88,-0.48,0.02
2122719970,-0.87,-0.48,0.02
2122721978,-0.87,-0.48,0.02
2122723977,-0.87,-0.48,0.02
2122726026,-0.87,-0.48,0.02
2122727979,-0.87,-0.48,0.02
2122730019,-0.88,-0.47,0.02
2122732004,-0.88,-0.47,0.02
2122734003,-0.88,-0.47,0.02
2122736009,-0.88,-0.47,0.02
2122738008,-0.88,-0.47,0.02
2122740002,-0.88,-0.47,0.02
2122742008,-0.88,-0.47,0.02
2122743979,-0.88,-0.47,0.02
2122745976,-0.88,-0.47,0.02
2122747980,-0.88,-0.47,0.02
2122749980,-0.88,-0.48,0.02
2122751992,-0.88,-0.48,0.02
2122753977,-0.88,-0.48,0.02
2122755981,-0.88,-0.48,0.02
2122757974,-0.88,-0.48,0.02
2122759974,-0.88,-0.47,0.01
2122761976,-0.88,-0.47,0.01
2122763981,-0.88,-0.47,0.01
2122765981,-0.88,-0.47,0.01
2122767980,-0.88,-0.47,0.01
2122770012,-0.88,-0.47,0.02
2122772004,-0.88,-0.47,0.02
2122774004,-0.88,-0.47,0.02
2122776015,-0.88,-0.47,0.02
2122778008,-0.88,-0.47,0.02
2122780005,-0.88,-0.48,0.01
2122782002,-0.88,-0.48,0.01
2122783981,-0.88,-0.48,0.01
2122785976,-0.88,-0.48,0.01
2122787982,-0.88,-0.48,0.01
2122789987,-0.88,-0.48,0.00
2122791976,-0.88,-0.48,0.00
2122793981,-0.88,-0.48,0.00
2122795994,-0.88,-0.48,0.00
2122797978,-0.88,-0.48,0.00
2122799976,-0.88,-0.48,0.00
2122801997,-0.88,-0.48,0.00
2122803973,-0.88,-0.48,0.00
2122805984,-0.88,-0.48,0.00
2122807976,-0.88,-0.48,0.00
2122810014,-0.88,-0.49,0.01
2122812008,-0.88,-0.49,0.01
2122814005,-0.88,-0.49,0.01
2122816010,-0.88,-0.49,0.01
2122818054,-0.88,-0.49,0.01
2122820029,-0.89,-0.48,0.01
2122822026,-0.89,-0.48,0.01
2122824051,-0.89,-0.48,0.01
2122826038,-0.89,-0.48,0.01
2122828011,-0.89,-0.48,0.01
2122829980,-0.88,-0.49,0.00
2122831981,-0.88,-0.49,0.00
2122833980,-0.88,-0.49,0.00
2122835981,-0.88,-0.49,0.00
2122837979,-0.88,-0.49,0.00
2122839981,-0.88,-0.49,0.01
2122841973,-0.88,-0.49,0.01
2122843985,-0.88,-0.49,0.01
2122845976,-0.88,-0.49,0.01
2122847975,-0.88,-0.49,0.01
2122850006,-0.88,-0.48,0.00
2122852027,-0.88,-0.48,0.00
2122854002,-0.88,-0.48,0.00
2122856001,-0.88,-0.48,0.00
2122858003,-0.88,-0.48,0.00
2122860004,-0.87,-0.48,0.00
2122862009,-0.87,-0.48,0.00
2122863979,-0.87,-0.48,0.00
2122865981,-0.87,-0.48,0.00
2122867976,-0.87,-0.48,0.00
2122869981,-0.88,-0.48,0.00
2122871981,-0.88,-0.48,0.00
2122873981,-0.88,-0.48,0.00
2122876000,-0.88,-0.48,0.00
2122877986,-0.88,-0.48,0.00
2122879978,-0.87,-0.49,0.01
2122881979,-0.87,-0.49,0.01
2122883978,-0.87,-0.49,0.01
2122885979,-0.87,-0.49,0.01
2122887983,-0.87,-0.49,0.01
2122890044,-0.87,-0.49,0.01
2122892060,-0.88,-0.49,0.01
2122894007,-0.88,-0.49,0.01
2122896011,-0.88,-0.49,0.01
2122898005,-0.88,-0.49,0.01
2122900001,-0.88,-0.49,0.01
2122902035,-0.88,-0.48,0.00
2122903979,-0.88,-0.48,0.00
2122905979,-0.88,-0.48,0.00
2122907980,-0.88,-0.48,0.00
2122909980,-0.88,-0.48,0.00
2122911979,-0.88,-0.49,0.00
2122913976,-0.88,-0.49,0.00
2122915979,-0.88,-0.49,0.00
2122917977,-0.88,-0.49,0.00
2122919984,-0.88,-0.49,0.00
2122921979,-0.88,-0.48,0.00
2122923980,-0.88,-0.48,0.00
2122926014,-0.88,-0.48,0.00
2122927980,-0.88,-0.48,0.00
2122930012,-0.88,-0.48,0.00
2122932038,-0.87,-0.48,0.00
2122934006,-0.87,-0.48,0.00
2122935957,-0.87,-0.48,0.00
2122937956,-0.87,-0.48,0.00
2122939956,-0.87,-0.48,0.00
2122941956,-0.88,-0.48,0.01
2122943957,-0.88,-0.48,0.01
2122945957,-0.88,-0.48,0.01
2122947956,-0.88,-0.48,0.01
2122949957,-0.88,-0.48,0.01
2122951985,-0.88,-0.48,0.01
2122953961,-0.88,-0.48,0.01
2122955984,-0.88,-0.48,0.01
2122957956,-0.88,-0.48,0.01
2122959957,-0.88,-0.48,0.01
2122961956,-0.88,-0.48,0.01
2122963957,-0.88,-0.48,0.01
2122965957,-0.88,-0.48,0.01
2122967957,-0.88,-0.48,0.01
2122969953,-0.88,-0.48,0.01
2122971956,-0.89,-0.48,0.02
2122973963,-0.89,-0.48,0.02
2122975971,-0.89,-0.48,0.02
2122977963,-0.89,-0.48,0.02
2123082055,-0.88,-0.48,0.01
2123084004,-0.89,-0.47,0.02
2123086005,-0.89,-0.47,0.02
2123088004,-0.89,-0.47,0.02
2123090008,-0.89,-0.47,0.02
2123092003,-0.89,-0.47,0.02
2123094012,-0.88,-0.46,0.01
2123096027,-0.88,-0.46,0.01
2123097979,-0.88,-0.46,0.01
2123099978,-0.88,-0.46,0.01
2123102085,-0.88,-0.46,0.01
2123103977,-0.87,-0.48,0.01
2123105979,-0.87,-0.48,0.01
2123107977,-0.87,-0.48,0.01
2123109976,-0.87,-0.48,0.01
2123111974,-0.87,-0.48,0.01
2123113972,-0.88,-0.48,0.02
2123115976,-0.88,-0.48,0.02
2123117978,-0.88,-0.48,0.02
2123119976,-0.88,-0.48,0.02
2123122019,-0.88,-0.48,0.02
2123124008,-0.88,-0.48,0.02
2123126112,-0.88,-0.48,0.02
2123128009,-0.88,-0.48,0.02
2123130030,-0.88,-0.48,0.02
2123132035,-0.88,-0.48,0.02
2123134005,-0.88,-0.49,0.01
2123136009,-0.88,-0.49,0.01
2123137975,-0.88,-0.49,0.01
2123139978,-0.88,-0.49,0.01
2123141977,-0.88,-0.49,0.01
2123143979,-0.88,-0.48,0.01
2123145980,-0.88,-0.48,0.01
2123147977,-0.88,-0.48,0.01
2123149978,-0.88,-0.48,0.01
2123152093,-0.88,-0.48,0.01
2123153980,-0.87,-0.49,0.01
2123155977,-0.87,-0.49,0.01
2123157976,-0.87,-0.49,0.01
2123159977,-0.87,-0.49,0.01
2123162011,-0.87,-0.49,0.01
2123164005,-0.88,-0.48,0.00
2123166007,-0.88,-0.48,0.00
2123168002,-0.88,-0.48,0.00
2123170009,-0.88,-0.48,0.00
2123172007,-0.88,-0.48,0.00
2123173984,-0.88,-0.48,0.02
2123176083,-0.88,-0.48,0.02
2123177987,-0.88,-0.48,0.02
2123179980,-0.88,-0.48,0.02
2123181979,-0.88,-0.48,0.02
2123183981,-0.88,-0.48,0.00
2123185977,-0.88,-0.48,0.00
2123187980,-0.88,-0.48,0.00
2123189990,-0.88,-0.48,0.00
2123191979,-0.88,-0.48,0.00
2123193979,-0.88,-0.48,0.00
2123196022,-0.88,-0.48,0.00
2123197993,-0.88,-0.48,0.00
2123199975,-0.88,-0.48,0.00
2123202121,-0.88,-0.48,0.00
2123204005,-0.88,-0.48,0.00
2123206013,-0.88,-0.48,0.00
2123208012,-0.88,-0.48,0.00
2123210012,-0.88,-0.48,0.00
2123212045,-0.88,-0.48,0.00
2123214027,-0.88,-0.48,0.01
2123216008,-0.88,-0.48,0.01
2123218011,-0.88,-0.48,0.01
2123219977,-0.88,-0.48,0.01
2123221980,-0.88,-0.48,0.01
2123223982,-0.88,-0.49,0.00
2123226121,-0.88,-0.49,0.00
2123227986,-0.88,-0.49,0.00
2123229979,-0.88,-0.49,0.00
2123231977,-0.88,-0.49,0.00
2123233978,-0.88,-0.48,0.00
2123235979,-0.88,-0.48,0.00
2123237981,-0.88,-0.48,0.00
2123239979,-0.88,-0.48,0.00
2123242017,-0.88,-0.48,0.00
2123244030,-0.88,-0.48,0.00
2123246008,-0.88,-0.48,0.00
2123247953,-0.88,-0.48,0.00
2123249957,-0.88,-0.48,0.00
2123252076,-0.88,-0.48,0.00
2123254049,-0.88,-0.48,0.01
2123256038,-0.88,-0.48,0.01
2123258010,-0.88,-0.48,0.01
2123260009,-0.88,-0.48,0.01
2123262007,-0.88,-0.48,0.01
2123264003,-0.88,-0.48,0.01
2123266006,-0.88,-0.49,0.01
2123268004,-0.88,-0.49,0.01
2123269979,-0.88,-0.49,0.01
2123271981,-0.88,-0.49,0.01
2123273980,-0.88,-0.49,0.01
2123276093,-0.88,-0.49,0.01
2123277990,-0.88,-0.49,0.01
2123279981,-0.88,-0.49,0.01
2123282008,-0.88,-0.49,0.01
2123284001,-0.88,-0.49,0.01
2123286002,-0.88,-0.48,0.01
2123288005,-0.88,-0.48,0.01
2123290013,-0.88,-0.48,0.01
2123292008,-0.88,-0.48,0.01
2123294005,-0.88,-0.48,0.01
2123295991,-0.88,-0.48,0.01
2123297980,-0.88,-0.48,0.01
2123299977,-0.88,-0.48,0.01
2123302085,-0.88,-0.48,0.01
2123303974,-0.88,-0.48,0.01
2123305974,-0.88,-0.49,0.01
2123307976,-0.88,-0.49,0.01
2123309977,-0.88,-0.49,0.01
2123311976,-0.88,-0.49,0.01
2123313992,-0.88,-0.49,0.01
2123316121,-0.88,-0.48,0.01
2123318019,-0.88,-0.48,0.01
2123319977,-0.88,-0.48,0.01
2123322019,-0.88,-0.48,0.01
2123324004,-0.88,-0.48,0.01
2123326120,-0.88,-0.48,0.01
2123328009,-0.88,-0.48,0.01
2123330006,-0.88,-0.48,0.01
2123332005,-0.88,-0.48,0.01
2123334004,-0.88,-0.48,0.01
2123336008,-0.88,-0.48,0.01
2123337979,-0.88,-0.48,0.01
2123339981,-0.88,-0.48,0.01
2123341977,-0.88,-0.48,0.01
2123343985,-0.88,-0.48,0.01
2123345979,-0.88,-0.48,0.01
2123347976,-0.88,-0.48,0.01
2123349977,-0.88,-0.48,0.01
2123352081,-0.88,-0.48,0.01
2123353979,-0.88,-0.48,0.01
2123355979,-0.88,-0.47,0.01
2123357978,-0.88,-0.47,0.01
2123359980,-0.88,-0.47,0.01
2123362011,-0.88,-0.47,0.01
2123364001,-0.88,-0.47,0.01
2123366006,-0.88,-0.48,0.00
2123368007,-0.88,-0.48,0.00
2123370007,-0.88,-0.48,0.00
2123372007,-0.88,-0.48,0.00
2123374008,-0.88,-0.48,0.00
2123376109,-0.88,-0.47,0.01
2123378058,-0.88,-0.47,0.01
2123380013,-0.88,-0.47,0.01
2123381973,-0.88,-0.47,0.01
2123383979,-0.88,-0.47,0.01
2123385977,-0.88,-0.48,0.01
2123387982,-0.88,-0.48,0.01
2123389988,-0.88,-0.48,0.01
2123391984,-0.88,-0.48,0.01
2123393980,-0.88,-0.48,0.01
2123395989,-0.88,-0.48,0.01
2123397979,-0.88,-0.48,0.01
2123399981,-0.88,-0.48,0.01
2123402187,-0.88,-0.48,0.01
2123404031,-0.88,-0.48,0.01
2123406015,-0.88,-0.48,0.02
2123408007,-0.88,-0.48,0.02
2123410009,-0.88,-0.48,0.02
2123412010,-0.88,-0.48,0.02
2123414004,-0.88,-0.48,0.02
2123416002,-0.88,-0.48,0.01
2123418006,-0.88,-0.48,0.01
2123419980,-0.88,-0.48,0.01
2123421979,-0.88,-0.48,0.01
2123423979,-0.88,-0.48,0.01
2123426119,-0.89,-0.47,0.02
2123427981,-0.89,-0.47,0.02
2123429978,-0.89,-0.47,0.02
2123432046,-0.89,-0.47,0.02
2123434040,-0.89,-0.47,0.02
2123435985,-0.88,-0.48,0.02
2123437975,-0.88,-0.48,0.02
2123439977,-0.88,-0.48,0.02
2123442020,-0.88,-0.48,0.02
2123444001,-0.88,-0.48,0.02
2123446001,-0.88,-0.48,0.01
2123448005,-0.88,-0.48,0.01
2123450004,-0.88,-0.48,0.01
2123452119,-0.88,-0.48,0.01
2123454005,-0.88,-0.48,0.01
2123455991,-0.88,-0.48,0.01
2123457978,-0.88,-0.48,0.02
2123459973,-0.88,-0.48,0.02
2123461975,-0.88,-0.48,0.02
2123463978,-0.88,-0.48,0.02
2123465978,-0.88,-0.48,0.02
2123467978,-0.88,-0.48,0.02
2123469980,-0.88,-0.48,0.02
2123471979,-0.88,-0.48,0.02
2123473977,-0.88,-0.48,0.02
2123476077,-0.88,-0.48,0.02
2123477992,-0.88,-0.47,0.02
2123480124,-0.88,-0.47,0.02
2123482038,-0.88,-0.47,0.02
2123484006,-0.88,-0.47,0.02
2123486005,-0.88,-0.47,0.02
2123488002,-0.88,-0.47,0.02
2123490016,-0.88,-0.47,0.02
2123492003,-0.88,-0.47,0.02
2123494009,-0.88,-0.47,0.02
2123495991,-0.88,-0.47,0.02
2123497981,-0.88,-0.48,0.01
2123499977,-0.88,-0.48,0.01
2123502091,-0.88,-0.48,0.01
2123503983,-0.88,-0.48,0.01
2123506021,-0.88,-0.48,0.01
2123507975,-0.88,-0.48,0.02
2123509977,-0.88,-0.48,0.02
2123511977,-0.88,-0.48,0.02
2123513977,-0.88,-0.48,0.02
2123515975,-0.88,-0.48,0.02
2123517977,-0.88,-0.47,0.01
2123519977,-0.88,-0.47,0.01
2123522024,-0.88,-0.47,0.01
2123524006,-0.88,-0.47,0.01
2123526119,-0.88,-0.47,0.01
2123528011,-0.88,-0.48,0.01
2123530004,-0.88,-0.48,0.01
2123532007,-0.88,-0.48,0.01
2123534004,-0.88,-0.48,0.01
2123536005,-0.88,-0.48,0.01
2123537978,-0.88,-0.48,0.01
2123539974,-0.88,-0.48,0.01
2123541979,-0.88,-0.48,0.01
2123543979,-0.88,-0.48,0.01
2123545980,-0.88,-0.48,0.01
2123547979,-0.87,-0.48,0.01
2123549980,-0.87,-0.48,0.01
2123552084,-0.87,-0.48,0.01
2123553978,-0.87,-0.48,0.01
2123555978,-0.87,-0.48,0.01
2123557978,-0.87,-0.49,0.00
2123559979,-0.87,-0.49,0.00
2123562006,-0.87,-0.49,0.00
2123564018,-0.87,-0.49,0.00
2123566008,-0.87,-0.49,0.00
2123568006,-0.88,-0.48,0.00
2123570046,-0.88,-0.48,0.00
2123572025,-0.88,-0.48,0.00
2123574006,-0.88,-0.48,0.00
2123576105,-0.88,-0.48,0.00
2123577989,-0.88,-0.49,0.00
2123579981,-0.88,-0.49,0.00
2123581980,-0.88,-0.49,0.00
2123583980,-0.88,-0.49,0.00
2123585980,-0.88,-0.49,0.00
2123587982,-0.88,-0.49,0.01
2123589988,-0.88,-0.49,0.01
2123591978,-0.88,-0.49,0.01
2123593981,-0.88,-0.49,0.01
2123595991,-0.88,-0.49,0.01
2123597978,-0.89,-0.47,0.02
2123599976,-0.89,-0.47,0.02
2123602113,-0.89,-0.47,0.02
2123604005,-0.89,-0.47,0.02
2123606002,-0.89,-0.47,0.02
2123608006,-0.88,-0.50,0.01
2123610006,-0.88,-0.50,0.01
2123612003,-0.88,-0.50,0.01
2123614005,-0.88,-0.50,0.01
2123615980,-0.88,-0.50,0.01
2123617979,-0.87,-0.49,0.00
2123619980,-0.87,-0.49,0.00
2123622053,-0.87,-0.49,0.00
2123623982,-0.87,-0.49,0.00
2123626117,-0.87,-0.49,0.00
2123627986,-0.87,-0.48,0.00
2123629984,-0.87,-0.48,0.00
2123631979,-0.87,-0.48,0.00
2123633977,-0.87,-0.48,0.00
2123635977,-0.87,-0.48,0.00
2123637976,-0.87,-0.48,0.00
2123639979,-0.88,-0.48,0.00
2123642017,-0.88,-0.48,0.00
2123644037,-0.88,-0.48,0.00
2123646056,-0.88,-0.48,0.00
2123648023,-0.88,-0.48,0.00
2123650005,-0.88,-0.49,-0.00
2123652118,-0.88,-0.49,-0.00
2123654003,-0.88,-0.49,-0.00
2123656044,-0.88,-0.49,-0.00
2123658027,-0.88,-0.49,-0.00
2123660014,-0.86,-0.50,0.00
2123661979,-0.86,-0.50,0.00
2123663981,-0.86,-0.50,0.00
2123665977,-0.86,-0.50,0.00
2123667980,-0.86,-0.50,0.00
2123669980,-0.87,-0.49,0.01
2123671980,-0.87,-0.49,0.01
2123673981,-0.87,-0.49,0.01
2123676091,-0.87,-0.49,0.01
2123677988,-0.87,-0.49,0.01
2123679980,-0.88,-0.49,0.02
2123682010,-0.88,-0.49,0.02
2123684007,-0.88,-0.49,0.02
2123686007,-0.88,-0.49,0.02
2123688008,-0.88,-0.49,0.02
2123690011,-0.88,-0.49,0.04
2123692004,-0.88,-0.49,0.04
2123694010,-0.88,-0.49,0.04
2123695989,-0.88,-0.49,0.04
2123697975,-0.88,-0.49,0.04
2123699975,-0.88,-0.50,0.04
2123702166,-0.88,-0.50,0.04
2123704019,-0.88,-0.50,0.04
2123705991,-0.88,-0.50,0.04
2123707975,-0.88,-0.50,0.04
2123710014,-0.89,-0.50,0.04
2123711978,-0.89,-0.50,0.04
2123713979,-0.89,-0.50,0.04
2123715979,-0.89,-0.50,0.04
2123717980,-0.89,-0.50,0.04
2123719978,-0.88,-0.50,0.02
2123722020,-0.88,-0.50,0.02
2123724004,-0.88,-0.50,0.02
2123726119,-0.88,-0.50,0.02
2123728009,-0.88,-0.50,0.02
2123730003,-0.88,-0.49,0.00
2123732000,-0.88,-0.49,0.00
2123734007,-0.88,-0.49,0.00
2123735994,-0.88,-0.49,0.00
2123737978,-0.88,-0.49,0.00
2123739980,-0.87,-0.49,-0.00
2123741978,-0.87,-0.49,-0.00
2123743977,-0.87,-0.49,-0.00
2123745979,-0.87,-0.49,-0.00
2123747979,-0.87,-0.49,-0.00
2123749978,-0.89,-0.48,-0.02
2123752081,-0.89,-0.48,-0.02
2123753979,-0.89,-0.48,-0.02
2123755977,-0.89,-0.48,-0.02
2123757980,-0.89,-0.48,-0.02
2123760082,-0.90,-0.48,-0.03
2123762034,-0.90,-0.48,-0.03
2123764013,-0.90,-0.48,-0.03
2123766008,-0.90,-0.48,-0.03
2123768001,-0.90,-0.48,-0.03
2123770006,-0.89,-0.49,-0.03
2123772006,-0.89,-0.49,-0.03
2123774002,-0.89,-0.49,-0.03
2123776113,-0.89,-0.49,-0.03
2123777989,-0.89,-0.49,-0.03
2123779978,-0.88,-0.47,-0.02
2123781979,-0.88,-0.47,-0.02
2123783978,-0.88,-0.47,-0.02
2123785978,-0.88,-0.47,-0.02
2123787982,-0.88,-0.47,-0.02
2123789991,-0.86,-0.46,-0.01
2123791975,-0.86,-0.46,-0.01
2123793977,-0.86,-0.46,-0.01
2123795992,-0.86,-0.46,-0.01
2123797973,-0.86,-0.46,-0.01
2123799974,-0.78,-0.42,0.02
2123802115,-0.78,-0.42,0.02
2123804003,-0.78,-0.42,0.02
2123805998,-0.78,-0.42,0.02
2123808002,-0.78,-0.42,0.02
2123810003,-0.87,-0.43,0.03
2123812005,-0.87,-0.43,0.03
2123814004,-0.87,-0.43,0.03
2123815980,-0.87,-0.43,0.03
2123817979,-0.87,-0.43,0.03
2123819977,-0.87,-0.43,0.03
2123821981,-0.92,-0.43,0.02
2123823982,-0.92,-0.43,0.02
2123826118,-0.92,-0.43,0.02
2123827998,-0.92,-0.43,0.02
2123830086,-0.92,-0.43,0.02
2123832010,-0.97,-0.48,0.04
2123833973,-0.97,-0.48,0.04
2123835979,-0.97,-0.48,0.04
2123837980,-0.97,-0.48,0.04
2123839979,-0.97,-0.48,0.04
2123842021,-0.93,-0.51,-0.05
2123844001,-0.93,-0.51,-0.05
2123846001,-0.93,-0.51,-0.05
2123848005,-0.93,-0.51,-0.05
2123850006,-0.93,-0.51,-0.05
2123852120,-0.97,-0.54,0.06
2123854009,-0.97,-0.54,0.06
2123855980,-0.97,-0.54,0.06
2123857979,-0.97,-0.54,0.06
2123859981,-0.97,-0.54,0.06
2123861977,-0.85,-0.54,-0.02
2123863979,-0.85,-0.54,-0.02
2123865980,-0.85,-0.54,-0.02
2123867979,-0.85,-0.54,-0.02
2123869980,-0.85,-0.54,-0.02
2123871975,-0.84,-0.51,0.03
2123873974,-0.84,-0.51,0.03
2123876076,-0.84,-0.51,0.03
2123877987,-0.84,-0.51,0.03
2123879978,-0.84,-0.51,0.03
2123882016,-0.91,-0.50,0.04
2123884054,-0.91,-0.50,0.04
2123886034,-0.91,-0.50,0.04
2123888015,-0.91,-0.50,0.04
2123890014,-0.91,-0.50,0.04
2123892008,-0.85,-0.53,-0.01
2123894006,-0.85,-0.53,-0.01
2123896010,-0.85,-0.53,-0.01
2123897977,-0.85,-0.53,-0.01
2123899978,-0.85,-0.53,-0.01
2123902097,-0.99,-0.57,0.04
2123903975,-0.99,-0.57,0.04
2123905976,-0.99,-0.57,0.04
2123907984,-0.99,-0.57,0.04
2123909978,-0.99,-0.57,0.04
2123911980,-0.88,-0.56,-0.09
2123914003,-0.88,-0.56,-0.09
2123916017,-0.88,-0.56,-0.09
2123917981,-0.88,-0.56,-0.09
2123919980,-0.88,-0.56,-0.09
2123922020,-0.99,-0.63,0.08
2123924008,-0.99,-0.63,0.08
2123926119,-0.99,-0.63,0.08
2123928013,-0.99,-0.63,0.08
2123930013,-0.99,-0.63,0.08
2123932011,-0.95,-0.58,0.09
2123934010,-0.95,-0.58,0.09
2123935979,-0.95,-0.58,0.09
2123937979,-0.95,-0.58,0.09
2123939976,-0.95,-0.58,0.09
2123941979,-0.98,-0.61,0.02
2123943978,-0.98,-0.61,0.02
2123945981,-0.98,-0.61,0.02
2123947981,-0.98,-0.61,0.02
2123949980,-0.98,-0.61,0.02
2123952080,-0.95,-0.57,0.06
2123953979,-0.95,-0.57,0.06
2123955993,-0.95,-0.57,0.06
2123957985,-0.95,-0.57,0.06
2123959978,-0.95,-0.57,0.06
2123962015,-0.97,-0.61,0.05
2123964010,-0.97,-0.61,0.05
2123966006,-0.97,-0.61,0.05
2123968008,-0.97,-0.61,0.05
2123970028,-0.97,-0.61,0.05
2123972044,-0.96,-0.55,0.04
2123974008,-0.96,-0.55,0.04
2123976103,-0.96,-0.55,0.04
2123977989,-0.96,-0.55,0.04
2123979979,-0.96,-0.55,0.04
2123981984,-0.97,-0.54,0.07
2123983981,-0.97,-0.54,0.07
2123985980,-0.97,-0.54,0.07
2123987984,-0.97,-0.54,0.07
2123989992,-0.97,-0.54,0.07
2123991978,-0.96,-0.53,0.06
2123993984,-0.96,-0.53,0.06
2123995991,-0.96,-0.53,0.06
2123997977,-0.96,-0.53,0.06
2123999975,-0.96,-0.53,0.06
2124002115,-1.00,-0.51,0.05
2124004008,-1.00,-0.51,0.05
2124006010,-1.00,-0.51,0.05
2124008011,-1.00,-0.51,0.05
2124010006,-1.00,-0.51,0.05
2124012008,-1.00,-0.51,0.05
2124013993,-1.00,-0.52,0.02
2124015979,-1.00,-0.52,0.02
2124017979,-1.00,-0.52,0.02
2124019979,-1.00,-0.52,0.02
2124022058,-1.00,-0.52,0.02
2124024000,-0.96,-0.52,0.05
2124026115,-0.96,-0.52,0.05
2124027987,-0.96,-0.52,0.05
2124029978,-0.96,-0.52,0.05
2124031980,-0.96,-0.52,0.05
2124033975,-0.96,-0.50,0.07
2124035974,-0.96,-0.50,0.07
2124037976,-0.96,-0.50,0.07
2124039979,-0.96,-0.50,0.07
2124042019,-0.96,-0.50,0.07
2124044013,-0.95,-0.44,0.05
2124046005,-0.95,-0.44,0.05
2124048010,-0.95,-0.44,0.05
2124050008,-0.95,-0.44,0.05
2124052107,-0.95,-0.44,0.05
2124053985,-0.97,-0.43,0.04
2124055976,-0.97,-0.43,0.04
2124057978,-0.97,-0.43,0.04
2124059977,-0.97,-0.43,0.04
2124061978,-0.97,-0.43,0.04
2124063976,-0.95,-0.40,0.03
2124065981,-0.95,-0.40,0.03
2124067978,-0.95,-0.40,0.03
2124070062,-0.95,-0.40,0.03
2124072022,-0.95,-0.40,0.03
2124073973,-0.95,-0.39,0.02
2124076088,-0.95,-0.39,0.02
2124077991,-0.95,-0.39,0.02
2124079977,-0.95,-0.39,0.02
2124082020,-0.95,-0.39,0.02
2124084005,-0.96,-0.38,0.03
2124086003,-0.96,-0.38,0.03
2124088010,-0.96,-0.38,0.03
2124090016,-0.96,-0.38,0.03
2124092006,-0.96,-0.38,0.03
2124094008,-0.94,-0.36,0.04
2124095993,-0.94,-0.36,0.04
2124097972,-0.94,-0.36,0.04
2124099977,-0.94,-0.36,0.04
2124102083,-0.94,-0.36,0.04
2124103980,-0.96,-0.36,0.07
2124105979,-0.96,-0.36,0.07
2124107977,-0.96,-0.36,0.07
2124109976,-0.96,-0.36,0.07
2124111973,-0.96,-0.36,0.07
2124113977,-0.96,-0.36,0.03
2124116038,-0.96,-0.36,0.03
2124118028,-0.96,-0.36,0.03
2124120014,-0.96,-0.36,0.03
2124122028,-0.96,-0.36,0.03
2124124004,-0.95,-0.35,0.05
2124126120,-0.95,-0.35,0.05
2124128008,-0.95,-0.35,0.05
2124130003,-0.95,-0.35,0.05
2124132004,-0.95,-0.35,0.05
2124134007,-0.96,-0.34,0.07
2124135981,-0.96,-0.34,0.07
2124137976,-0.96,-0.34,0.07
2124139977,-0.96,-0.34,0.07
2124141979,-0.96,-0.34,0.07
2124143980,-0.95,-0.32,0.07
2124145978,-0.95,-0.32,0.07
2124147980,-0.95,-0.32,0.07
2124149984,-0.95,-0.32,0.07
2124152081,-0.95,-0.32,0.07
2124153985,-0.96,-0.32,0.06
2124155976,-0.96,-0.32,0.06
2124157976,-0.96,-0.32,0.06
2124159979,-0.96,-0.32,0.06
2124162070,-0.96,-0.32,0.06
2124164034,-0.95,-0.31,0.05
2124166005,-0.95,-0.31,0.05
2124168004,-0.95,-0.31,0.05
2124170006,-0.95,-0.31,0.05
2124172004,-0.95,-0.31,0.05
2124174004,-0.93,-0.28,0.05
2124176120,-0.93,-0.28,0.05
2124177988,-0.93,-0.28,0.05
2124179977,-0.93,-0.28,0.05
2124181981,-0.93,-0.28,0.05
2124183980,-0.93,-0.28,0.04
2124185979,-0.93,-0.28,0.04
2124187983,-0.93,-0.28,0.04
2124189992,-0.93,-0.28,0.04
2124191976,-0.93,-0.28,0.04
2124193979,-0.93,-0.28,0.04
2124195992,-0.90,-0.25,0.06
2124197976,-0.90,-0.25,0.06
2124199975,-0.90,-0.25,0.06
2124202121,-0.90,-0.25,0.06
2124204004,-0.90,-0.25,0.06
2124206038,-0.89,-0.25,0.04
2124208062,-0.89,-0.25,0.04
2124210042,-0.89,-0.25,0.04
2124212005,-0.89,-0.25,0.04
2124214004,-0.89,-0.25,0.04
2124216005,-0.89,-0.23,0.04
2124218003,-0.89,-0.23,0.04
2124219984,-0.89,-0.23,0.04
2124222022,-0.89,-0.23,0.04
2124223983,-0.89,-0.23,0.04
2124226320,-0.89,-0.22,0.03
2124228037,-0.89,-0.22,0.03
2124229993,-0.89,-0.22,0.03
2124231976,-0.89,-0.22,0.03
2124233977,-0.89,-0.22,0.03
2124235976,-0.91,-0.23,0.02
2124237975,-0.91,-0.23,0.02
2124239977,-0.91,-0.23,0.02
2124242017,-0.91,-0.23,0.02
2124244004,-0.91,-0.23,0.02
2124246004,-0.89,-0.23,0.03
2124248006,-0.89,-0.23,0.03
2124250008,-0.89,-0.23,0.03
2124252117,-0.89,-0.23,0.03
2124254016,-0.89,-0.23,0.03
2124256124,-0.89,-0.23,0.04
2124258016,-0.89,-0.23,0.04
2124259979,-0.89,-0.23,0.04
2124261979,-0.89,-0.23,0.04
2124263977,-0.89,-0.23,0.04
2124265979,-0.87,-0.21,0.04
2124267980,-0.87,-0.21,0.04
2124269979,-0.87,-0.21,0.04
2124271975,-0.87,-0.21,0.04
2124273979,-0.87,-0.21,0.04
2124276092,-0.87,-0.21,0.03
2124277987,-0.87,-0.21,0.03
2124279978,-0.87,-0.21,0.03
2124282015,-0.87,-0.21,0.03
2124284005,-0.87,-0.21,0.03
2124286005,-0.86,-0.21,0.03
2124288004,-0.86,-0.21,0.03
2124290007,-0.86,-0.21,0.03
2124292004,-0.86,-0.21,0.03
2124294006,-0.86,-0.21,0.03
2124295991,-0.85,-0.21,0.03
2124297980,-0.85,-0.21,0.03
2124300002,-0.85,-0.21,0.03
2124302235,-0.85,-0.21,0.03
2124304014,-0.85,-0.21,0.03
2124305977,-0.87,-0.21,0.02
2124307977,-0.87,-0.21,0.02
2124309980,-0.87,-0.21,0.02
2124311974,-0.87,-0.21,0.02
2124313977,-0.87,-0.21,0.02
2124315981,-0.87,-0.20,0.00
2124317980,-0.87,-0.20,0.00
2124319979,-0.87,-0.20,0.00
2124322021,-0.87,-0.20,0.00
2124324034,-0.87,-0.20,0.00
2124326119,-0.88,-0.21,0.02
2124328012,-0.88,-0.21,0.02
2124330005,-0.88,-0.21,0.02
2124332003,-0.88,-0.21,0.02
2124334001,-0.88,-0.21,0.02
2124336007,-0.90,-0.21,0.04
2124337976,-0.90,-0.21,0.04
2124339980,-0.90,-0.21,0.04
2124341979,-0.90,-0.21,0.04
2124343979,-0.90,-0.21,0.04
2124345979,-0.90,-0.24,0.03
2124347979,-0.90,-0.24,0.03
2124349983,-0.90,-0.24,0.03
2124352082,-0.90,-0.24,0.03
2124353980,-0.90,-0.24,0.03
2124355980,-0.92,-0.25,0.03
2124357976,-0.92,-0.25,0.03
2124359978,-0.92,-0.25,0.03
2124362013,-0.92,-0.25,0.03
2124364004,-0.92,-0.25,0.03
2124366005,-0.91,-0.25,0.05
2124368001,-0.91,-0.25,0.05
2124370001,-0.91,-0.25,0.05
2124372007,-0.91,-0.25,0.05
2124373987,-0.91,-0.25,0.05
2124376080,-0.91,-0.25,0.05
2124377989,-0.90,-0.26,0.05
2124379978,-0.90,-0.26,0.05
2124381979,-0.90,-0.26,0.05
2124383975,-0.90,-0.26,0.05
2124385979,-0.90,-0.26,0.05
2124387982,-0.91,-0.25,0.05
2124389991,-0.91,-0.25,0.05
2124391980,-0.91,-0.25,0.05
2124393979,-0.91,-0.25,0.05
2124395993,-0.91,-0.25,0.05
2124397974,-0.90,-0.24,0.06
2124399974,-0.90,-0.24,0.06
2124402113,-0.90,-0.24,0.06
2124404005,-0.90,-0.24,0.06
2124406002,-0.90,-0.24,0.06
2124408002,-0.91,-0.23,0.07
2124410032,-0.91,-0.23,0.07
2124412048,-0.91,-0.23,0.07
2124414052,-0.91,-0.23,0.07
2124416015,-0.91,-0.23,0.07
2124418007,-0.93,-0.24,0.06
2124419984,-0.93,-0.24,0.06
2124421980,-0.93,-0.24,0.06
2124423981,-0.93,-0.24,0.06
2124426120,-0.93,-0.24,0.06
2124427987,-0.96,-0.25,0.07
2124430027,-0.96,-0.25,0.07
2124431979,-0.96,-0.25,0.07
2124433974,-0.96,-0.25,0.07
2124435977,-0.96,-0.25,0.07
2124437976,-0.96,-0.27,0.08
2124439976,-0.96,-0.27,0.08
2124442017,-0.96,-0.27,0.08
2124444006,-0.96,-0.27,0.08
2124446004,-0.96,-0.27,0.08
2124448002,-0.97,-0.29,0.08
2124449999,-0.97,-0.29,0.08
2124452111,-0.97,-0.29,0.08
2124454001,-0.97,-0.29,0.08
2124455992,-0.97,-0.29,0.08
2124458126,-0.93,-0.29,0.09
2124460018,-0.93,-0.29,0.09
2124461979,-0.93,-0.29,0.09
2124463979,-0.93,-0.29,0.09
2124465978,-0.93,-0.29,0.09
2124467980,-0.96,-0.29,0.05
2124469977,-0.96,-0.29,0.05
2124471978,-0.96,-0.29,0.05
2124473979,-0.96,-0.29,0.05
2124476092,-0.96,-0.29,0.05
2124477988,-0.86,-0.27,0.11
2124479980,-0.86,-0.27,0.11
2124482022,-0.86,-0.27,0.11
2124484003,-0.86,-0.27,0.11
2124486000,-0.86,-0.27,0.11
2124488006,-1.01,-0.29,0.11
2124490017,-1.01,-0.29,0.11
2124492013,-1.01,-0.29,0.11
2124494005,-1.01,-0.29,0.11
2124495992,-1.01,-0.29,0.11
2124497977,-0.90,-0.24,0.07
2124499980,-0.90,-0.24,0.07
2124502086,-0.90,-0.24,0.07
2124503977,-0.90,-0.24,0.07
2124506067,-0.90,-0.24,0.07
2124508021,-0.97,-0.28,0.09
2124509977,-0.97,-0.28,0.09
2124511980,-0.97,-0.28,0.09
2124513982,-0.97,-0.28,0.09
2124515975,-0.97,-0.28,0.09
2124517974,-0.92,-0.27,0.07
2124519980,-0.92,-0.27,0.07
2124522026,-0.92,-0.27,0.07
2124524003,-0.92,-0.27,0.07
2124526120,-0.92,-0.27,0.07
2124528009,-0.93,-0.29,0.11
2124530056,-0.93,-0.29,0.11
2124532005,-0.93,-0.29,0.11
2124534003,-0.93,-0.29,0.11
2124536008,-0.93,-0.29,0.11
2124537978,-0.92,-0.28,0.10
2124539979,-0.92,-0.28,0.10
2124541976,-0.92,-0.28,0.10
2124543973,-0.92,-0.28,0.10
2124545981,-0.92,-0.28,0.10
2124547986,-0.93,-0.27,0.08
2124549981,-0.93,-0.27,0.08
2124552090,-0.93,-0.27,0.08
2124553979,-0.93,-0.27,0.08
2124555979,-0.93,-0.27,0.08
2124557973,-0.96,-0.29,0.12
2124559977,-0.96,-0.29,0.12
2124562008,-0.96,-0.29,0.12
2124564001,-0.96,-0.29,0.12
2124566009,-0.96,-0.29,0.12
2124568005,-0.96,-0.29,0.12
2124570002,-0.90,-0.30,0.12
2124572005,-0.90,-0.30,0.12
2124573995,-0.90,-0.30,0.12
2124576076,-0.90,-0.30,0.12
2124577986,-0.90,-0.30,0.12
2124579977,-0.97,-0.31,0.09
2124581980,-0.97,-0.31,0.09
2124583978,-0.97,-0.31,0.09
2124585975,-0.97,-0.31,0.09
2124587982,-0.97,-0.31,0.09
2124589990,-0.92,-0.28,0.09
2124592013,-0.92,-0.28,0.09
2124594058,-0.92,-0.28,0.09
2124596011,-0.92,-0.28,0.09
2124597978,-0.92,-0.28,0.09
2124599977,-0.92,-0.33,0.12
2124602134,-0.92,-0.33,0.12
2124604005,-0.92,-0.33,0.12
2124606006,-0.92,-0.33,0.12
2124608007,-0.92,-0.33,0.12
2124610002,-0.89,-0.28,0.14
2124612006,-0.89,-0.28,0.14
2124614010,-0.89,-0.28,0.14
2124615980,-0.89,-0.28,0.14
2124617981,-0.89,-0.28,0.14
2124619980,-0.92,-0.29,0.08
2124622051,-0.92,-0.29,0.08
2124623978,-0.92,-0.29,0.08
2124626116,-0.92,-0.29,0.08
2124627986,-0.92,-0.29,0.08
2124629990,-0.92,-0.29,0.11
2124632030,-0.92,-0.29,0.11
2124633979,-0.92,-0.29,0.11
2124635980,-0.92,-0.29,0.11
2124637977,-0.92,-0.29,0.11
2124639978,-0.91,-0.30,0.11
2124642023,-0.91,-0.30,0.11
2124644054,-0.91,-0.30,0.11
2124646043,-0.91,-0.30,0.11
2124648004,-0.91,-0.30,0.11
2124650004,-0.93,-0.30,0.11
2124652122,-0.93,-0.30,0.11
2124654010,-0.93,-0.30,0.11
2124656005,-0.93,-0.30,0.11
2124658010,-0.93,-0.30,0.11
2124659979,-0.93,-0.29,0.11
2124661979,-0.93,-0.29,0.11
2124663979,-0.93,-0.29,0.11
2124665976,-0.93,-0.29,0.11
2124667979,-0.93,-0.29,0.11
2124669977,-0.94,-0.33,0.11
2124671979,-0.94,-0.33,0.11
2124673979,-0.94,-0.33,0.11
2124676078,-0.94,-0.33,0.11
2124677988,-0.94,-0.33,0.11
2124679981,-0.92,-0.32,0.12
2124682017,-0.92,-0.32,0.12
2124684005,-0.92,-0.32,0.12
2124686009,-0.92,-0.32,0.12
2124688004,-0.92,-0.32,0.12
2124690069,-0.94,-0.32,0.12
2124692041,-0.94,-0.32,0.12
2124694003,-0.94,-0.32,0.12
2124696015,-0.94,-0.32,0.12
2124698008,-0.94,-0.32,0.12
2124699979,-0.94,-0.31,0.12
2124702099,-0.94,-0.31,0.12
2124703979,-0.94,-0.31,0.12
2124705992,-0.94,-0.31,0.12
2124707979,-0.94,-0.31,0.12
2124709978,-0.95,-0.32,0.13
2124711978,-0.95,-0.32,0.13
2124713980,-0.95,-0.32,0.13
2124715975,-0.95,-0.32,0.13
2124717978,-0.95,-0.32,0.13
2124719981,-0.95,-0.32,0.14
2124722013,-0.95,-0.32,0.14
2124724005,-0.95,-0.32,0.14
2124726112,-0.95,-0.32,0.14
2124728009,-0.95,-0.32,0.14
2124730006,-0.95,-0.30,0.15
2124732004,-0.95,-0.30,0.15
2124734006,-0.95,-0.30,0.15
2124735980,-0.95,-0.30,0.15
2124737976,-0.95,-0.30,0.15
2124739979,-0.96,-0.31,0.14
2124741979,-0.96,-0.31,0.14
2124743985,-0.96,-0.31,0.14
2124745979,-0.96,-0.31,0.14
2124747980,-0.96,-0.31,0.14
2124749979,-0.96,-0.31,0.14
2124752080,-0.95,-0.32,0.15
2124753977,-0.95,-0.32,0.15
2124755979,-0.95,-0.32,0.15
2124757980,-0.95,-0.32,0.15
2124759976,-0.95,-0.32,0.15
2124762014,-0.96,-0.34,0.15
2124764004,-0.96,-0.34,0.15
2124766003,-0.96,-0.34,0.15
2124768001,-0.96,-0.34,0.15
2124770003,-0.96,-0.34,0.15
2124772006,-0.96,-0.32,0.14
2124773990,-0.96,-0.32,0.14
2124776077,-0.96,-0.32,0.14
2124777987,-0.96,-0.32,0.14
2124779976,-0.96,-0.32,0.14
2124781981,-0.96,-0.32,0.15
2124783980,-0.96,-0.32,0.15
2124785979,-0.96,-0.32,0.15
2124787981,-0.96,-0.32,0.15
2124789986,-0.96,-0.32,0.15
2124791977,-0.96,-0.31,0.16
2124793981,-0.96,-0.31,0.16
2124795993,-0.96,-0.31,0.16
2124797973,-0.96,-0.31,0.16
2124799979,-0.96,-0.31,0.16
2124802115,-0.96,-0.30,0.16
2124804010,-0.96,-0.30,0.16
2124806040,-0.96,-0.30,0.16
2124808005,-0.96,-0.30,0.16
2124810008,-0.96,-0.30,0.16
2124812003,-0.96,-0.30,0.14
2124814002,-0.96,-0.30,0.14
2124816010,-0.96,-0.30,0.14
2124818036,-0.96,-0.30,0.14
2124820006,-0.96,-0.30,0.14
2124821978,-0.96,-0.29,0.15
2124823978,-0.96,-0.29,0.15
2124826119,-0.96,-0.29,0.15
2124827989,-0.96,-0.29,0.15
2124829979,-0.96,-0.29,0.15
2124831977,-0.96,-0.30,0.14
2124833975,-0.96,-0.30,0.14
2124836027,-0.96,-0.30,0.14
2124837995,-0.96,-0.30,0.14
2124839977,-0.96,-0.30,0.14
2124842014,-0.98,-0.29,0.13
2124844004,-0.98,-0.29,0.13
2124846004,-0.98,-0.29,0.13
2124848005,-0.98,-0.29,0.13
2124850001,-0.98,-0.29,0.13
2124852113,-0.99,-0.31,0.12
2124854006,-0.99,-0.31,0.12
2124855979,-0.99,-0.31,0.12
2124858030,-0.99,-0.31,0.12
2124860039,-0.99,-0.31,0.12
2124861986,-0.98,-0.32,0.13
2124863974,-0.98,-0.32,0.13
2124865979,-0.98,-0.32,0.13
2124867977,-0.98,-0.32,0.13
2124869976,-0.98,-0.32,0.13
2124871974,-0.98,-0.31,0.12
2124873974,-0.98,-0.31,0.12
2124876096,-0.98,-0.31,0.12
2124877987,-0.98,-0.31,0.12
2124879977,-0.98,-0.31,0.12
2124882013,-0.98,-0.31,0.13
2124884004,-0.98,-0.31,0.13
2124886005,-0.98,-0.31,0.13
2124888011,-0.98,-0.31,0.13
2124890013,-0.98,-0.31,0.13
2124892007,-0.95,-0.31,0.13
2124894005,-0.95,-0.31,0.13
2124895993,-0.95,-0.31,0.13
2124897975,-0.95,-0.31,0.13
2124899981,-0.95,-0.31,0.13
2124902086,-0.94,-0.29,0.14
2124903981,-0.94,-0.29,0.14
2124906105,-0.94,-0.29,0.14
2124908014,-0.94,-0.29,0.14
2124909974,-0.94,-0.29,0.14
2124911981,-0.93,-0.29,0.08
2124913980,-0.93,-0.29,0.08
2124915979,-0.93,-0.29,0.08
2124917977,-0.93,-0.29,0.08
2124919975,-0.93,-0.29,0.08
2124922021,-0.95,-0.28,0.09
2124924003,-0.95,-0.28,0.09
2124926119,-0.95,-0.28,0.09
2124928009,-0.95,-0.28,0.09
2124930005,-0.95,-0.28,0.09
2124932004,-0.94,-0.28,0.12
2124934008,-0.94,-0.28,0.12
2124935976,-0.94,-0.28,0.12
2124937979,-0.94,-0.28,0.12
2124939984,-0.94,-0.28,0.12
2124941981,-0.94,-0.28,0.12
2124943984,-0.94,-0.27,0.11
2124945979,-0.94,-0.27,0.11
2124947979,-0.94,-0.27,0.11
2124949977,-0.94,-0.27,0.11
2124952082,-0.94,-0.27,0.11
2124953983,-0.94,-0.26,0.08
2124955992,-0.94,-0.26,0.08
2124957977,-0.94,-0.26,0.08
2124959977,-0.94,-0.26,0.08
2124962006,-0.94,-0.26,0.08
2124964005,-0.95,-0.27,0.05
2124966008,-0.95,-0.27,0.05
2124968006,-0.95,-0.27,0.05
2124970070,-0.95,-0.27,0.05
2124972039,-0.95,-0.27,0.05
2124974006,-0.95,-0.26,0.13
2124976111,-0.95,-0.26,0.13
2124977989,-0.95,-0.26,0.13
2124979986,-0.95,-0.26,0.13
2124981979,-0.95,-0.26,0.13
2124983979,-0.96,-0.27,0.08
2124985978,-0.96,-0.27,0.08
2124987981,-0.96,-0.27,0.08
2124989989,-0.96,-0.27,0.08
2124991977,-0.96,-0.27,0.08
2124993981,-0.96,-0.29,0.02
2124995991,-0.96,-0.29,0.02
2124997979,-0.96,-0.29,0.02
2124999976,-0.96,-0.29,0.02
2125002110,-0.96,-0.29,0.02
2125004009,-0.97,-0.34,0.05
2125006006,-0.97,-0.34,0.05
2125008001,-0.97,-0.34,0.05
2125010001,-0.97,-0.34,0.05
2125012003,-0.97,-0.34,0.05
2125014007,-0.96,-0.37,0.07
2125015979,-0.96,-0.37,0.07
2125017979,-0.96,-0.37,0.07
2125019980,-0.96,-0.37,0.07
2125021976,-0.96,-0.37,0.07
2125023982,-0.97,-0.38,0.03
2125026109,-0.97,-0.38,0.03
2125028011,-0.97,-0.38,0.03
2125030069,-0.97,-0.38,0.03
2125032021,-0.97,-0.38,0.03
2125033979,-0.98,-0.38,0.01
2125035976,-0.98,-0.38,0.01
2125037974,-0.98,-0.38,0.01
2125039978,-0.98,-0.38,0.01
2125042053,-0.98,-0.38,0.01
2125044001,-0.94,-0.39,0.02
2125046000,-0.94,-0.39,0.02
2125048004,-0.94,-0.39,0.02
2125050005,-0.94,-0.39,0.02
2125052122,-0.94,-0.39,0.02
2125054003,-0.93,-0.39,0.00
2125056009,-0.93,-0.39,0.00
2125057979,-0.93,-0.39,0.00
2125059980,-0.93,-0.39,0.00
2125061979,-0.93,-0.39,0.00
2125063975,-0.91,-0.38,-0.02
2125065977,-0.91,-0.38,-0.02
2125067979,-0.91,-0.38,-0.02
2125069981,-0.91,-0.38,-0.02
2125071981,-0.91,-0.38,-0.02
2125073976,-0.92,-0.40,-0.04
2125076077,-0.92,-0.40,-0.04
2125077988,-0.92,-0.40,-0.04
2125079981,-0.92,-0.40,-0.04
2125082014,-0.92,-0.40,-0.04
2125084006,-0.91,-0.39,-0.03
2125086006,-0.91,-0.39,-0.03
2125088003,-0.91,-0.39,-0.03
2125090007,-0.91,-0.39,-0.03
2125092006,-0.91,-0.39,-0.03
2125094010,-0.91,-0.39,-0.05
2125095989,-0.91,-0.39,-0.05
2125097980,-0.91,-0.39,-0.05
2125099979,-0.91,-0.39,-0.05
2125102086,-0.91,-0.39,-0.05
2125103977,-0.91,-0.39,-0.04
2125105976,-0.91,-0.39,-0.04
2125107980,-0.91,-0.39,-0.04
2125109980,-0.91,-0.39,-0.04
2125111979,-0.91,-0.39,-0.04
2125113977,-0.90,-0.38,-0.03
2125115979,-0.90,-0.38,-0.03
2125117977,-0.90,-0.38,-0.03
2125119979,-0.90,-0.38,-0.03
2125122012,-0.90,-0.38,-0.03
2125124004,-0.90,-0.38,-0.03
2125126112,-0.89,-0.36,-0.02
2125128009,-0.89,-0.36,-0.02
2125130045,-0.89,-0.36,-0.02
2125132022,-0.89,-0.36,-0.02
2125134003,-0.89,-0.36,-0.02
2125136010,-0.90,-0.33,-0.02
2125137979,-0.90,-0.33,-0.02
2125139978,-0.90,-0.33,-0.02
2125141992,-0.90,-0.33,-0.02
2125144025,-0.90,-0.33,-0.02
2125145975,-0.90,-0.33,-0.01
2125147977,-0.90,-0.33,-0.01
2125149978,-0.90,-0.33,-0.01
2125152092,-0.90,-0.33,-0.01
2125154036,-0.90,-0.33,-0.01
2125156002,-0.89,-0.31,-0.01
2125157975,-0.89,-0.31,-0.01
2125159975,-0.89,-0.31,-0.01
2125162015,-0.89,-0.31,-0.01
2125164005,-0.89,-0.31,-0.01
2125166002,-0.90,-0.29,0.00
2125168005,-0.90,-0.29,0.00
2125170001,-0.90,-0.29,0.00
2125172006,-0.90,-0.29,0.00
2125174003,-0.90,-0.29,0.00
2125176090,-0.89,-0.25,0.00
2125177990,-0.89,-0.25,0.00
2125179980,-0.89,-0.25,0.00
2125181977,-0.89,-0.25,0.00
2125184062,-0.89,-0.25,0.00
2125186022,-0.89,-0.24,0.00
2125187980,-0.89,-0.24,0.00
2125189991,-0.89,-0.24,0.00
2125191977,-0.89,-0.24,0.00
2125193986,-0.89,-0.24,0.00
2125195991,-0.88,-0.23,-0.00
2125197977,-0.88,-0.23,-0.00
2125199979,-0.88,-0.23,-0.00
2125202138,-0.88,-0.23,-0.00
2125204005,-0.88,-0.23,-0.00
2125206011,-0.88,-0.22,0.01
2125208003,-0.88,-0.22,0.01
2125210007,-0.88,-0.22,0.01
2125212005,-0.88,-0.22,0.01
2125214008,-0.88,-0.22,0.01
2125215979,-0.89,-0.20,0.00
2125217976,-0.89,-0.20,0.00
2125219976,-0.89,-0.20,0.00
2125221980,-0.89,-0.20,0.00
2125223979,-0.89,-0.20,0.00
2125226110,-0.89,-0.19,0.00
2125227981,-0.89,-0.19,0.00
2125230028,-0.89,-0.19,0.00
2125232041,-0.89,-0.19,0.00
2125233993,-0.89,-0.19,0.00
2125235979,-0.92,-0.20,0.00
2125237973,-0.92,-0.20,0.00
2125239976,-0.92,-0.20,0.00
2125242021,-0.92,-0.20,0.00
2125244002,-0.92,-0.20,0.00
2125246001,-0.92,-0.19,-0.01
2125248006,-0.92,-0.19,-0.01
2125250003,-0.92,-0.19,-0.01
2125252116,-0.92,-0.19,-0.01
2125254007,-0.92,-0.19,-0.01
2125255980,-0.93,-0.20,-0.02
2125257978,-0.93,-0.20,-0.02
2125259978,-0.93,-0.20,-0.02
2125261978,-0.93,-0.20,-0.02
2125263977,-0.93,-0.20,-0.02
2125265979,-0.93,-0.21,-0.03
2125267988,-0.93,-0.21,-0.03
2125269976,-0.93,-0.21,-0.03
2125271981,-0.93,-0.21,-0.03
2125273979,-0.93,-0.21,-0.03
2125276072,-0.93,-0.24,-0.04
2125277986,-0.93,-0.24,-0.04
2125279976,-0.93,-0.24,-0.04
2125282010,-0.93,-0.24,-0.04
2125284004,-0.93,-0.24,-0.04
2125286006,-0.94,-0.26,-0.05
2125288008,-0.94,-0.26,-0.05
2125290011,-0.94,-0.26,-0.05
2125292005,-0.94,-0.26,-0.05
2125293996,-0.94,-0.26,-0.05
2125296062,-0.95,-0.28,-0.07
2125298025,-0.95,-0.28,-0.07
2125299974,-0.95,-0.28,-0.07
2125302095,-0.95,-0.28,-0.07
2125303978,-0.95,-0.28,-0.07
2125305974,-0.97,-0.29,-0.07
2125307979,-0.97,-0.29,-0.07
2125309976,-0.97,-0.29,-0.07
2125311975,-0.97,-0.29,-0.07
2125313976,-0.97,-0.29,-0.07
2125315975,-0.97,-0.29,-0.07
2125317975,-0.97,-0.31,-0.07
2125319976,-0.97,-0.31,-0.07
2125322014,-0.97,-0.31,-0.07
2125324004,-0.97,-0.31,-0.07
2125326112,-0.97,-0.31,-0.07
2125328011,-0.97,-0.32,-0.08
2125330005,-0.97,-0.32,-0.08
2125332005,-0.97,-0.32,-0.08
2125334009,-0.97,-0.32,-0.08
2125335979,-0.97,-0.32,-0.08
2125337980,-0.97,-0.35,-0.08
2125339980,-0.97,-0.35,-0.08
2125341981,-0.97,-0.35,-0.08
2125343976,-0.97,-0.35,-0.08
2125346007,-0.97,-0.35,-0.08
2125348047,-0.95,-0.37,-0.06
2125349993,-0.95,-0.37,-0.06
2125352090,-0.95,-0.37,-0.06
2125353975,-0.95,-0.37,-0.06
2125355978,-0.95,-0.37,-0.06
2125358087,-0.96,-0.38,-0.06
2125360012,-0.96,-0.38,-0.06
2125362021,-0.96,-0.38,-0.06
2125364003,-0.96,-0.38,-0.06
2125366003,-0.96,-0.38,-0.06
2125368002,-0.95,-0.38,-0.05
2125370004,-0.95,-0.38,-0.05
2125372005,-0.95,-0.38,-0.05
2125374008,-0.95,-0.38,-0.05
2125376093,-0.95,-0.38,-0.05
2125377988,-0.96,-0.36,-0.05
2125379977,-0.96,-0.36,-0.05
2125381977,-0.96,-0.36,-0.05
2125383980,-0.96,-0.36,-0.05
2125385982,-0.96,-0.36,-0.05
2125387984,-0.95,-0.33,-0.07
2125389991,-0.95,-0.33,-0.07
2125391975,-0.95,-0.33,-0.07
2125393984,-0.95,-0.33,-0.07
2125395993,-0.95,-0.33,-0.07
2125397977,-0.95,-0.32,-0.06
2125399985,-0.95,-0.32,-0.06
2125402110,-0.95,-0.32,-0.06
2125404009,-0.95,-0.32,-0.06
2125406006,-0.95,-0.32,-0.06
2125408001,-0.95,-0.31,-0.06
2125410005,-0.95,-0.31,-0.06
2125412005,-0.95,-0.31,-0.06
2125414007,-0.95,-0.31,-0.06
2125415980,-0.95,-0.31,-0.06
2125417976,-0.95,-0.30,-0.07
2125419981,-0.95,-0.30,-0.07
2125421981,-0.95,-0.30,-0.07
2125423983,-0.95,-0.30,-0.07
2125426112,-0.95,-0.30,-0.07
2125427987,-0.94,-0.27,-0.06
2125429978,-0.94,-0.27,-0.06
2125431977,-0.94,-0.27,-0.06
2125433977,-0.94,-0.27,-0.06
2125435974,-0.94,-0.27,-0.06
2125437975,-0.94,-0.26,-0.05
2125439977,-0.94,-0.26,-0.05
2125442017,-0.94,-0.26,-0.05
2125444001,-0.94,-0.26,-0.05
2125446004,-0.94,-0.26,-0.05
2125448037,-0.94,-0.25,-0.05
2125450035,-0.94,-0.25,-0.05
2125452116,-0.94,-0.25,-0.05
2125454006,-0.94,-0.25,-0.05
2125456015,-0.94,-0.25,-0.05
2125457981,-0.93,-0.25,-0.05
2125459976,-0.93,-0.25,-0.05
2125461979,-0.93,-0.25,-0.05
2125463977,-0.93,-0.25,-0.05
2125465986,-0.93,-0.25,-0.05
2125467978,-0.92,-0.26,-0.05
2125469977,-0.92,-0.26,-0.05
2125471978,-0.92,-0.26,-0.05
2125473977,-0.92,-0.26,-0.05
2125476076,-0.92,-0.26,-0.05
2125477991,-0.92,-0.27,-0.07
2125480037,-0.92,-0.27,-0.07
2125482012,-0.92,-0.27,-0.07
2125484004,-0.92,-0.27,-0.07
2125485998,-0.92,-0.27,-0.07
2125488002,-0.90,-0.29,-0.10
2125490009,-0.90,-0.29,-0.10
2125492005,-0.90,-0.29,-0.10
2125494006,-0.90,-0.29,-0.10
2125495991,-0.90,-0.29,-0.10
2125497978,-0.90,-0.29,-0.10
2125499978,-0.91,-0.29,-0.09
2125502095,-0.91,-0.29,-0.09
2125503979,-0.91,-0.29,-0.09
2125505977,-0.91,-0.29,-0.09
2125507976,-0.91,-0.29,-0.09
2125509976,-0.94,-0.29,-0.10
2125511977,-0.94,-0.29,-0.10
2125513980,-0.94,-0.29,-0.10
2125515978,-0.94,-0.29,-0.10
2125517977,-0.94,-0.29,-0.10
2125519974,-0.95,-0.28,-0.07
2125522011,-0.95,-0.28,-0.07
2125524004,-0.95,-0.28,-0.07
2125526112,-0.95,-0.28,-0.07
2125528006,-0.95,-0.28,-0.07
2125530006,-0.94,-0.31,-0.11
2125532007,-0.94,-0.31,-0.11
2125534004,-0.94,-0.31,-0.11
2125535975,-0.94,-0.31,-0.11
2125537984,-0.94,-0.31,-0.11
2125539984,-0.98,-0.32,-0.12
2125541984,-0.98,-0.32,-0.12
2125543978,-0.98,-0.32,-0.12
2125546064,-0.98,-0.32,-0.12
2125548020,-0.98,-0.32,-0.12
2125549977,-0.94,-0.34,-0.10
2125552092,-0.94,-0.34,-0.10
2125553984,-0.94,-0.34,-0.10
2125555988,-0.94,-0.34,-0.10
2125558017,-0.94,-0.34,-0.10
2125559974,-1.00,-0.38,-0.10
2125562024,-1.00,-0.38,-0.10
2125564007,-1.00,-0.38,-0.10
2125566005,-1.00,-0.38,-0.10
2125568004,-1.00,-0.38,-0.10
2125570002,-0.98,-0.37,-0.08
2125572000,-0.98,-0.37,-0.08
2125574008,-0.98,-0.37,-0.08
2125576089,-0.98,-0.37,-0.08
2125577986,-0.98,-0.37,-0.08
2125579976,-1.01,-0.41,-0.08
2125581976,-1.01,-0.41,-0.08
2125583979,-1.01,-0.41,-0.08
2125585980,-1.01,-0.41,-0.08
2125587981,-1.01,-0.41,-0.08
2125589991,-0.99,-0.38,-0.05
2125591979,-0.99,-0.38,-0.05
2125593984,-0.99,-0.38,-0.05
2125595992,-0.99,-0.38,-0.05
2125597978,-0.99,-0.38,-0.05
2125599974,-1.00,-0.41,-0.05
2125602112,-1.00,-0.41,-0.05
2125604002,-1.00,-0.41,-0.05
2125606004,-1.00,-0.41,-0.05
2125608005,-1.00,-0.41,-0.05
2125610002,-1.00,-0.40,-0.02
2125612009,-1.00,-0.40,-0.02
2125614007,-1.00,-0.40,-0.02
2125615981,-1.00,-0.40,-0.02
2125617977,-1.00,-0.40,-0.02
2125619984,-0.98,-0.42,-0.02
2125622128,-0.98,-0.42,-0.02
2125624022,-0.98,-0.42,-0.02
2125626121,-0.98,-0.42,-0.02
2125627988,-0.98,-0.42,-0.02
2125629979,-1.00,-0.43,-0.01
2125631979,-1.00,-0.43,-0.01
2125633978,-1.00,-0.43,-0.01
2125635976,-1.00,-0.43,-0.01
2125637979,-1.00,-0.43,-0.01
2125639979,-0.98,-0.41,-0.01
2125642024,-0.98,-0.41,-0.01
2125644001,-0.98,-0.41,-0.01
2125646000,-0.98,-0.41,-0.01
2125648004,-0.98,-0.41,-0.01
2125650006,-1.01,-0.43,0.00
2125652109,-1.01,-0.43,0.00
2125654007,-1.01,-0.43,0.00
2125656029,-1.01,-0.43,0.00
2125657980,-1.01,-0.43,0.00
2125659978,-1.00,-0.39,0.02
2125661981,-1.00,-0.39,0.02
2125663976,-1.00,-0.39,0.02
2125665979,-1.00,-0.39,0.02
2125667976,-1.00,-0.39,0.02
2125669980,-1.01,-0.39,0.03
2125671979,-1.01,-0.39,0.03
2125673978,-1.01,-0.39,0.03
2125676088,-1.01,-0.39,0.03
2125677988,-1.01,-0.39,0.03
2125679975,-0.98,-0.36,0.05
2125682017,-0.98,-0.36,0.05
2125684046,-0.98,-0.36,0.05
2125686029,-0.98,-0.36,0.05
2125688009,-0.98,-0.36,0.05
2125690012,-0.98,-0.36,0.05
2125692003,-0.99,-0.35,0.05
2125694008,-0.99,-0.35,0.05
2125696014,-0.99,-0.35,0.05
2125698010,-0.99,-0.35,0.05
2125699979,-0.99,-0.35,0.05
2125702099,-0.96,-0.33,0.06
2125703983,-0.96,-0.33,0.06
2125705991,-0.96,-0.33,0.06
2125707979,-0.96,-0.33,0.06
2125709978,-0.96,-0.33,0.06
2125711980,-0.95,-0.32,0.07
2125713976,-0.95,-0.32,0.07
2125715980,-0.95,-0.32,0.07
2125717979,-0.95,-0.32,0.07
2125719979,-0.95,-0.32,0.07
2125722012,-0.93,-0.31,0.07
2125724005,-0.93,-0.31,0.07
2125726116,-0.93,-0.31,0.07
2125728011,-0.93,-0.31,0.07
2125730002,-0.93,-0.31,0.07
2125732003,-0.92,-0.29,0.05
2125734009,-0.92,-0.29,0.05
2125735979,-0.92,-0.29,0.05
2125737979,-0.92,-0.29,0.05
2125739980,-0.92,-0.29,0.05
2125741980,-0.93,-0.30,0.05
2125743980,-0.93,-0.30,0.05
2125745977,-0.93,-0.30,0.05
2125747977,-0.93,-0.30,0.05
2125749979,-0.93,-0.30,0.05
2125752078,-0.91,-0.29,0.06
2125753984,-0.91,-0.29,0.06
2125756025,-0.91,-0.29,0.06
2125757991,-0.91,-0.29,0.06
2125759975,-0.91,-0.29,0.06
2125762016,-0.90,-0.31,0.06
2125764004,-0.90,-0.31,0.06
2125766004,-0.90,-0.31,0.06
2125768005,-0.90,-0.31,0.06
2125770008,-0.90,-0.31,0.06
2125772030,-0.89,-0.34,0.05
2125774020,-0.89,-0.34,0.05
2125776114,-0.89,-0.34,0.05
2125777989,-0.89,-0.34,0.05
2125779981,-0.89,-0.34,0.05
2125781979,-0.91,-0.38,0.05
2125783979,-0.91,-0.38,0.05
2125785979,-0.91,-0.38,0.05
2125787981,-0.91,-0.38,0.05
2125789989,-0.91,-0.38,0.05
2125791992,-0.91,-0.40,0.05
2125793986,-0.91,-0.40,0.05
2125795992,-0.91,-0.40,0.05
2125797976,-0.91,-0.40,0.05
2125799977,-0.91,-0.40,0.05
2125802116,-0.93,-0.43,0.05
2125804001,-0.93,-0.43,0.05
2125806003,-0.93,-0.43,0.05
2125808008,-0.93,-0.43,0.05
2125810008,-0.93,-0.43,0.05
2125812001,-0.94,-0.44,0.04
2125814010,-0.94,-0.44,0.04
2125815976,-0.94,-0.44,0.04
2125817980,-0.94,-0.44,0.04
2125819982,-0.94,-0.44,0.04
2125822035,-0.94,-0.45,0.05
2125823977,-0.94,-0.45,0.05
2125826110,-0.94,-0.45,0.05
2125827989,-0.94,-0.45,0.05
2125829976,-0.94,-0.45,0.05
2125831978,-0.94,-0.47,0.04
2125833977,-0.94,-0.47,0.04
2125835976,-0.94,-0.47,0.04
2125837977,-0.94,-0.47,0.04
2125839977,-0.94,-0.47,0.04
2125842014,-0.95,-0.48,0.04
2125844002,-0.95,-0.48,0.04
2125845999,-0.95,-0.48,0.04
2125848003,-0.95,-0.48,0.04
2125850005,-0.95,-0.48,0.04
2125852105,-0.95,-0.48,0.05
2125854042,-0.95,-0.48,0.05
2125855981,-0.95,-0.48,0.05
2125858001,-0.95,-0.48,0.05
2125860040,-0.95,-0.48,0.05
2125861986,-0.94,-0.49,0.04
2125863976,-0.94,-0.49,0.04
2125865976,-0.94,-0.49,0.04
2125867976,-0.94,-0.49,0.04
2125869974,-0.94,-0.49,0.04
2125871974,-0.94,-0.49,0.04
2125873979,-0.93,-0.48,0.05
2125876083,-0.93,-0.48,0.05
2125877990,-0.93,-0.48,0.05
2125879978,-0.93,-0.48,0.05
2125882014,-0.93,-0.48,0.05
2125884008,-0.93,-0.47,0.06
2125886022,-0.93,-0.47,0.06
2125888052,-0.93,-0.47,0.06
2125890032,-0.93,-0.47,0.06
2125892004,-0.93,-0.47,0.06
2125894003,-0.93,-0.44,0.06
2125896008,-0.93,-0.44,0.06
2125898010,-0.93,-0.44,0.06
2125899978,-0.93,-0.44,0.06
2125902096,-0.93,-0.44,0.06
2125903978,-0.93,-0.40,0.07
2125905977,-0.93,-0.40,0.07
2125907974,-0.93,-0.40,0.07
2125909975,-0.93,-0.40,0.07
2125911975,-0.93,-0.40,0.07
2125913980,-0.93,-0.38,0.07
2125915977,-0.93,-0.38,0.07
2125917981,-0.93,-0.38,0.07
2125919977,-0.93,-0.38,0.07
2125922011,-0.93,-0.38,0.07
2125924004,-0.91,-0.37,0.08
2125926110,-0.91,-0.37,0.08
2125928007,-0.91,-0.37,0.08
2125930002,-0.91,-0.37,0.08
2125932002,-0.91,-0.37,0.08
2125934008,-0.91,-0.35,0.07
2125935976,-0.91,-0.35,0.07
2125937976,-0.91,-0.35,0.07
2125939980,-0.91,-0.35,0.07
2125941974,-0.91,-0.35,0.07
2125943980,-0.90,-0.34,0.07
2125945979,-0.90,-0.34,0.07
2125947977,-0.90,-0.34,0.07
2125950045,-0.90,-0.34,0.07
2125952143,-0.90,-0.34,0.07
2125953980,-0.91,-0.34,0.05
2125955992,-0.91,-0.34,0.05
2125957975,-0.91,-0.34,0.05
2125959976,-0.91,-0.34,0.05
2125962020,-0.91,-0.34,0.05
2125964005,-0.90,-0.35,0.06
2125966004,-0.90,-0.35,0.06
2125968006,-0.90,-0.35,0.06
2125970004,-0.90,-0.35,0.06
2125972003,-0.90,-0.35,0.06
2125974002,-0.90,-0.35,0.05
2125976087,-0.90,-0.35,0.05
2125977987,-0.90,-0.35,0.05
2125979977,-0.90,-0.35,0.05
2125981977,-0.90,-0.35,0.05
2125983979,-0.91,-0.35,0.05
2125985978,-0.91,-0.35,0.05
2125987987,-0.91,-0.35,0.05
2125989991,-0.91,-0.35,0.05
2125991976,-0.91,-0.35,0.05
2125993977,-0.91,-0.36,0.04
2125995989,-0.91,-0.36,0.04
2125997974,-0.91,-0.36,0.04
2125999974,-0.91,-0.36,0.04
2126002114,-0.91,-0.36,0.04
2126004006,-0.92,-0.38,0.04
2126006007,-0.92,-0.38,0.04
2126008003,-0.92,-0.38,0.04
2126010006,-0.92,-0.38,0.04
2126012005,-0.92,-0.38,0.04
2126014063,-0.93,-0.40,0.02
2126016043,-0.93,-0.40,0.02
2126017991,-0.93,-0.40,0.02
2126019979,-0.93,-0.40,0.02
2126021979,-0.93,-0.40,0.02
2126023981,-0.95,-0.42,0.01
2126026120,-0.95,-0.42,0.01
2126027986,-0.95,-0.42,0.01
2126029978,-0.95,-0.42,0.01
2126031977,-0.95,-0.42,0.01
2126033977,-0.96,-0.41,0.02
2126035979,-0.96,-0.41,0.02
2126037977,-0.96,-0.41,0.02
2126039979,-0.96,-0.41,0.02
2126042016,-0.96,-0.41,0.02
2126044007,-0.97,-0.40,0.02
2126046008,-0.97,-0.40,0.02
2126048002,-0.97,-0.40,0.02
2126050003,-0.97,-0.40,0.02
2126052103,-0.97,-0.40,0.02
2126054012,-0.97,-0.39,0.02
2126055981,-0.97,-0.39,0.02
2126057979,-0.97,-0.39,0.02
2126059981,-0.97,-0.39,0.02
2126061980,-0.97,-0.39,0.02
2126064024,-0.97,-0.39,0.02
2126065976,-0.97,-0.37,0.02
2126067977,-0.97,-0.37,0.02
2126069975,-0.97,-0.37,0.02
2126071980,-0.97,-0.37,0.02
2126073978,-0.97,-0.37,0.02
2126076080,-1.00,-0.37,0.01
2126077988,-1.00,-0.37,0.01
2126079979,-1.00,-0.37,0.01
2126082009,-1.00,-0.37,0.01
2126084000,-1.00,-0.37,0.01
2126086002,-1.00,-0.35,-0.00
2126088006,-1.00,-0.35,-0.00
2126090012,-1.00,-0.35,-0.00
2126092000,-1.00,-0.35,-0.00
2126093999,-1.00,-0.35,-0.00
2126095993,-1.00,-0.35,-0.02
2126097976,-1.00,-0.35,-0.02
2126099975,-1.00,-0.35,-0.02
2126102080,-1.00,-0.35,-0.02
2126103978,-1.00,-0.35,-0.02
2126105975,-0.97,-0.33,-0.05
2126107974,-0.97,-0.33,-0.05
2126109976,-0.97,-0.33,-0.05
2126111976,-0.97,-0.33,-0.05
2126113975,-0.97,-0.33,-0.05
2126115975,-0.96,-0.33,-0.09
2126117977,-0.96,-0.33,-0.09
2126119986,-0.96,-0.33,-0.09
2126122013,-0.96,-0.33,-0.09
2126124003,-0.96,-0.33,-0.09
2126126110,-0.95,-0.33,-0.11
2126128018,-0.95,-0.33,-0.11
2126130034,-0.95,-0.33,-0.11
2126132006,-0.95,-0.33,-0.11
2126134004,-0.95,-0.33,-0.11
2126136012,-0.92,-0.32,-0.14
2126137984,-0.92,-0.32,-0.14
2126139984,-0.92,-0.32,-0.14
2126141976,-0.92,-0.32,-0.14
2126143977,-0.92,-0.32,-0.14
2126145984,-0.91,-0.34,-0.15
2126147981,-0.91,-0.34,-0.15
2126149979,-0.91,-0.34,-0.15
2126152092,-0.91,-0.34,-0.15
2126153981,-0.91,-0.34,-0.15
2126155980,-0.88,-0.35,-0.17
2126157980,-0.88,-0.35,-0.17
2126159977,-0.88,-0.35,-0.17
2126162008,-0.88,-0.35,-0.17
2126164026,-0.88,-0.35,-0.17
2126165957,-0.87,-0.35,-0.18
2126167957,-0.87,-0.35,-0.18
2126169952,-0.87,-0.35,-0.18
2126171952,-0.87,-0.35,-0.18
2126173957,-0.87,-0.35,-0.18
2126176069,-0.86,-0.33,-0.19
2126178028,-0.86,-0.33,-0.19
2126179958,-0.86,-0.33,-0.19
2126181958,-0.86,-0.33,-0.19
2126183957,-0.86,-0.33,-0.19
2126185958,-0.85,-0.32,-0.18
2126187958,-0.85,-0.32,-0.18
2126189976,-0.85,-0.32,-0.18
2126191958,-0.85,-0.32,-0.18
2126193958,-0.85,-0.32,-0.18
2126195982,-0.85,-0.32,-0.21
2126197957,-0.85,-0.32,-0.21
2126199957,-0.85,-0.32,-0.21
2126202062,-0.85,-0.32,-0.21
2126203956,-0.85,-0.32,-0.21
2126205978,-0.86,-0.34,-0.21
2126207958,-0.86,-0.34,-0.21
2126209955,-0.86,-0.34,-0.21
2126326117,-0.93,-0.40,-0.12
2126328007,-0.93,-0.38,-0.12
2126330004,-0.93,-0.38,-0.12
2126332004,-0.93,-0.38,-0.12
2126334002,-0.93,-0.38,-0.12
2126335997,-0.93,-0.38,-0.12
2126338001,-0.93,-0.37,-0.12
2126340108,-0.93,-0.37,-0.12
2126341996,-0.93,-0.37,-0.12
2126343956,-0.93,-0.37,-0.12
2126345956,-0.93,-0.37,-0.12
2126347957,-0.93,-0.36,-0.13
2126349957,-0.93,-0.36,-0.13
2126352071,-0.93,-0.36,-0.13
2126353956,-0.93,-0.36,-0.13
2126355956,-0.93,-0.36,-0.13
2126357956,-0.92,-0.36,-0.13
2126359956,-0.92,-0.36,-0.13
2126361956,-0.92,-0.36,-0.13
2126363952,-0.92,-0.36,-0.13
2126365953,-0.92,-0.36,-0.13
2126367957,-0.90,-0.36,-0.12
2126369956,-0.90,-0.36,-0.12
2126372012,-0.90,-0.36,-0.12
2126373995,-0.90,-0.36,-0.12
2126380043,-0.91,-0.36,-0.13
2126382003,-0.91,-0.36,-0.13
2126384005,-0.91,-0.36,-0.13
2126386003,-0.91,-0.36,-0.13
2126388004,-0.91,-0.36,-0.14
2126390007,-0.91,-0.36,-0.14
2126392005,-0.91,-0.36,-0.14
2126394010,-0.91,-0.36,-0.14
2126395989,-0.91,-0.36,-0.14
2126397976,-0.91,-0.35,-0.14
2126399976,-0.91,-0.35,-0.14
2126402093,-0.91,-0.35,-0.14
2126403979,-0.91,-0.35,-0.14
2126405977,-0.91,-0.35,-0.14
2126407979,-0.91,-0.36,-0.15
2126409979,-0.91,-0.36,-0.15
2126411979,-0.91,-0.36,-0.15
2126413976,-0.91,-0.36,-0.15
2126415977,-0.91,-0.36,-0.15
2126417978,-0.91,-0.36,-0.16
2126420015,-0.91,-0.36,-0.16
2126422007,-0.91,-0.36,-0.16
2126424005,-0.91,-0.36,-0.16
2126426110,-0.91,-0.36,-0.16
2126428008,-0.92,-0.37,-0.16
2126430001,-0.92,-0.37,-0.16
2126432009,-0.92,-0.37,-0.16
2126433979,-0.92,-0.37,-0.16
2126435981,-0.92,-0.37,-0.16
2126437976,-0.92,-0.37,-0.16
2126439977,-0.91,-0.37,-0.16
2126441981,-0.91,-0.37,-0.16
2126443981,-0.91,-0.37,-0.16
2126445980,-0.91,-0.37,-0.16
2126447985,-0.91,-0.37,-0.16
2126449979,-0.93,-0.38,-0.16
2126452077,-0.93,-0.38,-0.16
2126453982,-0.93,-0.38,-0.16
2126455990,-0.93,-0.38,-0.16
2126457977,-0.93,-0.38,-0.16
2126460012,-0.92,-0.38,-0.17
2126462040,-0.92,-0.38,-0.17
2126464005,-0.92,-0.38,-0.17
2126466007,-0.92,-0.38,-0.17
2126468004,-0.92,-0.38,-0.17
2126470003,-0.93,-0.38,-0.16
2126472005,-0.93,-0.38,-0.16
2126474000,-0.93,-0.38,-0.16
2126476092,-0.93,-0.38,-0.16
2126477991,-0.93,-0.38,-0.16
2126479980,-0.93,-0.37,-0.15
2126482004,-0.93,-0.37,-0.15
2126484031,-0.93,-0.37,-0.15
2126486013,-0.93,-0.37,-0.15
2126487979,-0.93,-0.37,-0.15
2126489987,-0.91,-0.37,-0.15
2126491996,-0.91,-0.37,-0.15
2126493984,-0.91,-0.37,-0.15
2126495990,-0.91,-0.37,-0.15
2126497977,-0.91,-0.37,-0.15
2126500017,-0.91,-0.38,-0.15
2126502116,-0.91,-0.38,-0.15
2126504004,-0.91,-0.38,-0.15
2126506004,-0.91,-0.38,-0.15
2126508000,-0.91,-0.38,-0.15
2126510002,-0.91,-0.38,-0.12
2126512007,-0.91,-0.38,-0.12
2126513987,-0.91,-0.38,-0.12
2126515976,-0.91,-0.38,-0.12
2126517984,-0.91,-0.38,-0.12
2126519980,-0.91,-0.38,-0.14
2126521980,-0.91,-0.38,-0.14
2126523981,-0.91,-0.38,-0.14
2126526111,-0.91,-0.38,-0.14
2126527986,-0.91,-0.38,-0.14
2126529977,-0.91,-0.36,-0.12
2126531976,-0.91,-0.36,-0.12
2126533976,-0.91,-0.36,-0.12
2126535976,-0.91,-0.36,-0.12
2126537977,-0.91,-0.36,-0.12
2126540013,-0.90,-0.35,-0.12
2126542002,-0.90,-0.35,-0.12
2126544002,-0.90,-0.35,-0.12
2126546004,-0.90,-0.35,-0.12
2126548091,-0.90,-0.35,-0.12
2126549996,-0.92,-0.35,-0.14
2126552078,-0.92,-0.35,-0.14
2126553958,-0.92,-0.35,-0.14
2126555952,-0.92,-0.35,-0.14
2126557952,-0.92,-0.35,-0.14
2126559957,-0.91,-0.36,-0.12
2126561954,-0.91,-0.36,-0.12
2126563958,-0.91,-0.36,-0.12
2126565958,-0.91,-0.36,-0.12
2126567958,-0.91,-0.36,-0.12
2126569955,-0.91,-0.37,-0.14
2126571955,-0.91,-0.37,-0.14
2126573958,-0.91,-0.37,-0.14
2126576033,-0.91,-0.37,-0.14
2126577970,-0.91,-0.37,-0.14
2126579959,-0.91,-0.37,-0.16
2126581958,-0.91,-0.37,-0.16
2126583958,-0.91,-0.37,-0.16
2126585955,-0.91,-0.37,-0.16
2126587960,-0.91,-0.37,-0.16
2126648043,-0.90,-0.36,-0.12
2126650006,-0.90,-0.36,-0.12
2126652115,-0.89,-0.35,-0.10
2126654006,-0.89,-0.35,-0.10
2126656001,-0.89,-0.35,-0.10
2126658002,-0.89,-0.35,-0.10
2126660000,-0.89,-0.35,-0.10
2126662002,-0.91,-0.36,-0.11
2126663979,-0.91,-0.36,-0.11
2126665978,-0.91,-0.36,-0.11
2126667979,-0.91,-0.36,-0.11
2126669979,-0.91,-0.36,-0.11
2126671975,-0.91,-0.38,-0.11
2126673977,-0.91,-0.38,-0.11
2126676076,-0.91,-0.38,-0.11
2126677989,-0.91,-0.38,-0.11
2126679981,-0.91,-0.38,-0.11
2126681980,-0.93,-0.39,-0.12
2126683977,-0.93,-0.39,-0.12
2126685980,-0.93,-0.39,-0.12
2126688005,-0.93,-0.39,-0.12
2126690006,-0.93,-0.39,-0.12
2126692000,-0.94,-0.39,-0.12
2126694005,-0.94,-0.39,-0.12
2126696015,-0.94,-0.39,-0.12
2126698049,-0.94,-0.39,-0.12
2126700020,-0.94,-0.39,-0.12
2126702129,-0.94,-0.39,-0.13
2126703959,-0.94,-0.39,-0.13
2126705977,-0.94,-0.39,-0.13
2126707960,-0.94,-0.39,-0.13
2126709963,-0.94,-0.39,-0.13
2126711959,-0.95,-0.39,-0.12
2126713958,-0.95,-0.39,-0.12
2126715958,-0.95,-0.39,-0.12
2126717958,-0.95,-0.39,-0.12
2126719957,-0.95,-0.39,-0.12
2126721957,-0.94,-0.39,-0.12
2126723960,-0.94,-0.39,-0.12
2126726101,-0.94,-0.39,-0.12
2126727971,-0.94,-0.39,-0.12
2126729958,-0.94,-0.39,-0.12
2126731955,-0.95,-0.38,-0.09
2126733957,-0.95,-0.38,-0.09
2126735957,-0.95,-0.38,-0.09
2129114064,-0.88,-0.41,-0.12
2129116005,-0.88,-0.41,-0.12
2129118007,-0.89,-0.52,-0.13
2129120002,-0.89,-0.52,-0.13
2129122004,-0.89,-0.52,-0.13
2129124003,-0.89,-0.52,-0.13
2129126123,-0.89,-0.52,-0.13
2129128008,-0.88,-0.50,-0.13
2129130007,-0.88,-0.50,-0.13
2129131978,-0.88,-0.50,-0.13
2129133982,-0.88,-0.50,-0.13
2129135986,-0.88,-0.50,-0.13
2129137979,-0.87,-0.50,-0.12
2129139979,-0.87,-0.50,-0.12
2129141979,-0.87,-0.50,-0.12
2129143980,-0.87,-0.50,-0.12
2129145980,-0.87,-0.50,-0.12
2129147976,-0.88,-0.47,-0.12
2129149981,-0.88,-0.47,-0.12
2129152081,-0.88,-0.47,-0.12
2129154008,-0.88,-0.47,-0.12
2129156012,-0.88,-0.47,-0.12
2129158051,-0.85,-0.43,-0.12
2129160047,-0.85,-0.43,-0.12
2129162040,-0.85,-0.43,-0.12
2129164004,-0.85,-0.43,-0.12
2129166005,-0.85,-0.43,-0.12
2129168005,-0.87,-0.45,-0.10
2129170006,-0.87,-0.45,-0.10
2129172013,-0.87,-0.45,-0.10
2129173979,-0.87,-0.45,-0.10
2129176092,-0.87,-0.45,-0.10
2129177990,-0.86,-0.43,-0.08
2129179976,-0.86,-0.43,-0.08
2129181981,-0.86,-0.43,-0.08
2129183980,-0.86,-0.43,-0.08
2129185979,-0.86,-0.43,-0.08
2129187980,-0.87,-0.41,-0.09
2129189990,-0.87,-0.41,-0.09
2129191979,-0.87,-0.41,-0.09
2129194013,-0.87,-0.41,-0.09
2129196011,-0.87,-0.41,-0.09
2129198007,-0.90,-0.40,-0.08
2129200005,-0.90,-0.40,-0.08
2129202113,-0.90,-0.40,-0.08
2129204003,-0.90,-0.40,-0.08
2129206006,-0.90,-0.40,-0.08
2129207977,-0.93,-0.39,-0.06
2129209981,-0.93,-0.39,-0.06
2129211990,-0.93,-0.39,-0.06
2129213976,-0.93,-0.39,-0.06
2129215974,-0.93,-0.39,-0.06
2129217979,-0.93,-0.39,-0.06
2129219976,-0.93,-0.38,-0.05
2129221977,-0.93,-0.38,-0.05
2129223983,-0.93,-0.38,-0.05
2129226111,-0.93,-0.38,-0.05
2129227990,-0.93,-0.38,-0.05
2129229974,-0.95,-0.35,-0.05
2129231981,-0.95,-0.35,-0.05
2129234018,-0.95,-0.35,-0.05
2129236004,-0.95,-0.35,-0.05
2129238043,-0.95,-0.35,-0.05
2129240002,-0.95,-0.34,-0.03
2129242008,-0.95,-0.34,-0.03
2129244008,-0.95,-0.34,-0.03
2129246033,-0.95,-0.34,-0.03
2129248035,-0.95,-0.34,-0.03
2129250009,-0.96,-0.36,-0.04
2129252095,-0.96,-0.36,-0.04
2129253979,-0.96,-0.36,-0.04
2129255979,-0.96,-0.36,-0.04
2129257979,-0.96,-0.36,-0.04
2129260025,-0.96,-0.39,-0.04
2129262029,-0.96,-0.39,-0.04
2129263984,-0.96,-0.39,-0.04
2129265984,-0.96,-0.39,-0.04
2129267981,-0.96,-0.39,-0.04
2129269979,-0.96,-0.44,-0.04
2129271980,-0.96,-0.44,-0.04
2129274019,-0.96,-0.44,-0.04
2129276114,-0.96,-0.44,-0.04
2129278007,-0.96,-0.44,-0.04
2129280002,-0.94,-0.47,-0.05
2129282000,-0.94,-0.47,-0.05
2129284004,-0.94,-0.47,-0.05
2129286006,-0.94,-0.47,-0.05
2129287983,-0.94,-0.47,-0.05
2129289990,-0.91,-0.49,-0.06
2129291977,-0.91,-0.49,-0.06
2129293984,-0.91,-0.49,-0.06
2129295992,-0.91,-0.49,-0.06
2129297976,-0.91,-0.49,-0.06
2129299975,-0.89,-0.49,-0.05
2129302084,-0.89,-0.49,-0.05
2129303981,-0.89,-0.49,-0.05
2129305976,-0.89,-0.49,-0.05
2129307976,-0.89,-0.49,-0.05
2129309977,-0.92,-0.48,-0.07
2129311974,-0.92,-0.48,-0.07
2129314008,-0.92,-0.48,-0.07
2129316006,-0.92,-0.48,-0.07
2129318064,-0.92,-0.48,-0.07
2129320042,-0.92,-0.46,-0.07
2129322005,-0.92,-0.46,-0.07
2129324001,-0.92,-0.46,-0.07
2129326122,-0.92,-0.46,-0.07
2129328008,-0.92,-0.46,-0.07
2129330008,-0.91,-0.43,-0.07
2129331986,-0.91,-0.43,-0.07
2129333979,-0.91,-0.43,-0.07
2129335975,-0.91,-0.43,-0.07
2129337979,-0.91,-0.43,-0.07
2129339980,-0.88,-0.45,-0.07
2129341979,-0.88,-0.45,-0.07
2129343977,-0.88,-0.45,-0.07
2129345977,-0.88,-0.45,-0.07
2129347980,-0.88,-0.45,-0.07
2129349979,-0.85,-0.45,-0.07
2129352079,-0.85,-0.45,-0.07
2129354002,-0.85,-0.45,-0.07
2129356006,-0.85,-0.45,-0.07
2129358002,-0.85,-0.45,-0.07
2129360001,-0.84,-0.46,-0.08
2129362020,-0.84,-0.46,-0.08
2129364043,-0.84,-0.46,-0.08
2129366006,-0.84,-0.46,-0.08
2129367976,-0.84,-0.46,-0.08
2129369975,-0.81,-0.46,-0.08
2129371976,-0.81,-0.46,-0.08
2129373977,-0.81,-0.46,-0.08
2129376089,-0.81,-0.46,-0.08
2129377988,-0.81,-0.46,-0.08
2129379977,-0.83,-0.44,-0.07
2129381980,-0.83,-0.44,-0.07
2129383977,-0.83,-0.44,-0.07
2129385979,-0.83,-0.44,-0.07
2129387982,-0.83,-0.44,-0.07
2129389989,-0.82,-0.42,-0.05
2129391973,-0.82,-0.42,-0.05
2129394004,-0.82,-0.42,-0.05
2129396011,-0.82,-0.42,-0.05
2129398002,-0.82,-0.42,-0.05
2129400005,-0.82,-0.40,-0.05
2129402110,-0.82,-0.40,-0.05
2129404034,-0.82,-0.40,-0.05
2129406038,-0.82,-0.40,-0.05
2129408008,-0.82,-0.40,-0.05
2129409977,-0.82,-0.40,-0.05
2129411981,-0.82,-0.40,-0.03
2129413975,-0.82,-0.40,-0.03
2129415976,-0.82,-0.40,-0.03
2129418028,-0.82,-0.40,-0.03
2129419977,-0.82,-0.40,-0.03
2129421975,-0.81,-0.43,-0.02
2129423977,-0.81,-0.43,-0.02
2129426118,-0.81,-0.43,-0.02
2129427987,-0.81,-0.43,-0.02
2129429979,-0.81,-0.43,-0.02
2129431976,-0.80,-0.47,-0.01
2129434016,-0.80,-0.47,-0.01
2129436002,-0.80,-0.47,-0.01
2129438001,-0.80,-0.47,-0.01
2129440004,-0.80,-0.47,-0.01
2129441998,-0.83,-0.50,-0.01
2129444002,-0.83,-0.50,-0.01
2129446001,-0.83,-0.50,-0.01
2129447979,-0.83,-0.50,-0.01
2129449977,-0.83,-0.50,-0.01
2129452083,-0.82,-0.55,-0.03
2129453979,-0.82,-0.55,-0.03
2129455978,-0.82,-0.55,-0.03
2129457978,-0.82,-0.55,-0.03
2129459978,-0.82,-0.55,-0.03
2129462002,-0.82,-0.55,-0.04
2129464003,-0.82,-0.55,-0.04
2129466027,-0.82,-0.55,-0.04
2129467981,-0.82,-0.55,-0.04
2129470068,-0.82,-0.55,-0.04
2129472016,-0.85,-0.59,-0.08
2129474021,-0.85,-0.59,-0.08
2129476108,-0.85,-0.59,-0.08
2129478008,-0.85,-0.59,-0.08
2129480006,-0.85,-0.59,-0.08
2129482004,-0.90,-0.61,-0.10
2129484005,-0.90,-0.61,-0.10
2129486002,-0.90,-0.61,-0.10
2129487980,-0.90,-0.61,-0.10
2129489992,-0.90,-0.61,-0.10
2129491979,-0.96,-0.64,-0.14
2129493980,-0.96,-0.64,-0.14
2129495993,-0.96,-0.64,-0.14
2129497975,-0.96,-0.64,-0.14
2129499978,-0.96,-0.64,-0.14
2129502080,-1.02,-0.67,-0.16
2129503975,-1.02,-0.67,-0.16
2129505975,-1.02,-0.67,-0.16
2129507978,-1.02,-0.67,-0.16
2129509976,-1.02,-0.67,-0.16
2129511974,-1.04,-0.70,-0.18
2129514013,-1.04,-0.70,-0.18
2129516009,-1.04,-0.70,-0.18
2129518000,-1.04,-0.70,-0.18
2129520061,-1.04,-0.70,-0.18
2129522043,-1.03,-0.65,-0.15
2129524001,-1.03,-0.65,-0.15
2129526118,-1.03,-0.65,-0.15
2129528009,-1.03,-0.65,-0.15
2129530008,-1.03,-0.65,-0.15
2129531976,-1.03,-0.61,-0.12
2129533975,-1.03,-0.61,-0.12
2129535980,-1.03,-0.61,-0.12
2129537981,-1.03,-0.61,-0.12
2129539980,-1.03,-0.61,-0.12
2129541979,-1.07,-0.55,-0.16
2129543978,-1.07,-0.55,-0.16
2129545979,-1.07,-0.55,-0.16
2129547981,-1.07,-0.55,-0.16
2129549984,-1.07,-0.55,-0.16
2129552083,-1.06,-0.47,-0.14
2129554006,-1.06,-0.47,-0.14
2129556004,-1.06,-0.47,-0.14
2129558003,-1.06,-0.47,-0.14
2129560007,-1.06,-0.47,-0.14
2129562009,-1.00,-0.36,-0.08
2129564002,-1.00,-0.36,-0.08
2129566038,-1.00,-0.36,-0.08
2129568033,-1.00,-0.36,-0.08
2129569980,-1.00,-0.36,-0.08
2129571981,-0.99,-0.28,-0.08
2129573979,-0.99,-0.28,-0.08
2129576088,-0.99,-0.28,-0.08
2129577987,-0.99,-0.28,-0.08
2129579975,-0.99,-0.28,-0.08
2129581981,-0.99,-0.22,-0.09
2129583981,-0.99,-0.22,-0.09
2129585979,-0.99,-0.22,-0.09
2129587981,-0.99,-0.22,-0.09
2129589988,-0.99,-0.22,-0.09
2129591978,-0.99,-0.22,-0.09
2129594017,-0.99,-0.18,-0.07
2129596006,-0.99,-0.18,-0.07
2129598003,-0.99,-0.18,-0.07
2129600003,-0.99,-0.18,-0.07
2129602109,-0.98,-0.17,-0.02
2129604006,-0.98,-0.17,-0.02
2129606033,-0.98,-0.17,-0.02
2129608021,-0.98,-0.17,-0.02
2129609979,-0.98,-0.17,-0.02
2129611981,-0.98,-0.17,-0.02
2129613979,-0.95,-0.16,0.02
2129615979,-0.95,-0.16,0.02
2129618023,-0.95,-0.16,0.02
2129620009,-0.95,-0.16,0.02
2129622051,-0.95,-0.16,0.02
2129623978,-0.96,-0.20,0.03
2129626125,-0.96,-0.20,0.03
2129627987,-0.96,-0.20,0.03
2129629977,-0.96,-0.20,0.03
2129631976,-0.96,-0.20,0.03
2129634015,-0.95,-0.21,0.03
2129636004,-0.95,-0.21,0.03
2129638002,-0.95,-0.21,0.03
2129640000,-0.95,-0.21,0.03
2129642000,-0.95,-0.21,0.03
2129644003,-0.96,-0.22,0.04
2129646008,-0.96,-0.22,0.04
2129648025,-0.96,-0.22,0.04
2129649976,-0.96,-0.22,0.04
2129652088,-0.96,-0.22,0.04
2129653974,-0.97,-0.25,0.03
2129655975,-0.97,-0.25,0.03
2129657980,-0.97,-0.25,0.03
2129659979,-0.97,-0.25,0.03
2129661975,-0.97,-0.25,0.03
2129663974,-0.97,-0.25,-0.00
2129665977,-0.97,-0.25,-0.00
2129667972,-0.97,-0.25,-0.00
2129670016,-0.97,-0.25,-0.00
2129671974,-0.97,-0.25,-0.00
2129674053,-0.96,-0.27,-0.01
2129676117,-0.96,-0.27,-0.01
2129678007,-0.96,-0.27,-0.01
2129680005,-0.96,-0.27,-0.01
2129682005,-0.96,-0.27,-0.01
2129684006,-0.91,-0.30,-0.03
2129686003,-0.91,-0.30,-0.03
2129688004,-0.91,-0.30,-0.03
2129690006,-0.91,-0.30,-0.03
2129691977,-0.91,-0.30,-0.03
2129693981,-0.93,-0.34,-0.07
2129695994,-0.93,-0.34,-0.07
2129697975,-0.93,-0.34,-0.07
2129699976,-0.93,-0.34,-0.07
2129702087,-0.93,-0.34,-0.07
2129703976,-0.93,-0.38,-0.10
2129705975,-0.93,-0.38,-0.10
2129707974,-0.93,-0.38,-0.10
2129709977,-0.93,-0.38,-0.10
2129711993,-0.93,-0.38,-0.10
2129713978,-0.90,-0.41,-0.10
2129716018,-0.90,-0.41,-0.10
2129718002,-0.90,-0.41,-0.10
2129720005,-0.90,-0.41,-0.10
2129722005,-0.90,-0.41,-0.10
2129724006,-0.89,-0.44,-0.11
2129726111,-0.89,-0.44,-0.11
2129728015,-0.89,-0.44,-0.11
2129729979,-0.89,-0.44,-0.11
2129731980,-0.89,-0.44,-0.11
2129733977,-0.87,-0.45,-0.11
2129735982,-0.87,-0.45,-0.11
2129737980,-0.87,-0.45,-0.11
2129739981,-0.87,-0.45,-0.11
2129741984,-0.87,-0.45,-0.11
2129743980,-0.88,-0.44,-0.09
2129745980,-0.88,-0.44,-0.09
2129747976,-0.88,-0.44,-0.09
2129750023,-0.88,-0.44,-0.09
2129752088,-0.88,-0.44,-0.09
2129753978,-0.88,-0.43,-0.09
2129756018,-0.88,-0.43,-0.09
2129758006,-0.88,-0.43,-0.09
2129760007,-0.88,-0.43,-0.09
2129762037,-0.88,-0.43,-0.09
2129764004,-0.91,-0.43,-0.11
2129766007,-0.91,-0.43,-0.11
2129768005,-0.91,-0.43,-0.11
2129770013,-0.91,-0.43,-0.11
2129772005,-0.91,-0.43,-0.11
2129774031,-0.89,-0.41,-0.07
2129776120,-0.89,-0.41,-0.07
2129777986,-0.89,-0.41,-0.07
2129779977,-0.89,-0.41,-0.07
2129781976,-0.89,-0.41,-0.07
2129783976,-0.89,-0.41,-0.07
2129785976,-0.90,-0.41,-0.06
2129787981,-0.90,-0.41,-0.06
2129790001,-0.90,-0.41,-0.06
2129791981,-0.90,-0.41,-0.06
2129793977,-0.90,-0.41,-0.06
2129796018,-0.90,-0.41,-0.05
2129798003,-0.90,-0.41,-0.05
2129800004,-0.90,-0.41,-0.05
2129802108,-0.90,-0.41,-0.05
2129804002,-0.90,-0.41,-0.05
2129806005,-0.89,-0.41,-0.04
2129808006,-0.89,-0.41,-0.04
2129809977,-0.89,-0.41,-0.04
2129811981,-0.89,-0.41,-0.04
2129813975,-0.89,-0.41,-0.04
2129815976,-0.92,-0.40,-0.04
2129817973,-0.92,-0.40,-0.04
2129819978,-0.92,-0.40,-0.04
2129821977,-0.92,-0.40,-0.04
2129823983,-0.92,-0.40,-0.04
2129826114,-0.92,-0.38,-0.04
2129827986,-0.92,-0.38,-0.04
2129830021,-0.92,-0.38,-0.04
2129832044,-0.92,-0.38,-0.04
2129834001,-0.92,-0.38,-0.04
2129836016,-0.92,-0.36,-0.02
2129838005,-0.92,-0.36,-0.02
2129840002,-0.92,-0.36,-0.02
2129842005,-0.92,-0.36,-0.02
2129844001,-0.92,-0.36,-0.02
2129846001,-0.93,-0.36,-0.00
2129848009,-0.93,-0.36,-0.00
2129849978,-0.93,-0.36,-0.00
2129852101,-0.93,-0.36,-0.00
2129853980,-0.93,-0.36,-0.00
2129855979,-0.94,-0.39,-0.00
2129857976,-0.94,-0.39,-0.00
2129859977,-0.94,-0.39,-0.00
2129861980,-0.94,-0.39,-0.00
2129863976,-0.94,-0.39,-0.00
2129865976,-0.94,-0.42,-0.01
2129867980,-0.94,-0.42,-0.01
2129869975,-0.94,-0.42,-0.01
2129871980,-0.94,-0.42,-0.01
2129874000,-0.94,-0.42,-0.01
2129876113,-0.93,-0.45,-0.01
2129878007,-0.93,-0.45,-0.01
2129880006,-0.93,-0.45,-0.01
2129882004,-0.93,-0.45,-0.01
2129884004,-0.93,-0.45,-0.01
2129886005,-0.94,-0.47,-0.01
2129888008,-0.94,-0.47,-0.01
2129889991,-0.94,-0.47,-0.01
2129891974,-0.94,-0.47,-0.01
2129893981,-0.94,-0.47,-0.01
2129895991,-0.93,-0.48,-0.01
2129897977,-0.93,-0.48,-0.01
2129899977,-0.93,-0.48,-0.01
2129902081,-0.93,-0.48,-0.01
2129903976,-0.93,-0.48,-0.01
2129905975,-0.92,-0.48,-0.02
2129907978,-0.92,-0.48,-0.02
2129909976,-0.92,-0.48,-0.02
2129911975,-0.92,-0.48,-0.02
2129913980,-0.92,-0.48,-0.02
2129916007,-0.93,-0.48,-0.01
2129918004,-0.93,-0.48,-0.01
2129920013,-0.93,-0.48,-0.01
2129922042,-0.93,-0.48,-0.01
2129924032,-0.93,-0.48,-0.01
2129926117,-0.90,-0.47,-0.02
2129928011,-0.90,-0.47,-0.02
2129930006,-0.90,-0.47,-0.02
2129931978,-0.90,-0.47,-0.02
2129934033,-0.90,-0.47,-0.02
2129935979,-0.89,-0.48,-0.02
2129937977,-0.89,-0.48,-0.02
2129939977,-0.89,-0.48,-0.02
2129941979,-0.89,-0.48,-0.02
2129943978,-0.89,-0.48,-0.02
2129945975,-0.90,-0.48,-0.02
2129947977,-0.90,-0.48,-0.02
2129949977,-0.90,-0.48,-0.02
2129952095,-0.90,-0.48,-0.02
2129953979,-0.90,-0.48,-0.02
2129956017,-0.91,-0.48,-0.04
2129958003,-0.91,-0.48,-0.04
2129960000,-0.91,-0.48,-0.04
2129962014,-0.91,-0.48,-0.04
2129964007,-0.91,-0.48,-0.04
2129965999,-0.91,-0.48,-0.04
2129968008,-0.93,-0.49,-0.04
2129969984,-0.93,-0.49,-0.04
2129971981,-0.93,-0.49,-0.04
2129973979,-0.93,-0.49,-0.04
2129976113,-0.93,-0.49,-0.04
2129977987,-0.93,-0.48,-0.05
