timestamp,accX,accY,accZ
2151426132,-0.88,-0.50,-0.07
2151427996,-0.88,-0.50,-0.07
2151429987,-0.88,-0.50,-0.07
2151431986,-0.88,-0.50,-0.07
2151433991,-0.88,-0.50,-0.07
2151435991,-0.89,-0.51,-0.01
2151437990,-0.89,-0.51,-0.01
2151439992,-0.89,-0.51,-0.01
2151441990,-0.89,-0.51,-0.01
2151443986,-0.89,-0.51,-0.01
2151445986,-0.86,-0.48,0.03
2151447987,-0.86,-0.48,0.03
2151449992,-0.86,-0.48,0.03
2151452058,-0.86,-0.48,0.03
2151453990,-0.86,-0.48,0.03
2151455987,-0.91,-0.45,0.02
2151457984,-0.91,-0.45,0.02
2151460028,-0.91,-0.45,0.02
2151462001,-0.91,-0.45,0.02
2151463993,-0.91,-0.45,0.02
2151466062,-0.88,-0.40,0.02
2151468048,-0.88,-0.40,0.02
2151470019,-0.88,-0.40,0.02
2151472015,-0.88,-0.40,0.02
2151474014,-0.88,-0.40,0.02
2151476117,-0.90,-0.43,0.02
2151478017,-0.90,-0.43,0.02
2151480010,-0.90,-0.43,0.02
2151481992,-0.90,-0.43,0.02
2151483995,-0.90,-0.43,0.02
2151485991,-0.88,-0.43,0.02
2151487995,-0.88,-0.43,0.02
2151490000,-0.88,-0.43,0.02
2151491986,-0.88,-0.43,0.02
2151493991,-0.88,-0.43,0.02
2151495999,-0.89,-0.44,0.02
2151497987,-0.89,-0.44,0.02
2151499982,-0.89,-0.44,0.02
2151502087,-0.89,-0.44,0.02
2151503990,-0.89,-0.44,0.02
2151506019,-0.89,-0.41,0.02
2151508014,-0.89,-0.41,0.02
2151510021,-0.89,-0.41,0.02
2151512075,-0.89,-0.41,0.02
2151514049,-0.89,-0.41,0.02
2151516011,-0.88,-0.43,0.02
2151518011,-0.88,-0.43,0.02
2151520012,-0.88,-0.43,0.02
2151521991,-0.88,-0.43,0.02
2151523990,-0.88,-0.43,0.02
2151526108,-0.91,-0.42,0.03
2151527999,-0.91,-0.42,0.03
2151529987,-0.91,-0.42,0.03
2151531989,-0.91,-0.42,0.03
2151533990,-0.91,-0.42,0.03
2151535991,-0.89,-0.38,0.02
2151537991,-0.89,-0.38,0.02
2151539992,-0.89,-0.38,0.02
2151541992,-0.89,-0.38,0.02
2151543990,-0.89,-0.38,0.02
2151546021,-0.89,-0.38,0.02
2151548012,-0.89,-0.46,0.01
2151550011,-0.89,-0.46,0.01
2151552114,-0.89,-0.46,0.01
2151554015,-0.89,-0.46,0.01
2151556013,-0.89,-0.46,0.01
2151558013,-0.88,-0.51,0.01
2151559991,-0.88,-0.51,0.01
2151561987,-0.88,-0.51,0.01
2151563989,-0.88,-0.51,0.01
2151566011,-0.88,-0.51,0.01
2151567987,-0.88,-0.54,0.02
2151569990,-0.88,-0.54,0.02
2151571989,-0.88,-0.54,0.02
2151573989,-0.88,-0.54,0.02
2151576101,-0.88,-0.54,0.02
2151577995,-0.86,-0.53,0.00
2151579989,-0.86,-0.53,0.00
2151581991,-0.86,-0.53,0.00
2151583986,-0.86,-0.53,0.00
2151586024,-0.86,-0.53,0.00
2151588015,-0.88,-0.50,0.01
2151590015,-0.88,-0.50,0.01
2151592019,-0.88,-0.50,0.01
2151594017,-0.88,-0.50,0.01
2151596017,-0.88,-0.50,0.01
2151598009,-0.87,-0.50,0.01
2151599992,-0.87,-0.50,0.01
2151602096,-0.87,-0.50,0.01
2151603987,-0.87,-0.50,0.01
2151605985,-0.87,-0.50,0.01
2151607985,-0.88,-0.50,0.01
2151609990,-0.88,-0.50,0.01
2151611989,-0.88,-0.50,0.01
2151613992,-0.88,-0.50,0.01
2151615991,-0.88,-0.50,0.01
2151617987,-0.88,-0.48,0.00
2151619991,-0.88,-0.48,0.00
2151622059,-0.88,-0.48,0.00
2151623985,-0.88,-0.48,0.00
2151626117,-0.88,-0.48,0.00
2151628045,-0.88,-0.47,0.01
2151630016,-0.88,-0.47,0.01
2151632016,-0.88,-0.47,0.01
2151634010,-0.88,-0.47,0.01
2151636013,-0.88,-0.47,0.01
2151638012,-0.88,-0.46,0.01
2151640005,-0.88,-0.46,0.01
2151641990,-0.88,-0.46,0.01
2151643992,-0.88,-0.46,0.01
2151645991,-0.88,-0.46,0.01
2151647986,-0.89,-0.46,0.00
2151649999,-0.89,-0.46,0.00
2151652146,-0.89,-0.46,0.00
2151653984,-0.89,-0.46,0.00
2151655987,-0.89,-0.46,0.00
2151657987,-0.88,-0.47,0.01
2151659985,-0.88,-0.47,0.01
2151661988,-0.88,-0.47,0.01
2151664023,-0.88,-0.47,0.01
2151666067,-0.88,-0.47,0.01
2151668017,-0.88,-0.48,0.01
2151670008,-0.88,-0.48,0.01
2151672013,-0.88,-0.48,0.01
2151674015,-0.88,-0.48,0.01
2151676120,-0.88,-0.48,0.01
2151678030,-0.87,-0.49,0.00
2151680014,-0.87,-0.49,0.00
2151681991,-0.87,-0.49,0.00
2151684036,-0.87,-0.49,0.00
2151686042,-0.87,-0.49,0.00
2151688010,-0.88,-0.48,0.00
2151689996,-0.88,-0.48,0.00
2151691992,-0.88,-0.48,0.00
2151693990,-0.88,-0.48,0.00
2151695996,-0.88,-0.48,0.00
2151697984,-0.89,-0.47,0.01
2151699990,-0.89,-0.47,0.01
2151702108,-0.89,-0.47,0.01
2151703987,-0.89,-0.47,0.01
2151706032,-0.89,-0.47,0.01
2151708015,-0.88,-0.48,0.01
2151710009,-0.88,-0.48,0.01
2151712013,-0.88,-0.48,0.01
2151714007,-0.88,-0.48,0.01
2151716017,-0.88,-0.48,0.01
2151718011,-0.89,-0.47,0.01
2151719991,-0.89,-0.47,0.01
2151721992,-0.89,-0.47,0.01
2151723990,-0.89,-0.47,0.01
2151726097,-0.89,-0.47,0.01
2151727997,-0.89,-0.47,0.01
2151729991,-0.89,-0.46,0.02
2151732003,-0.89,-0.46,0.02
2151734150,-0.89,-0.46,0.02
2151736015,-0.89,-0.46,0.02
2151737990,-0.89,-0.46,0.02
2151739986,-0.88,-0.46,0.01
2151741987,-0.88,-0.46,0.01
2151743992,-0.88,-0.46,0.01
2151746037,-0.88,-0.46,0.01
2151748013,-0.88,-0.46,0.01
2151750008,-0.88,-0.46,0.01
2151752126,-0.88,-0.46,0.01
2151754016,-0.88,-0.46,0.01
2151756016,-0.88,-0.46,0.01
2151758008,-0.88,-0.46,0.01
2151759991,-0.88,-0.48,0.01
2151761993,-0.88,-0.48,0.01
2151763993,-0.88,-0.48,0.01
2151766018,-0.88,-0.48,0.01
2151768028,-0.88,-0.48,0.01
2151769991,-0.88,-0.48,0.01
2151771987,-0.88,-0.48,0.01
2151773987,-0.88,-0.48,0.01
2151776102,-0.88,-0.48,0.01
2151777999,-0.88,-0.48,0.01
2151779986,-0.88,-0.48,0.01
2151781987,-0.88,-0.48,0.01
2151783987,-0.88,-0.48,0.01
2151786023,-0.88,-0.48,0.01
2151788014,-0.88,-0.48,0.01
2151790024,-0.88,-0.48,0.02
2151792013,-0.88,-0.48,0.02
2151794055,-0.88,-0.48,0.02
2151796030,-0.88,-0.48,0.02
2151798027,-0.88,-0.48,0.02
2151800014,-0.89,-0.48,0.01
2151802130,-0.89,-0.48,0.01
2151803992,-0.89,-0.48,0.01
2151805990,-0.89,-0.48,0.01
2151807992,-0.89,-0.48,0.01
2151809997,-0.88,-0.47,0.02
2151811991,-0.88,-0.47,0.02
2151813991,-0.88,-0.47,0.02
2151815991,-0.88,-0.47,0.02
2151817992,-0.88,-0.47,0.02
2151819987,-0.88,-0.48,0.01
2151821991,-0.88,-0.48,0.01
2151823989,-0.88,-0.48,0.01
2151826099,-0.88,-0.48,0.01
2151828018,-0.88,-0.48,0.01
2151830012,-0.89,-0.47,0.01
2151832009,-0.89,-0.47,0.01
2151834016,-0.89,-0.47,0.01
2151836010,-0.89,-0.47,0.01
2151838010,-0.89,-0.47,0.01
2151839991,-0.88,-0.47,0.02
2151841991,-0.88,-0.47,0.02
2151843991,-0.88,-0.47,0.02
2151845991,-0.88,-0.47,0.02
2151847992,-0.88,-0.47,0.02
2151850155,-0.88,-0.47,0.00
2151852136,-0.88,-0.47,0.00
2151853991,-0.88,-0.47,0.00
2151855990,-0.88,-0.47,0.00
2151857991,-0.88,-0.47,0.00
2151859991,-0.88,-0.47,0.02
2151861990,-0.88,-0.47,0.02
2151863993,-0.88,-0.47,0.02
2151866060,-0.88,-0.47,0.02
2151868042,-0.88,-0.47,0.02
2151870058,-0.88,-0.48,0.01
2151872011,-0.88,-0.48,0.01
2151874012,-0.88,-0.48,0.01
2151876119,-0.88,-0.48,0.01
2151878019,-0.88,-0.48,0.01
2151880009,-0.88,-0.47,0.01
2151882010,-0.88,-0.47,0.01
2151883989,-0.88,-0.47,0.01
2151885992,-0.88,-0.47,0.01
2151887993,-0.88,-0.47,0.01
2151889997,-0.88,-0.48,0.01
2151891984,-0.88,-0.48,0.01
2151893991,-0.88,-0.48,0.01
2151895999,-0.88,-0.48,0.01
2151897986,-0.88,-0.48,0.01
2151900049,-0.88,-0.48,0.01
2151902148,-0.88,-0.48,0.01
2151903985,-0.88,-0.48,0.01
2151906032,-0.88,-0.48,0.01
2151908021,-0.88,-0.48,0.01
2151910018,-0.88,-0.48,0.01
2151912018,-0.88,-0.48,0.01
2151914012,-0.88,-0.48,0.01
2151916012,-0.88,-0.48,0.01
2151918008,-0.88,-0.48,0.01
2151919991,-0.88,-0.48,0.01
2151921991,-0.88,-0.48,0.01
2151923990,-0.88,-0.48,0.01
2151926093,-0.88,-0.48,0.01
2151927998,-0.88,-0.48,0.01
2151929993,-0.88,-0.48,0.01
2151931992,-0.88,-0.48,0.00
2151933987,-0.88,-0.48,0.00
2151935987,-0.88,-0.48,0.00
2151937986,-0.88,-0.48,0.00
2151939986,-0.88,-0.48,0.00
2151941992,-0.88,-0.47,0.01
2151943987,-0.88,-0.47,0.01
2151946025,-0.88,-0.47,0.01
2151948012,-0.88,-0.47,0.01
2151950009,-0.88,-0.47,0.01
2151952111,-0.87,-0.48,0.01
2151954008,-0.87,-0.48,0.01
2151956010,-0.87,-0.48,0.01
2151958007,-0.87,-0.48,0.01
2151959991,-0.87,-0.48,0.01
2151961991,-0.88,-0.48,0.00
2151963991,-0.88,-0.48,0.00
2151966028,-0.88,-0.48,0.00
2151967990,-0.88,-0.48,0.00
2151969992,-0.88,-0.48,0.00
2151971990,-0.88,-0.48,0.00
2151973986,-0.88,-0.48,0.00
2151976098,-0.88,-0.48,0.00
2151977999,-0.88,-0.48,0.00
2151979990,-0.88,-0.48,0.00
2151981991,-0.88,-0.47,0.02
2151983987,-0.88,-0.47,0.02
2151986025,-0.88,-0.47,0.02
2151988013,-0.88,-0.47,0.02
2151990023,-0.88,-0.47,0.02
2151992022,-0.88,-0.47,0.02
2151994050,-0.88,-0.47,0.02
2151996036,-0.88,-0.47,0.02
2151998023,-0.88,-0.47,0.02
2152000010,-0.88,-0.47,0.02
2152002098,-0.88,-0.47,0.02
2152003991,-0.88,-0.47,0.02
2152005992,-0.88,-0.47,0.02
2152007991,-0.88,-0.47,0.02
2152009991,-0.88,-0.47,0.02
2152011991,-0.88,-0.47,0.01
2152013989,-0.88,-0.47,0.01
2152015992,-0.88,-0.47,0.01
2152017989,-0.88,-0.47,0.01
2152019987,-0.88,-0.47,0.01
2152021986,-0.88,-0.47,0.01
2152023991,-0.88,-0.47,0.01
2152026103,-0.88,-0.47,0.01
2152028018,-0.88,-0.47,0.01
2152030017,-0.88,-0.47,0.01
2152032013,-0.88,-0.47,0.00
2152034020,-0.88,-0.47,0.00
2152036018,-0.88,-0.47,0.00
2152038010,-0.88,-0.47,0.00
2152039986,-0.88,-0.47,0.00
2152041991,-0.89,-0.47,0.02
2152043983,-0.89,-0.47,0.02
2152045990,-0.89,-0.47,0.02
2152047993,-0.89,-0.47,0.02
2152050041,-0.89,-0.47,0.02
2152052107,-0.88,-0.47,0.02
2152053984,-0.88,-0.47,0.02
2152055989,-0.88,-0.47,0.02
2152057991,-0.88,-0.47,0.02
2152059987,-0.88,-0.47,0.02
2152061991,-0.88,-0.48,0.01
2152063992,-0.88,-0.48,0.01
2152066057,-0.88,-0.48,0.01
2152068007,-0.88,-0.48,0.01
2152070008,-0.88,-0.48,0.01
2152072015,-0.89,-0.47,0.02
2152074065,-0.89,-0.47,0.02
2152076124,-0.89,-0.47,0.02
2152078014,-0.89,-0.47,0.02
2152080009,-0.89,-0.47,0.02
2152081998,-0.88,-0.48,0.01
2152083990,-0.88,-0.48,0.01
2152085990,-0.88,-0.48,0.01
2152087990,-0.88,-0.48,0.01
2152089997,-0.88,-0.48,0.01
2152091991,-0.89,-0.47,0.01
2152093991,-0.89,-0.47,0.01
2152095997,-0.89,-0.47,0.01
2152097982,-0.89,-0.47,0.01
2152099991,-0.89,-0.47,0.01
2152102111,-0.88,-0.47,0.02
2152104072,-0.88,-0.47,0.02
2152106044,-0.88,-0.47,0.02
2152108018,-0.88,-0.47,0.02
2152110010,-0.88,-0.47,0.02
2152112012,-0.88,-0.47,0.02
2152114010,-0.88,-0.47,0.02
2152116008,-0.88,-0.47,0.02
2152118009,-0.88,-0.47,0.02
2152120008,-0.88,-0.47,0.02
2152121991,-0.88,-0.47,0.02
2152123992,-0.88,-0.47,0.01
2152126108,-0.88,-0.47,0.01
2152127999,-0.88,-0.47,0.01
2152129991,-0.88,-0.47,0.01
2152131990,-0.88,-0.47,0.01
2152133991,-0.89,-0.47,0.01
2152135990,-0.89,-0.47,0.01
2152137991,-0.89,-0.47,0.01
2152139987,-0.89,-0.47,0.01
2152141990,-0.89,-0.47,0.01
2152143987,-0.88,-0.46,0.01
2152146020,-0.88,-0.46,0.01
2152148014,-0.88,-0.46,0.01
2152150009,-0.88,-0.46,0.01
2152152109,-0.88,-0.46,0.01
2152154013,-0.88,-0.48,0.01
2152156009,-0.88,-0.48,0.01
2152158010,-0.88,-0.48,0.01
2152159991,-0.88,-0.48,0.01
2152161992,-0.88,-0.48,0.01
2152163993,-0.88,-0.48,0.01
2152166066,-0.88,-0.48,0.01
2152168033,-0.88,-0.48,0.01
2152170005,-0.88,-0.48,0.01
2152171984,-0.88,-0.48,0.01
2152173990,-0.88,-0.47,0.00
2152176104,-0.88,-0.47,0.00
2152178026,-0.88,-0.47,0.00
2152179991,-0.88,-0.47,0.00
2152181990,-0.88,-0.47,0.00
2152183987,-0.88,-0.47,0.01
2152186028,-0.88,-0.47,0.01
2152188014,-0.88,-0.47,0.01
2152190022,-0.88,-0.47,0.01
2152192016,-0.88,-0.47,0.01
2152194005,-0.88,-0.48,0.00
2152196019,-0.88,-0.48,0.00
2152198013,-0.88,-0.48,0.00
2152199996,-0.88,-0.48,0.00
2152202094,-0.88,-0.48,0.00
2152203992,-0.88,-0.47,0.01
2152205987,-0.88,-0.47,0.01
2152207987,-0.88,-0.47,0.01
2152209991,-0.88,-0.47,0.01
2152211992,-0.88,-0.47,0.01
2152214158,-0.88,-0.47,0.01
2152216023,-0.88,-0.47,0.01
2152217986,-0.88,-0.47,0.01
2152219990,-0.88,-0.47,0.01
2152221987,-0.88,-0.47,0.01
2152223982,-0.88,-0.48,0.01
2152226331,-0.88,-0.48,0.01
2152228052,-0.88,-0.48,0.01
2152230022,-0.88,-0.48,0.01
2152232009,-0.88,-0.48,0.01
2152234014,-0.88,-0.48,0.00
2152236013,-0.88,-0.48,0.00
2152238008,-0.88,-0.48,0.00
2152240014,-0.88,-0.48,0.00
2152241992,-0.88,-0.48,0.00
2152243991,-0.88,-0.47,0.01
2152245992,-0.88,-0.47,0.01
2152247991,-0.88,-0.47,0.01
2152249991,-0.88,-0.47,0.01
2152252111,-0.88,-0.47,0.01
2152253987,-0.88,-0.48,0.00
2152255991,-0.88,-0.48,0.00
2152257991,-0.88,-0.48,0.00
2152259990,-0.88,-0.48,0.00
2152262069,-0.88,-0.48,0.00
2152264034,-0.88,-0.48,0.00
2152266055,-0.88,-0.48,0.00
2152268016,-0.88,-0.48,0.00
2152270014,-0.88,-0.48,0.00
2152272015,-0.88,-0.48,0.00
2152274015,-0.89,-0.47,0.00
2152276125,-0.89,-0.47,0.00
2152278053,-0.89,-0.47,0.00
2152280054,-0.89,-0.47,0.00
2152282000,-0.89,-0.47,0.00
2152283989,-0.89,-0.47,0.01
2152285990,-0.89,-0.47,0.01
2152287990,-0.89,-0.47,0.01
2152289995,-0.89,-0.47,0.01
2152291985,-0.89,-0.47,0.01
2152293991,-0.89,-0.47,0.01
2152295996,-0.88,-0.48,0.01
2152297984,-0.88,-0.48,0.01
2152299982,-0.88,-0.48,0.01
2152302107,-0.88,-0.48,0.01
2152303992,-0.88,-0.48,0.01
2152306024,-0.88,-0.48,0.01
2152308014,-0.88,-0.48,0.01
2152310019,-0.88,-0.48,0.01
2152312012,-0.88,-0.48,0.01
2152314018,-0.88,-0.48,0.01
2152316014,-0.89,-0.48,0.01
2152318008,-0.89,-0.48,0.01
2152320000,-0.89,-0.48,0.01
2152322098,-0.89,-0.48,0.01
2152324022,-0.89,-0.48,0.01
2152326102,-0.88,-0.48,0.01
2152327998,-0.88,-0.48,0.01
2152329990,-0.88,-0.48,0.01
2152331987,-0.88,-0.48,0.01
2152333994,-0.88,-0.48,0.01
2152335991,-0.88,-0.48,0.00
2152337992,-0.88,-0.48,0.00
2152339989,-0.88,-0.48,0.00
2152341985,-0.88,-0.48,0.00
2152343987,-0.88,-0.48,0.00
2152346034,-0.89,-0.47,0.01
2152348017,-0.89,-0.47,0.01
2152350015,-0.89,-0.47,0.01
2152352116,-0.89,-0.47,0.01
2152354017,-0.89,-0.47,0.01
2152356012,-0.88,-0.47,0.02
2152358009,-0.88,-0.47,0.02
2152359991,-0.88,-0.47,0.02
2152361990,-0.88,-0.47,0.02
2152363994,-0.88,-0.47,0.02
2152366017,-0.88,-0.47,0.02
2152367987,-0.88,-0.47,0.02
2152369987,-0.88,-0.47,0.02
2152371991,-0.88,-0.47,0.02
2152373992,-0.88,-0.47,0.02
2152376097,-0.88,-0.47,0.02
2152377995,-0.88,-0.47,0.02
2152379990,-0.88,-0.47,0.02
2152381986,-0.88,-0.47,0.02
2152383989,-0.88,-0.47,0.02
2152386021,-0.88,-0.47,0.01
2152388016,-0.88,-0.47,0.01
2152390018,-0.88,-0.47,0.01
2152392015,-0.88,-0.47,0.01
2152394016,-0.88,-0.47,0.01
2152396019,-0.88,-0.47,0.01
2152398004,-0.88,-0.47,0.01
2152399993,-0.88,-0.47,0.01
2152402090,-0.88,-0.47,0.01
2152403987,-0.88,-0.47,0.01
2152405986,-0.89,-0.47,0.01
2152407984,-0.89,-0.47,0.01
2152409986,-0.89,-0.47,0.01
2152411991,-0.89,-0.47,0.01
2152413991,-0.89,-0.47,0.01
2152415992,-0.88,-0.47,0.01
2152417990,-0.88,-0.47,0.01
2152419998,-0.88,-0.47,0.01
2152421981,-0.88,-0.47,0.01
2152423978,-0.88,-0.47,0.01
2152426096,-0.89,-0.47,0.02
2152428008,-0.89,-0.47,0.02
2152430006,-0.89,-0.47,0.02
2152432007,-0.89,-0.47,0.02
2152434052,-0.89,-0.47,0.02
2152436031,-0.88,-0.47,0.01
2152438017,-0.88,-0.47,0.01
2152440005,-0.88,-0.47,0.01
2152442012,-0.88,-0.47,0.01
2152443979,-0.88,-0.47,0.01
2152445981,-0.88,-0.47,0.01
2152447980,-0.88,-0.47,0.01
2152449976,-0.88,-0.47,0.01
2152452095,-0.88,-0.47,0.01
2152453976,-0.88,-0.47,0.01
2152455975,-0.88,-0.47,0.01
2152457978,-0.88,-0.47,0.01
2152459979,-0.88,-0.47,0.01
2152461974,-0.88,-0.47,0.01
2152463979,-0.88,-0.47,0.01
2152466055,-0.88,-0.47,0.01
2152468003,-0.88,-0.47,0.01
2152470005,-0.88,-0.47,0.01
2152472007,-0.88,-0.47,0.01
2152474004,-0.88,-0.47,0.01
2152476107,-0.88,-0.47,0.01
2152478013,-0.88,-0.47,0.01
2152480007,-0.88,-0.47,0.01
2152481977,-0.88,-0.47,0.01
2152484025,-0.88,-0.47,0.01
2152485998,-0.88,-0.47,0.01
2152487976,-0.88,-0.46,0.02
2152489987,-0.88,-0.46,0.02
2152491992,-0.88,-0.46,0.02
2152494042,-0.88,-0.46,0.02
2152496025,-0.88,-0.46,0.02
2152497985,-0.89,-0.47,0.01
2152499976,-0.89,-0.47,0.01
2152502004,-0.89,-0.47,0.01
2152503976,-0.89,-0.47,0.01
2152506028,-0.89,-0.47,0.01
2152508006,-0.88,-0.47,0.02
2152510004,-0.88,-0.47,0.02
2152512006,-0.88,-0.47,0.02
2152514001,-0.88,-0.47,0.02
2152516002,-0.88,-0.47,0.02
2152518007,-0.89,-0.48,0.01
2152519979,-0.89,-0.48,0.01
2152521977,-0.89,-0.48,0.01
2152523979,-0.89,-0.48,0.01
2152525995,-0.89,-0.48,0.01
2152527979,-0.88,-0.48,0.00
2152529992,-0.88,-0.48,0.00
2152531979,-0.88,-0.48,0.00
2152533979,-0.88,-0.48,0.00
2152535978,-0.88,-0.48,0.00
2152538005,-0.89,-0.48,0.00
2152540129,-0.89,-0.48,0.00
2152542019,-0.89,-0.48,0.00
2152543979,-0.89,-0.48,0.00
2152546019,-0.89,-0.48,0.00
2152548004,-0.86,-0.46,0.02
2152550004,-0.86,-0.46,0.02
2152552038,-0.86,-0.46,0.02
2152554006,-0.86,-0.46,0.02
2152556006,-0.86,-0.46,0.02
2152558008,-0.89,-0.48,0.02
2152559979,-0.89,-0.48,0.02
2152561979,-0.89,-0.48,0.02
2152563981,-0.89,-0.48,0.02
2152566012,-0.89,-0.48,0.02
2152567979,-0.87,-0.48,0.02
2152569976,-0.87,-0.48,0.02
2152571979,-0.87,-0.48,0.02
2152573978,-0.87,-0.48,0.02
2152575997,-0.87,-0.48,0.02
2152577982,-0.87,-0.49,0.00
2152579979,-0.87,-0.49,0.00
2152581977,-0.87,-0.49,0.00
2152583978,-0.87,-0.49,0.00
2152586049,-0.87,-0.49,0.00
2152588051,-0.88,-0.47,0.00
2152590034,-0.88,-0.47,0.00
2152592016,-0.88,-0.47,0.00
2152594007,-0.88,-0.47,0.00
2152596016,-0.88,-0.47,0.00
2152598006,-0.89,-0.48,0.00
2152600005,-0.89,-0.48,0.00
2152602038,-0.89,-0.48,0.00
2152603976,-0.89,-0.48,0.00
2152605979,-0.89,-0.48,0.00
2152607976,-0.88,-0.48,0.00
2152609977,-0.88,-0.48,0.00
2152611980,-0.88,-0.48,0.00
2152613979,-0.88,-0.48,0.00
2152615976,-0.88,-0.48,0.00
2152617975,-0.88,-0.48,0.00
2152619981,-0.88,-0.48,0.00
2152622056,-0.88,-0.48,0.00
2152623978,-0.88,-0.48,0.00
2152626018,-0.88,-0.48,0.00
2152628008,-0.89,-0.47,0.00
2152630006,-0.89,-0.47,0.00
2152632004,-0.89,-0.47,0.00
2152634005,-0.89,-0.47,0.00
2152636007,-0.89,-0.47,0.00
2152638062,-0.88,-0.47,0.01
2152640028,-0.88,-0.47,0.01
2152641975,-0.88,-0.47,0.01
2152643977,-0.88,-0.47,0.01
2152645977,-0.88,-0.47,0.01
2152647974,-0.88,-0.48,0.00
2152649973,-0.88,-0.48,0.00
2152651995,-0.88,-0.48,0.00
2152653973,-0.88,-0.48,0.00
2152655975,-0.88,-0.48,0.00
2152657976,-0.88,-0.48,0.01
2152659975,-0.88,-0.48,0.01
2152661985,-0.88,-0.48,0.01
2152663980,-0.88,-0.48,0.01
2152666043,-0.88,-0.48,0.01
2152668005,-0.88,-0.48,0.01
2152670004,-0.88,-0.48,0.02
2152672003,-0.88,-0.48,0.02
2152674004,-0.88,-0.48,0.02
2152676021,-0.88,-0.48,0.02
2152678006,-0.88,-0.48,0.02
2152679981,-0.88,-0.47,0.01
2152681979,-0.88,-0.47,0.01
2152683979,-0.88,-0.47,0.01
2152685979,-0.88,-0.47,0.01
2152687988,-0.88,-0.47,0.01
2152690029,-0.88,-0.48,0.01
2152691979,-0.88,-0.48,0.01
2152693977,-0.88,-0.48,0.01
2152696019,-0.88,-0.48,0.01
2152698039,-0.88,-0.48,0.01
2152699997,-0.88,-0.47,0.02
2152702000,-0.88,-0.47,0.02
2152703976,-0.88,-0.47,0.02
2152706017,-0.88,-0.47,0.02
2152708000,-0.88,-0.47,0.02
2152710002,-0.89,-0.46,0.02
2152712008,-0.89,-0.46,0.02
2152714005,-0.89,-0.46,0.02
2152716013,-0.89,-0.46,0.02
2152718005,-0.89,-0.46,0.02
2152720000,-0.89,-0.47,0.02
2152721977,-0.89,-0.47,0.02
2152723980,-0.89,-0.47,0.02
2152726002,-0.89,-0.47,0.02
2152727982,-0.89,-0.47,0.02
2152729975,-0.88,-0.47,0.02
2152731979,-0.88,-0.47,0.02
2152733976,-0.88,-0.47,0.02
2152735977,-0.88,-0.47,0.02
2152737977,-0.88,-0.47,0.02
2152739975,-0.88,-0.47,0.01
2152741979,-0.88,-0.47,0.01
2152744068,-0.88,-0.47,0.01
2152746043,-0.88,-0.47,0.01
2152748003,-0.88,-0.47,0.01
2152750006,-0.89,-0.47,0.01
2152752034,-0.89,-0.47,0.01
2152754010,-0.89,-0.47,0.01
2152756005,-0.89,-0.47,0.01
2152758004,-0.89,-0.47,0.01
2152760013,-0.89,-0.47,0.02
2152761975,-0.89,-0.47,0.02
2152763980,-0.89,-0.47,0.02
2152766010,-0.89,-0.47,0.02
2152767972,-0.89,-0.47,0.02
2152769978,-0.89,-0.46,0.02
2152771977,-0.89,-0.46,0.02
2152773977,-0.89,-0.46,0.02
2152775998,-0.89,-0.46,0.02
2152777982,-0.89,-0.46,0.02
2152779974,-0.88,-0.48,0.01
2152781978,-0.88,-0.48,0.01
2152783976,-0.88,-0.48,0.01
2152786020,-0.88,-0.48,0.01
2152788001,-0.88,-0.48,0.01
2152790013,-0.88,-0.48,0.01
2152792005,-0.88,-0.48,0.01
2152794006,-0.88,-0.48,0.01
2152796009,-0.88,-0.48,0.01
2152798008,-0.88,-0.48,0.01
2152799974,-0.88,-0.48,0.00
2152801996,-0.88,-0.48,0.00
2152803975,-0.88,-0.48,0.00
2152805978,-0.88,-0.48,0.00
2152807975,-0.88,-0.48,0.00
2152809979,-0.89,-0.47,0.00
2152811978,-0.89,-0.47,0.00
2152813976,-0.89,-0.47,0.00
2152815980,-0.89,-0.47,0.00
2152817978,-0.89,-0.47,0.00
2152819979,-0.88,-0.47,0.00
2152821981,-0.88,-0.47,0.00
2152824028,-0.88,-0.47,0.00
2152826030,-0.88,-0.47,0.00
2152828037,-0.88,-0.47,0.00
2152830006,-0.88,-0.46,0.00
2152832006,-0.88,-0.46,0.00
2152834006,-0.88,-0.46,0.00
2152836007,-0.88,-0.46,0.00
2152838003,-0.88,-0.46,0.00
2152840002,-0.89,-0.46,0.00
2152842006,-0.89,-0.46,0.00
2152843979,-0.89,-0.46,0.00
2152845980,-0.89,-0.46,0.00
2152847975,-0.89,-0.46,0.00
2152849979,-0.88,-0.47,0.01
2152851997,-0.88,-0.47,0.01
2152853975,-0.88,-0.47,0.01
2152855974,-0.88,-0.47,0.01
2152857981,-0.88,-0.47,0.01
2152859985,-0.88,-0.47,0.01
2152861978,-0.88,-0.48,0.00
2152863977,-0.88,-0.48,0.00
2152866010,-0.88,-0.48,0.00
2152868016,-0.88,-0.48,0.00
2152870058,-0.88,-0.48,0.00
2152872032,-0.88,-0.48,-0.00
2152874008,-0.88,-0.48,-0.00
2152876020,-0.88,-0.48,-0.00
2152878009,-0.88,-0.48,-0.00
2152880006,-0.88,-0.48,-0.00
2152882002,-0.88,-0.48,0.01
2152884006,-0.88,-0.48,0.01
2152885976,-0.88,-0.48,0.01
2152887981,-0.88,-0.48,0.01
2152889988,-0.88,-0.48,0.01
2152891972,-0.88,-0.48,0.00
2152894026,-0.88,-0.48,0.00
2152895993,-0.88,-0.48,0.00
2152897974,-0.88,-0.48,0.00
2152899977,-0.88,-0.48,0.00
2152902001,-0.88,-0.48,0.00
2152903979,-0.88,-0.48,0.00
2152905978,-0.88,-0.48,0.00
2152908024,-0.88,-0.48,0.00
2152910008,-0.88,-0.48,0.00
2152912004,-0.89,-0.47,0.01
2152914007,-0.89,-0.47,0.01
2152916028,-0.89,-0.47,0.01
2152918056,-0.89,-0.47,0.01
2152920035,-0.89,-0.47,0.01
2152922008,-0.88,-0.47,0.00
2152923987,-0.88,-0.47,0.00
2152926008,-0.88,-0.47,0.00
2152927986,-0.88,-0.47,0.00
2152929979,-0.88,-0.47,0.00
2152931980,-0.88,-0.48,0.01
2152933976,-0.88,-0.48,0.01
2152935980,-0.88,-0.48,0.01
2152937976,-0.88,-0.48,0.01
2152939978,-0.88,-0.48,0.01
2152941981,-0.88,-0.48,0.01
2152943981,-0.88,-0.48,0.01
2152945976,-0.88,-0.48,0.01
2152948011,-0.88,-0.48,0.01
2152950001,-0.88,-0.48,0.01
2152952025,-0.88,-0.48,0.01
2152954009,-0.88,-0.48,0.01
2152956003,-0.88,-0.48,0.01
2152958008,-0.88,-0.48,0.01
2152959979,-0.88,-0.48,0.01
2152961985,-0.88,-0.48,0.01
2152964035,-0.88,-0.48,0.01
2152966029,-0.88,-0.48,0.01
2152968012,-0.88,-0.48,0.01
2152969975,-0.88,-0.48,0.01
2152971974,-0.89,-0.48,0.01
2152973978,-0.89,-0.48,0.01
2152976003,-0.89,-0.48,0.01
2152977982,-0.89,-0.48,0.01
2152979974,-0.89,-0.48,0.01
2152981977,-0.88,-0.48,0.01
2152983979,-0.88,-0.48,0.01
2152985978,-0.88,-0.48,0.01
2152988022,-0.88,-0.48,0.01
2152990008,-0.88,-0.48,0.01
2152992005,-0.88,-0.48,0.01
2152994006,-0.88,-0.48,0.01
2152996046,-0.88,-0.48,0.01
2152998027,-0.88,-0.48,0.01
2153000006,-0.88,-0.48,0.01
2153002030,-0.88,-0.48,0.00
2153003981,-0.88,-0.48,0.00
2153005979,-0.88,-0.48,0.00
2153007975,-0.88,-0.48,0.00
2153009981,-0.88,-0.48,0.00
2153011980,-0.88,-0.47,0.01
2153013979,-0.88,-0.47,0.01
2153015977,-0.88,-0.47,0.01
2153017981,-0.88,-0.47,0.01
2153019979,-0.88,-0.47,0.01
2153021978,-0.88,-0.48,0.00
2153023976,-0.88,-0.48,0.00
2153026039,-0.88,-0.48,0.00
2153028039,-0.88,-0.48,0.00
2153030012,-0.88,-0.48,0.00
2153032003,-0.89,-0.47,0.00
2153034002,-0.89,-0.47,0.00
2153036006,-0.89,-0.47,0.00
2153038008,-0.89,-0.47,0.00
2153040005,-0.89,-0.47,0.00
2153042002,-0.89,-0.47,0.00
2153043976,-0.89,-0.47,0.01
2153045975,-0.89,-0.47,0.01
2153047981,-0.89,-0.47,0.01
2153049984,-0.89,-0.47,0.01
2153052003,-0.89,-0.47,0.01
2153053979,-0.88,-0.48,0.00
2153055981,-0.88,-0.48,0.00
2153057977,-0.88,-0.48,0.00
2153059979,-0.88,-0.48,0.00
2153061980,-0.88,-0.48,0.00
2153063979,-0.89,-0.47,0.00
2153065979,-0.89,-0.47,0.00
2153068044,-0.89,-0.47,0.00
2153070006,-0.89,-0.47,0.00
2153072001,-0.89,-0.47,0.00
2153074010,-0.88,-0.48,0.01
2153076057,-0.88,-0.48,0.01
2153078043,-0.88,-0.48,0.01
2153080006,-0.88,-0.48,0.01
2153082005,-0.88,-0.48,0.01
2153084011,-0.87,-0.47,0.01
2153085979,-0.87,-0.47,0.01
2153087981,-0.87,-0.47,0.01
2153089987,-0.87,-0.47,0.01
2153091980,-0.87,-0.47,0.01
2153093981,-0.88,-0.47,0.01
2153095993,-0.88,-0.47,0.01
2153097999,-0.88,-0.47,0.01
2153100027,-0.88,-0.47,0.01
2153102004,-0.88,-0.47,0.01
2153103976,-0.88,-0.47,0.02
2153105977,-0.88,-0.47,0.02
2153108021,-0.88,-0.47,0.02
2153110005,-0.88,-0.47,0.02
2153112001,-0.88,-0.47,0.02
2153114002,-0.88,-0.48,0.01
2153116003,-0.88,-0.48,0.01
2153118009,-0.88,-0.48,0.01
2153120019,-0.88,-0.48,0.01
2153121985,-0.88,-0.48,0.01
2153123981,-0.89,-0.47,0.01
2153126000,-0.89,-0.47,0.01
2153127981,-0.89,-0.47,0.01
2153129979,-0.89,-0.47,0.01
2153131977,-0.89,-0.47,0.01
2153133977,-0.89,-0.47,0.01
2153135996,-0.89,-0.47,0.01
2153138127,-0.89,-0.47,0.01
2153140020,-0.89,-0.47,0.01
2153141976,-0.89,-0.47,0.01
2153143980,-0.89,-0.46,0.02
2153145978,-0.89,-0.46,0.02
2153148019,-0.89,-0.46,0.02
2153150001,-0.89,-0.46,0.02
2153152031,-0.89,-0.46,0.02
2153154006,-0.88,-0.46,0.01
2153156003,-0.88,-0.46,0.01
2153158004,-0.88,-0.46,0.01
2153160005,-0.88,-0.46,0.01
2153161981,-0.88,-0.46,0.01
2153163980,-0.88,-0.47,0.01
2153165980,-0.88,-0.47,0.01
2153168009,-0.88,-0.47,0.01
2153169981,-0.88,-0.47,0.01
2153171976,-0.88,-0.47,0.01
2153173974,-0.88,-0.48,0.02
2153175999,-0.88,-0.48,0.02
2153177981,-0.88,-0.48,0.02
2153179974,-0.88,-0.48,0.02
2153181981,-0.88,-0.48,0.02
2153183973,-0.88,-0.48,0.00
2153185979,-0.88,-0.48,0.00
2153188016,-0.88,-0.48,0.00
2153190008,-0.88,-0.48,0.00
2153192004,-0.88,-0.48,0.00
2153194006,-0.87,-0.49,0.00
2153196007,-0.87,-0.49,0.00
2153198001,-0.87,-0.49,0.00
2153200010,-0.87,-0.49,0.00
2153202097,-0.87,-0.49,0.00
2153203980,-0.88,-0.48,0.01
2153205979,-0.88,-0.48,0.01
2153207979,-0.88,-0.48,0.01
2153209976,-0.88,-0.48,0.01
2153211981,-0.88,-0.48,0.01
2153213982,-0.87,-0.48,0.00
2153215992,-0.87,-0.48,0.00
2153217979,-0.87,-0.48,0.00
2153219975,-0.87,-0.48,0.00
2153221979,-0.87,-0.48,0.00
2153223978,-0.88,-0.48,-0.01
2153225989,-0.88,-0.48,-0.01
2153228069,-0.88,-0.48,-0.01
2153230037,-0.88,-0.48,-0.01
2153232008,-0.88,-0.48,-0.01
2153234004,-0.88,-0.48,-0.01
2153236002,-0.89,-0.48,-0.01
2153238007,-0.89,-0.48,-0.01
2153240005,-0.89,-0.48,-0.01
2153242006,-0.89,-0.48,-0.01
2153244011,-0.89,-0.48,-0.01
2153245979,-0.89,-0.47,0.00
2153247979,-0.89,-0.47,0.00
2153249979,-0.89,-0.47,0.00
2153252100,-0.89,-0.47,0.00
2153253979,-0.89,-0.47,0.00
2153255978,-0.88,-0.48,0.00
2153257976,-0.88,-0.48,0.00
2153259977,-0.88,-0.48,0.00
2153261979,-0.88,-0.48,0.00
2153263975,-0.88,-0.48,0.00
2153265979,-0.88,-0.48,0.00
2153268008,-0.88,-0.48,0.00
2153270020,-0.88,-0.48,0.00
2153272002,-0.88,-0.48,0.00
2153274006,-0.88,-0.48,0.00
2153276018,-0.88,-0.48,0.00
2153278009,-0.88,-0.48,0.00
2153280060,-0.88,-0.48,0.00
2153282047,-0.88,-0.48,0.00
2153284016,-0.88,-0.48,0.00
2153285979,-0.88,-0.48,0.00
2153287983,-0.88,-0.48,0.00
2153289990,-0.88,-0.48,0.00
2153291973,-0.88,-0.48,0.00
2153293984,-0.88,-0.48,0.00
2153295991,-0.88,-0.48,0.00
2153297976,-0.88,-0.48,0.00
2153299977,-0.88,-0.48,0.00
2153302004,-0.88,-0.48,0.00
2153304020,-0.88,-0.48,0.00
2153305975,-0.88,-0.47,0.02
2153307973,-0.88,-0.47,0.02
2153310023,-0.88,-0.47,0.02
2153312007,-0.88,-0.47,0.02
2153314004,-0.88,-0.47,0.02
2153316007,-0.88,-0.47,0.01
2153318006,-0.88,-0.47,0.01
2153320007,-0.88,-0.47,0.01
2153321975,-0.88,-0.47,0.01
2153323977,-0.88,-0.47,0.01
2153326001,-0.88,-0.47,0.01
2153327985,-0.88,-0.47,0.01
2153329976,-0.88,-0.47,0.01
2153331976,-0.88,-0.47,0.01
2153333979,-0.88,-0.47,0.01
2153335980,-0.88,-0.47,0.01
2153338010,-0.88,-0.47,0.01
2153340037,-0.88,-0.47,0.01
2153342001,-0.88,-0.47,0.01
2153343977,-0.88,-0.47,0.01
2153345980,-0.88,-0.47,0.02
2153347979,-0.88,-0.47,0.02
2153350014,-0.88,-0.47,0.02
2153352037,-0.88,-0.47,0.02
2153354005,-0.88,-0.47,0.02
2153356009,-0.88,-0.48,0.01
2153358007,-0.88,-0.48,0.01
2153360011,-0.88,-0.48,0.01
2153362011,-0.88,-0.48,0.01
2153363980,-0.88,-0.48,0.01
2153365982,-0.89,-0.47,0.00
2153368008,-0.89,-0.47,0.00
2153369977,-0.89,-0.47,0.00
2153371978,-0.89,-0.47,0.00
2153373975,-0.89,-0.47,0.00
2153375998,-0.89,-0.46,0.01
2153377982,-0.89,-0.46,0.01
2153379975,-0.89,-0.46,0.01
2153381980,-0.89,-0.46,0.01
2153383988,-0.89,-0.46,0.01
2153386136,-0.89,-0.48,0.00
2153388017,-0.89,-0.48,0.00
2153390035,-0.89,-0.48,0.00
2153392007,-0.89,-0.48,0.00
2153394002,-0.89,-0.48,0.00
2153396007,-0.88,-0.47,0.01
2153398008,-0.88,-0.47,0.01
2153400002,-0.88,-0.47,0.01
2153402033,-0.88,-0.47,0.01
2153403977,-0.88,-0.47,0.01
2153406027,-0.88,-0.48,0.01
2153407976,-0.88,-0.48,0.01
2153409980,-0.88,-0.48,0.01
2153411978,-0.88,-0.48,0.01
2153413978,-0.88,-0.48,0.01
2153415975,-0.88,-0.48,0.01
2153417975,-0.88,-0.47,0.01
2153419981,-0.88,-0.47,0.01
2153421978,-0.88,-0.47,0.01
2153423979,-0.88,-0.47,0.01
2153425994,-0.88,-0.47,0.01
2153427985,-0.88,-0.48,0.00
2153430015,-0.88,-0.48,0.00
2153432016,-0.88,-0.48,0.00
2153434124,-0.88,-0.48,0.00
2153436037,-0.88,-0.48,0.00
2153438004,-0.89,-0.47,0.01
2153440006,-0.89,-0.47,0.01
2153442007,-0.89,-0.47,0.01
2153444004,-0.89,-0.47,0.01
2153446009,-0.89,-0.47,0.01
2153447990,-0.88,-0.47,0.02
2153449984,-0.88,-0.47,0.02
2153452003,-0.88,-0.47,0.02
2153453979,-0.88,-0.47,0.02
2153455977,-0.88,-0.47,0.02
2153457978,-0.88,-0.48,0.01
2153459979,-0.88,-0.48,0.01
2153461978,-0.88,-0.48,0.01
2153463981,-0.88,-0.48,0.01
2153465996,-0.88,-0.48,0.01
2153468012,-0.88,-0.47,0.00
2153470017,-0.88,-0.47,0.00
2153472006,-0.88,-0.47,0.00
2153474000,-0.88,-0.47,0.00
2153476021,-0.88,-0.47,0.00
2153478062,-0.89,-0.47,0.00
2153480038,-0.89,-0.47,0.00
2153482005,-0.89,-0.47,0.00
2153484007,-0.89,-0.47,0.00
2153485988,-0.89,-0.47,0.00
2153487981,-0.88,-0.47,0.01
2153489990,-0.88,-0.47,0.01
2153491977,-0.88,-0.47,0.01
2153493979,-0.88,-0.47,0.01
2153495991,-0.88,-0.47,0.01
2153497978,-0.89,-0.46,0.01
2153499975,-0.89,-0.46,0.01
2153502000,-0.89,-0.46,0.01
2153503980,-0.89,-0.46,0.01
2153505978,-0.89,-0.46,0.01
2153508017,-0.89,-0.48,0.02
2153510037,-0.89,-0.48,0.02
2153512005,-0.89,-0.48,0.02
2153514013,-0.89,-0.48,0.02
2153516004,-0.89,-0.48,0.02
2153518009,-0.87,-0.47,0.01
2153520004,-0.87,-0.47,0.01
2153522007,-0.87,-0.47,0.01
2153523979,-0.87,-0.47,0.01
2153526000,-0.87,-0.47,0.01
2153527987,-0.89,-0.48,0.00
2153529978,-0.89,-0.48,0.00
2153531979,-0.89,-0.48,0.00
2153533978,-0.89,-0.48,0.00
2153535977,-0.89,-0.48,0.00
2153537976,-0.88,-0.46,0.02
2153539990,-0.88,-0.46,0.02
2153542071,-0.88,-0.46,0.02
2153544019,-0.88,-0.46,0.02
2153545974,-0.88,-0.46,0.02
2153547980,-0.89,-0.47,0.00
2153550018,-0.89,-0.47,0.00
2153552035,-0.89,-0.47,0.00
2153554004,-0.89,-0.47,0.00
2153556003,-0.89,-0.47,0.00
2153558006,-0.88,-0.47,0.02
2153560007,-0.88,-0.47,0.02
2153562010,-0.88,-0.47,0.02
2153563976,-0.88,-0.47,0.02
2153565983,-0.88,-0.47,0.02
2153568008,-0.88,-0.48,0.01
2153569979,-0.88,-0.48,0.01
2153571977,-0.88,-0.48,0.01
2153573977,-0.88,-0.48,0.01
2153576002,-0.88,-0.48,0.01
2153577981,-0.89,-0.48,0.01
2153579980,-0.89,-0.48,0.01
2153581977,-0.89,-0.48,0.01
2153583976,-0.89,-0.48,0.01
2153585975,-0.89,-0.48,0.01
2153587982,-0.88,-0.48,0.02
2153590019,-0.88,-0.48,0.02
2153592005,-0.88,-0.48,0.02
2153594009,-0.88,-0.48,0.02
2153596006,-0.88,-0.48,0.02
2153598006,-0.88,-0.48,0.00
2153600006,-0.88,-0.48,0.00
2153602130,-0.88,-0.48,0.00
2153603979,-0.88,-0.48,0.00
2153605980,-0.88,-0.48,0.00
2153607977,-0.88,-0.48,0.00
2153609979,-0.88,-0.48,0.01
2153611979,-0.88,-0.48,0.01
2153613980,-0.88,-0.48,0.01
2153615980,-0.88,-0.48,0.01
2153617979,-0.88,-0.48,0.01
2153619980,-0.88,-0.48,0.00
2153622054,-0.88,-0.48,0.00
2153623978,-0.88,-0.48,0.00
2153625987,-0.88,-0.48,0.00
2153627986,-0.88,-0.48,0.00
2153630010,-0.89,-0.47,0.00
2153632004,-0.89,-0.47,0.00
2153634004,-0.89,-0.47,0.00
2153636006,-0.89,-0.47,0.00
2153638040,-0.89,-0.47,0.00
2153640010,-0.88,-0.48,0.00
2153642096,-0.88,-0.48,0.00
2153644047,-0.88,-0.48,0.00
2153646009,-0.88,-0.48,0.00
2153647979,-0.88,-0.48,0.00
2153649980,-0.88,-0.47,0.00
2153652095,-0.88,-0.47,0.00
2153653977,-0.88,-0.47,0.00
2153655976,-0.88,-0.47,0.00
2153657979,-0.88,-0.47,0.00
2153659975,-0.88,-0.46,0.00
2153661979,-0.88,-0.46,0.00
2153663979,-0.88,-0.46,0.00
2153665980,-0.88,-0.46,0.00
2153668011,-0.88,-0.46,0.00
2153670016,-0.88,-0.47,0.00
2153672004,-0.88,-0.47,0.00
2153674002,-0.88,-0.47,0.00
2153676017,-0.88,-0.47,0.00
2153678005,-0.88,-0.47,0.00
2153680007,-0.88,-0.48,0.01
2153681980,-0.88,-0.48,0.01
2153683977,-0.88,-0.48,0.01
2153685976,-0.88,-0.48,0.01
2153687984,-0.88,-0.48,0.01
2153689991,-0.88,-0.49,0.00
2153691984,-0.88,-0.49,0.00
2153693984,-0.88,-0.49,0.00
2153696005,-0.88,-0.49,0.00
2153698046,-0.88,-0.49,0.00
2153700017,-0.88,-0.49,0.01
2153701999,-0.88,-0.49,0.01
2153703976,-0.88,-0.49,0.01
2153705980,-0.88,-0.49,0.01
2153707980,-0.88,-0.49,0.01
2153710023,-0.88,-0.49,0.00
2153712008,-0.88,-0.49,0.00
2153714053,-0.88,-0.49,0.00
2153716012,-0.88,-0.49,0.00
2153718004,-0.88,-0.49,0.00
2153720011,-0.88,-0.49,0.00
2153722009,-0.88,-0.49,0.00
2153724009,-0.88,-0.49,0.00
2153726004,-0.88,-0.49,0.00
2153727981,-0.88,-0.49,0.00
2153729978,-0.88,-0.48,0.01
2153731977,-0.88,-0.48,0.01
2153733976,-0.88,-0.48,0.01
2153735978,-0.88,-0.48,0.01
2153737977,-0.88,-0.48,0.01
2153739978,-0.88,-0.47,0.01
2153742013,-0.88,-0.47,0.01
2153744043,-0.88,-0.47,0.01
2153745992,-0.88,-0.47,0.01
2153747972,-0.88,-0.47,0.01
2153750023,-0.88,-0.48,0.00
2153752036,-0.88,-0.48,0.00
2153754001,-0.88,-0.48,0.00
2153756008,-0.88,-0.48,0.00
2153758004,-0.88,-0.48,0.00
2153760006,-0.88,-0.48,0.01
2153762008,-0.88,-0.48,0.01
2153763979,-0.88,-0.48,0.01
2153765982,-0.88,-0.48,0.01
2153768016,-0.88,-0.48,0.01
2153769978,-0.88,-0.48,0.01
2153771972,-0.88,-0.48,0.01
2153773975,-0.88,-0.48,0.01
2153776000,-0.88,-0.48,0.01
2153777985,-0.88,-0.48,0.01
2153779971,-0.88,-0.50,0.01
2153781978,-0.88,-0.50,0.01
2153783977,-0.88,-0.50,0.01
2153785977,-0.88,-0.50,0.01
2153787980,-0.88,-0.50,0.01
2153790020,-0.89,-0.48,0.01
2153792007,-0.89,-0.48,0.01
2153794004,-0.89,-0.48,0.01
2153796012,-0.89,-0.48,0.01
2153798006,-0.89,-0.48,0.01
2153800003,-0.89,-0.48,0.01
2153802047,-0.89,-0.48,0.02
2153804061,-0.89,-0.48,0.02
2153806028,-0.89,-0.48,0.02
2153807977,-0.89,-0.48,0.02
2153809980,-0.89,-0.48,0.02
2153811977,-0.88,-0.46,0.02
2153813976,-0.88,-0.46,0.02
2153816016,-0.88,-0.46,0.02
2153817974,-0.88,-0.46,0.02
2153819981,-0.88,-0.46,0.02
2153821977,-0.89,-0.46,0.01
2153823975,-0.89,-0.46,0.01
2153826000,-0.89,-0.46,0.01
2153827986,-0.89,-0.46,0.01
2153830018,-0.89,-0.46,0.01
2153832004,-0.88,-0.45,0.01
2153834003,-0.88,-0.45,0.01
2153836005,-0.88,-0.45,0.01
2153838011,-0.88,-0.45,0.01
2153840009,-0.88,-0.45,0.01
2153842006,-0.88,-0.47,0.00
2153843979,-0.88,-0.47,0.00
2153845980,-0.88,-0.47,0.00
2153847979,-0.88,-0.47,0.00
2153849980,-0.88,-0.47,0.00
2153852059,-0.90,-0.46,0.01
2153854030,-0.90,-0.46,0.01
2153855980,-0.90,-0.46,0.01
2153857976,-0.90,-0.46,0.01
2153859977,-0.90,-0.46,0.01
2153861979,-0.89,-0.48,0.00
2153863977,-0.89,-0.48,0.00
2153865978,-0.89,-0.48,0.00
2153868011,-0.89,-0.48,0.00
2153870020,-0.89,-0.48,0.00
2153872004,-0.89,-0.47,0.00
2153874004,-0.89,-0.47,0.00
2153876020,-0.89,-0.47,0.00
2153878003,-0.89,-0.47,0.00
2153880004,-0.89,-0.47,0.00
2153882006,-0.88,-0.47,0.00
2153883980,-0.88,-0.47,0.00
2153885981,-0.88,-0.47,0.00
2153887981,-0.88,-0.47,0.00
2153889989,-0.88,-0.47,0.00
2153891976,-0.88,-0.48,0.00
2153893984,-0.88,-0.48,0.00
2153895992,-0.88,-0.48,0.00
2153897978,-0.88,-0.48,0.00
2153900117,-0.88,-0.48,0.00
2153902045,-0.88,-0.48,0.00
2153903981,-0.88,-0.48,0.00
2153905979,-0.88,-0.48,0.00
2153907985,-0.88,-0.48,0.00
2153910017,-0.88,-0.48,0.00
2153912006,-0.88,-0.48,0.01
2153914003,-0.88,-0.48,0.01
2153916005,-0.88,-0.48,0.01
2153918052,-0.88,-0.48,0.01
2153920008,-0.88,-0.48,0.01
2153922010,-0.89,-0.46,0.01
2153923994,-0.89,-0.46,0.01
2153926007,-0.89,-0.46,0.01
2153927980,-0.89,-0.46,0.01
2153929974,-0.89,-0.46,0.01
2153931981,-0.89,-0.46,0.01
2153933980,-0.89,-0.46,0.01
2153935979,-0.89,-0.46,0.01
2153937977,-0.89,-0.46,0.01
2153939979,-0.89,-0.46,0.01
2153941977,-0.88,-0.48,0.02
2153943979,-0.88,-0.48,0.02
2153945978,-0.88,-0.48,0.02
2153947979,-0.88,-0.48,0.02
2153950018,-0.88,-0.48,0.02
2153952030,-0.88,-0.50,0.02
2153954010,-0.88,-0.50,0.02
2153956004,-0.88,-0.50,0.02
2153958006,-0.88,-0.50,0.02
2153960006,-0.88,-0.50,0.02
2153962012,-0.87,-0.48,0.01
2153963984,-0.87,-0.48,0.01
2153965993,-0.87,-0.48,0.01
2153968015,-0.87,-0.48,0.01
2153969974,-0.87,-0.48,0.01
2153971978,-0.88,-0.46,0.01
2153973978,-0.88,-0.46,0.01
2153975999,-0.88,-0.46,0.01
2153977986,-0.88,-0.46,0.01
2153979977,-0.88,-0.46,0.01
2153981977,-0.88,-0.46,0.01
2153983980,-0.89,-0.45,0.02
2153985977,-0.89,-0.45,0.02
2153987980,-0.89,-0.45,0.02
2153990018,-0.89,-0.45,0.02
2153992001,-0.89,-0.45,0.02
2153994001,-0.88,-0.46,0.02
2153996005,-0.88,-0.46,0.02
2153998069,-0.88,-0.46,0.02
2154000033,-0.88,-0.46,0.02
2154002125,-0.88,-0.46,0.02
2154004011,-0.88,-0.48,0.01
2154005977,-0.88,-0.48,0.01
2154007980,-0.88,-0.48,0.01
2154009979,-0.88,-0.48,0.01
2154011979,-0.88,-0.48,0.01
2154013974,-0.88,-0.48,0.01
2154015977,-0.88,-0.48,0.01
2154018028,-0.88,-0.48,0.01
2154020008,-0.88,-0.48,0.01
2154021976,-0.88,-0.48,0.01
2154023976,-0.87,-0.49,0.00
2154025999,-0.87,-0.49,0.00
2154027981,-0.87,-0.49,0.00
2154030015,-0.87,-0.49,0.00
2154032004,-0.87,-0.49,0.00
2154034006,-0.88,-0.48,0.00
2154036005,-0.88,-0.48,0.00
2154038011,-0.88,-0.48,0.00
2154040004,-0.88,-0.48,0.00
2154041993,-0.88,-0.48,0.00
2154043979,-0.88,-0.48,-0.00
2154045984,-0.88,-0.48,-0.00
2154047978,-0.88,-0.48,-0.00
2154049974,-0.88,-0.48,-0.00
2154052088,-0.88,-0.48,-0.00
2154053977,-0.88,-0.48,-0.00
2154055975,-0.88,-0.48,-0.00
2154057984,-0.88,-0.48,-0.00
2154059980,-0.88,-0.48,-0.00
2154061980,-0.88,-0.48,-0.00
2154063979,-0.88,-0.48,0.00
2154065980,-0.88,-0.48,0.00
2154068016,-0.88,-0.48,0.00
2154070014,-0.88,-0.48,0.00
2154072007,-0.88,-0.48,0.00
2154074060,-0.88,-0.47,-0.01
2154076049,-0.88,-0.47,-0.01
2154078011,-0.88,-0.47,-0.01
2154080005,-0.88,-0.47,-0.01
2154082004,-0.88,-0.47,-0.01
2154084009,-0.88,-0.48,-0.00
2154086011,-0.88,-0.48,-0.00
2154087984,-0.88,-0.48,-0.00
2154089989,-0.88,-0.48,-0.00
2154091977,-0.88,-0.48,-0.00
2154093984,-0.88,-0.48,-0.00
2154095991,-0.88,-0.48,-0.00
2154097975,-0.88,-0.48,-0.00
2154099977,-0.88,-0.48,-0.00
2154102000,-0.88,-0.48,-0.00
2154103984,-0.88,-0.49,-0.01
2154105975,-0.88,-0.49,-0.01
2154107980,-0.88,-0.49,-0.01
2154110019,-0.88,-0.49,-0.01
2154112003,-0.88,-0.49,-0.01
2154114002,-0.88,-0.49,0.00
2154116004,-0.88,-0.49,0.00
2154118004,-0.88,-0.49,0.00
2154120051,-0.88,-0.49,0.00
2154122056,-0.88,-0.49,0.00
2154124047,-0.88,-0.48,-0.00
2154126028,-0.88,-0.48,-0.00
2154127976,-0.88,-0.48,-0.00
2154129977,-0.88,-0.48,-0.00
2154131979,-0.88,-0.48,-0.00
2154133977,-0.88,-0.48,0.00
2154135980,-0.88,-0.48,0.00
2154137980,-0.88,-0.48,0.00
2154139977,-0.88,-0.48,0.00
2154141977,-0.88,-0.48,0.00
2154143976,-0.89,-0.48,0.00
2154145984,-0.89,-0.48,0.00
2154147976,-0.89,-0.48,0.00
2154150019,-0.89,-0.48,0.00
2154152027,-0.89,-0.48,0.00
2154154005,-0.88,-0.48,0.00
2154156005,-0.88,-0.48,0.00
2154158010,-0.88,-0.48,0.00
2154160007,-0.88,-0.48,0.00
2154162006,-0.88,-0.48,0.00
2154163977,-0.89,-0.47,0.00
2154165979,-0.89,-0.47,0.00
2154168015,-0.89,-0.47,0.00
2154169981,-0.89,-0.47,0.00
2154171976,-0.89,-0.47,0.00
2154173977,-0.89,-0.47,0.00
2154176001,-0.89,-0.47,0.02
2154177980,-0.89,-0.47,0.02
2154179976,-0.89,-0.47,0.02
2154182052,-0.89,-0.47,0.02
2154184028,-0.89,-0.47,0.02
2154185975,-0.88,-0.48,0.01
2154187982,-0.88,-0.48,0.01
2154190024,-0.88,-0.48,0.01
2154192003,-0.88,-0.48,0.01
2154194003,-0.88,-0.48,0.01
2154196007,-0.88,-0.48,0.02
2154198005,-0.88,-0.48,0.02
2154200001,-0.88,-0.48,0.02
2154202037,-0.88,-0.48,0.02
2154203984,-0.88,-0.48,0.02
2154205977,-0.89,-0.48,0.01
2154207980,-0.89,-0.48,0.01
2154209979,-0.89,-0.48,0.01
2154211979,-0.89,-0.48,0.01
2154213981,-0.89,-0.48,0.01
2154215990,-0.88,-0.46,0.02
2154217978,-0.88,-0.46,0.02
2154219979,-0.88,-0.46,0.02
2154221978,-0.88,-0.46,0.02
2154223986,-0.88,-0.46,0.02
2154226221,-0.88,-0.47,0.02
2154228066,-0.88,-0.47,0.02
2154230014,-0.88,-0.47,0.02
2154232007,-0.88,-0.47,0.02
2154234006,-0.88,-0.47,0.02
2154236004,-0.88,-0.47,0.02
2154238045,-0.88,-0.47,0.02
2154240038,-0.88,-0.47,0.02
2154242040,-0.88,-0.47,0.02
2154244004,-0.88,-0.47,0.02
2154246009,-0.89,-0.46,0.02
2154247978,-0.89,-0.46,0.02
2154249980,-0.89,-0.46,0.02
2154252006,-0.89,-0.46,0.02
2154253976,-0.89,-0.46,0.02
2154255977,-0.88,-0.46,0.02
2154257974,-0.88,-0.46,0.02
2154259980,-0.88,-0.46,0.02
2154261976,-0.88,-0.46,0.02
2154263981,-0.88,-0.46,0.02
2154265979,-0.88,-0.46,0.02
2154268010,-0.88,-0.46,0.02
2154270016,-0.88,-0.46,0.02
2154272005,-0.88,-0.46,0.02
2154274004,-0.88,-0.46,0.02
2154276021,-0.89,-0.46,0.02
2154278010,-0.89,-0.46,0.02
2154280003,-0.89,-0.46,0.02
2154282006,-0.89,-0.46,0.02
2154283981,-0.89,-0.46,0.02
2154285979,-0.88,-0.46,0.01
2154287980,-0.88,-0.46,0.01
2154290020,-0.88,-0.46,0.01
2154292057,-0.88,-0.46,0.01
2154294014,-0.88,-0.46,0.01
2154295990,-0.89,-0.46,0.00
2154297973,-0.89,-0.46,0.00
2154299979,-0.89,-0.46,0.00
2154302006,-0.89,-0.46,0.00
2154303981,-0.89,-0.46,0.00
2154305980,-0.88,-0.46,0.00
2154307977,-0.88,-0.46,0.00
2154310018,-0.88,-0.46,0.00
2154312003,-0.88,-0.46,0.00
2154314001,-0.88,-0.46,0.00
2154316002,-0.88,-0.46,0.00
2154318005,-0.88,-0.46,0.00
2154320005,-0.88,-0.46,0.00
2154322006,-0.88,-0.46,0.00
2154323980,-0.88,-0.46,0.00
2154326013,-0.88,-0.48,0.00
2154328028,-0.88,-0.48,0.00
2154329977,-0.88,-0.48,0.00
2154331975,-0.88,-0.48,0.00
2154333977,-0.88,-0.48,0.00
2154335992,-0.88,-0.47,0.00
2154338065,-0.88,-0.47,0.00
2154340008,-0.88,-0.47,0.00
2154341977,-0.88,-0.47,0.00
2154343977,-0.88,-0.47,0.00
2154345977,-0.88,-0.48,-0.00
2154347975,-0.88,-0.48,-0.00
2154350024,-0.88,-0.48,-0.00
2154352033,-0.88,-0.48,-0.00
2154354003,-0.88,-0.48,-0.00
2154356001,-0.88,-0.49,-0.00
2154358004,-0.88,-0.49,-0.00
2154360004,-0.88,-0.49,-0.00
2154362002,-0.88,-0.49,-0.00
2154363977,-0.88,-0.49,-0.00
2154365993,-0.88,-0.49,-0.00
2154368018,-0.88,-0.50,-0.00
2154369977,-0.88,-0.50,-0.00
2154371980,-0.88,-0.50,-0.00
2154373975,-0.88,-0.50,-0.00
2154375998,-0.88,-0.50,-0.00
2154377985,-0.87,-0.50,-0.01
2154379977,-0.87,-0.50,-0.01
2154381978,-0.87,-0.50,-0.01
2154383977,-0.87,-0.50,-0.01
2154385977,-0.87,-0.50,-0.01
2154387980,-0.88,-0.49,0.00
2154390017,-0.88,-0.49,0.00
2154392008,-0.88,-0.49,0.00
2154394010,-0.88,-0.49,0.00
2154396011,-0.88,-0.49,0.00
2154398005,-0.88,-0.48,0.01
2154400010,-0.88,-0.48,0.01
2154402121,-0.88,-0.48,0.01
2154404009,-0.88,-0.48,0.01
2154405976,-0.88,-0.48,0.01
2154407979,-0.88,-0.49,0.00
2154409979,-0.88,-0.49,0.00
2154411976,-0.88,-0.49,0.00
2154413976,-0.88,-0.49,0.00
2154415979,-0.88,-0.49,0.00
2154417982,-0.87,-0.48,0.01
2154419977,-0.87,-0.48,0.01
2154421981,-0.87,-0.48,0.01
2154423981,-0.87,-0.48,0.01
2154425997,-0.87,-0.48,0.01
2154427982,-0.88,-0.49,0.00
2154430056,-0.88,-0.49,0.00
2154432007,-0.88,-0.49,0.00
2154434006,-0.88,-0.49,0.00
2154436002,-0.88,-0.49,0.00
2154438008,-0.87,-0.49,0.00
2154440040,-0.87,-0.49,0.00
2154442010,-0.87,-0.49,0.00
2154444108,-0.87,-0.49,0.00
2154446044,-0.87,-0.49,0.00
2154448006,-0.88,-0.48,0.01
2154450011,-0.88,-0.48,0.01
2154452101,-0.88,-0.48,0.01
2154453977,-0.88,-0.48,0.01
2154455974,-0.88,-0.48,0.01
2154457975,-0.88,-0.49,0.00
2154459980,-0.88,-0.49,0.00
2154461974,-0.88,-0.49,0.00
2154463980,-0.88,-0.49,0.00
2154465995,-0.88,-0.49,0.00
2154468012,-0.89,-0.48,0.00
2154470018,-0.89,-0.48,0.00
2154472005,-0.89,-0.48,0.00
2154474006,-0.89,-0.48,0.00
2154476024,-0.89,-0.48,0.00
2154478012,-0.89,-0.47,0.01
2154480007,-0.89,-0.47,0.01
2154482007,-0.89,-0.47,0.01
2154483978,-0.89,-0.47,0.01
2154485974,-0.89,-0.47,0.01
2154487977,-0.88,-0.47,0.01
2154489987,-0.88,-0.47,0.01
2154491994,-0.88,-0.47,0.01
2154493997,-0.88,-0.47,0.01
2154496078,-0.88,-0.47,0.01
2154498022,-0.88,-0.47,0.01
2154499974,-0.88,-0.47,0.01
2154502002,-0.88,-0.47,0.01
2154503978,-0.88,-0.47,0.01
2154505976,-0.88,-0.47,0.01
2154507974,-0.89,-0.47,0.01
2154510019,-0.89,-0.47,0.01
2154512006,-0.89,-0.47,0.01
2154514005,-0.89,-0.47,0.01
2154516010,-0.89,-0.47,0.01
2154518008,-0.88,-0.47,0.01
2154520009,-0.88,-0.47,0.01
2154522008,-0.88,-0.47,0.01
2154523976,-0.88,-0.47,0.01
2154526000,-0.88,-0.47,0.01
2154527982,-0.88,-0.47,0.01
2154529979,-0.88,-0.47,0.01
2154532022,-0.88,-0.47,0.01
2154533998,-0.88,-0.47,0.01
2154535974,-0.88,-0.47,0.01
2154537979,-0.88,-0.48,0.01
2154539978,-0.88,-0.48,0.01
2154542054,-0.88,-0.48,0.01
2154544015,-0.88,-0.48,0.01
2154545979,-0.88,-0.48,0.01
2154547977,-0.88,-0.48,0.01
2154550021,-0.88,-0.47,0.00
2154552031,-0.88,-0.47,0.00
2154554005,-0.88,-0.47,0.00
2154556007,-0.88,-0.47,0.00
2154558005,-0.88,-0.47,0.00
2154560006,-0.88,-0.46,0.00
2154562008,-0.88,-0.46,0.00
2154563986,-0.88,-0.46,0.00
2154565979,-0.88,-0.46,0.00
2154568009,-0.88,-0.46,0.00
2154569975,-0.88,-0.46,0.01
2154571981,-0.88,-0.46,0.01
2154573979,-0.88,-0.46,0.01
2154575998,-0.88,-0.46,0.01
2154577982,-0.88,-0.46,0.01
2154579976,-0.89,-0.46,0.01
2154581979,-0.89,-0.46,0.01
2154583977,-0.89,-0.46,0.01
2154585979,-0.89,-0.46,0.01
2154588131,-0.89,-0.46,0.01
2154590041,-0.88,-0.46,0.02
2154592004,-0.88,-0.46,0.02
2154594003,-0.88,-0.46,0.02
2154596010,-0.88,-0.46,0.02
2154598002,-0.88,-0.46,0.02
2154600003,-0.88,-0.46,0.02
2154602037,-0.88,-0.46,0.02
2154603975,-0.88,-0.46,0.02
2154605984,-0.88,-0.46,0.02
2154607975,-0.88,-0.46,0.02
2154609976,-0.88,-0.47,0.02
2154611979,-0.88,-0.47,0.02
2154613978,-0.88,-0.47,0.02
2154615976,-0.88,-0.47,0.02
2154617975,-0.88,-0.47,0.02
2154619976,-0.89,-0.47,0.02
2154622054,-0.89,-0.47,0.02
2154623975,-0.89,-0.47,0.02
2154625986,-0.89,-0.47,0.02
2154627981,-0.89,-0.47,0.02
2154630010,-0.88,-0.46,0.02
2154632005,-0.88,-0.46,0.02
2154634037,-0.88,-0.46,0.02
2154636042,-0.88,-0.46,0.02
2154638090,-0.88,-0.46,0.02
2154640042,-0.88,-0.48,0.02
2154642010,-0.88,-0.48,0.02
2154644003,-0.88,-0.48,0.02
2154646014,-0.88,-0.48,0.02
2154647974,-0.88,-0.48,0.02
2154649974,-0.88,-0.48,0.01
2154651998,-0.88,-0.48,0.01
2154653975,-0.88,-0.48,0.01
2154655975,-0.88,-0.48,0.01
2154657979,-0.88,-0.48,0.01
2154659978,-0.88,-0.47,0.01
2154661977,-0.88,-0.47,0.01
2154663980,-0.88,-0.47,0.01
2154665976,-0.88,-0.47,0.01
2154668007,-0.88,-0.47,0.01
2154670018,-0.88,-0.48,0.01
2154672009,-0.88,-0.48,0.01
2154674008,-0.88,-0.48,0.01
2154676020,-0.88,-0.48,0.01
2154678010,-0.88,-0.48,0.01
2154680010,-0.88,-0.48,0.00
2154681977,-0.88,-0.48,0.00
2154683977,-0.88,-0.48,0.00
2154685977,-0.88,-0.48,0.00
2154687983,-0.88,-0.48,0.00
2154689989,-0.89,-0.47,0.00
2154691977,-0.89,-0.47,0.00
2154693981,-0.89,-0.47,0.00
2154695991,-0.89,-0.47,0.00
2154698063,-0.89,-0.47,0.00
2154700019,-0.88,-0.48,0.00
2154701998,-0.88,-0.48,0.00
2154703975,-0.88,-0.48,0.00
2154705974,-0.88,-0.48,0.00
2154707977,-0.88,-0.48,0.00
2154710024,-0.88,-0.48,-0.00
2154712010,-0.88,-0.48,-0.00
2154714004,-0.88,-0.48,-0.00
2154716014,-0.88,-0.48,-0.00
2154718007,-0.88,-0.48,-0.00
2154720008,-0.89,-0.48,0.00
2154722014,-0.89,-0.48,0.00
2154723978,-0.89,-0.48,0.00
2154726003,-0.89,-0.48,0.00
2154727987,-0.89,-0.48,0.00
2154729979,-0.88,-0.49,0.00
2154731979,-0.88,-0.49,0.00
2154733978,-0.88,-0.49,0.00
2154735989,-0.88,-0.49,0.00
2154738023,-0.88,-0.49,0.00
2154739977,-0.88,-0.49,0.00
2154741980,-0.88,-0.48,0.00
2154743976,-0.88,-0.48,0.00
2154745984,-0.88,-0.48,0.00
2154747978,-0.88,-0.48,0.00
2154750023,-0.88,-0.48,0.00
2154752038,-0.88,-0.48,0.01
2154754009,-0.88,-0.48,0.01
2154756010,-0.88,-0.48,0.01
2154758011,-0.88,-0.48,0.01
2154760011,-0.88,-0.48,0.01
2154762011,-0.88,-0.49,0.00
2154763979,-0.88,-0.49,0.00
2154765981,-0.88,-0.49,0.00
2154768016,-0.88,-0.49,0.00
2154769976,-0.88,-0.49,0.00
2154771979,-0.88,-0.49,-0.00
2154773977,-0.88,-0.49,-0.00
2154775996,-0.88,-0.49,-0.00
2154777982,-0.88,-0.49,-0.00
2154779976,-0.88,-0.49,-0.00
2154781978,-0.88,-0.48,0.00
2154783979,-0.88,-0.48,0.00
2154785978,-0.88,-0.48,0.00
2154787980,-0.88,-0.48,0.00
2154790026,-0.88,-0.48,0.00
2154792003,-0.88,-0.48,0.00
2154794007,-0.88,-0.48,0.00
2154796034,-0.88,-0.48,0.00
2154798041,-0.88,-0.48,0.00
2154800009,-0.88,-0.48,0.00
2154802129,-0.88,-0.48,0.00
2154804014,-0.88,-0.48,0.00
2154805980,-0.88,-0.48,0.00
2154807976,-0.88,-0.48,0.00
2154809979,-0.88,-0.48,0.00
2154811981,-0.88,-0.47,0.00
2154813979,-0.88,-0.47,0.00
2154816032,-0.88,-0.47,0.00
2154817975,-0.88,-0.47,0.00
2154819974,-0.88,-0.47,0.00
2154821979,-0.88,-0.47,0.01
2154823979,-0.88,-0.47,0.01
2154826005,-0.88,-0.47,0.01
2154827986,-0.88,-0.47,0.01
2154830017,-0.88,-0.47,0.01
2154832008,-0.88,-0.48,0.00
2154834003,-0.88,-0.48,0.00
2154836000,-0.88,-0.48,0.00
2154838037,-0.88,-0.48,0.00
2154840041,-0.88,-0.48,0.00
2154842005,-0.88,-0.47,0.02
2154843979,-0.88,-0.47,0.02
2154845972,-0.88,-0.47,0.02
2154847976,-0.88,-0.47,0.02
2154849978,-0.88,-0.47,0.02
2154852089,-0.89,-0.46,0.01
2154853975,-0.89,-0.46,0.01
2154855974,-0.89,-0.46,0.01
2154857976,-0.89,-0.46,0.01
2154859973,-0.89,-0.46,0.01
2154861976,-0.88,-0.46,0.01
2154863974,-0.88,-0.46,0.01
2154865980,-0.88,-0.46,0.01
2154868010,-0.88,-0.46,0.01
2154870053,-0.88,-0.46,0.01
2154872027,-0.88,-0.46,0.02
2154874018,-0.88,-0.46,0.02
2154876022,-0.88,-0.46,0.02
2154878006,-0.88,-0.46,0.02
2154880007,-0.88,-0.46,0.02
2154882006,-0.88,-0.46,0.02
2154884005,-0.88,-0.46,0.02
2154886007,-0.88,-0.46,0.02
2154887983,-0.88,-0.46,0.02
2154889991,-0.88,-0.46,0.02
2154891985,-0.88,-0.47,0.01
2154893981,-0.88,-0.47,0.01
2154895991,-0.88,-0.47,0.01
2154897974,-0.88,-0.47,0.01
2154899976,-0.88,-0.47,0.01
2154901994,-0.88,-0.48,0.01
2154903979,-0.88,-0.48,0.01
2154905979,-0.88,-0.48,0.01
2154907975,-0.88,-0.48,0.01
2154910010,-0.88,-0.48,0.01
2154912006,-0.89,-0.47,0.01
2154914005,-0.89,-0.47,0.01
2154916004,-0.89,-0.47,0.01
2154918061,-0.89,-0.47,0.01
2154920034,-0.89,-0.47,0.01
2154922011,-0.89,-0.47,0.02
2154924005,-0.89,-0.47,0.02
2154926022,-0.89,-0.47,0.02
2154927986,-0.89,-0.47,0.02
2154929979,-0.89,-0.47,0.02
2154931975,-0.89,-0.47,0.02
2154933976,-0.88,-0.47,0.01
2154935975,-0.88,-0.47,0.01
2154937980,-0.88,-0.47,0.01
2154939978,-0.88,-0.47,0.01
2154941977,-0.88,-0.47,0.01
2154943980,-0.88,-0.46,0.01
2154945977,-0.88,-0.46,0.01
2154947977,-0.88,-0.46,0.01
2154950013,-0.88,-0.46,0.01
2154952023,-0.88,-0.46,0.01
2154954006,-0.88,-0.47,0.00
2154956005,-0.88,-0.47,0.00
2154958004,-0.88,-0.47,0.00
2154960001,-0.88,-0.47,0.00
2154961999,-0.88,-0.47,0.00
2154963987,-0.88,-0.47,0.02
2154965995,-0.88,-0.47,0.02
2154968006,-0.88,-0.47,0.02
2154969977,-0.88,-0.47,0.02
2154971975,-0.88,-0.47,0.02
2154973976,-0.88,-0.48,0.02
2154976001,-0.88,-0.48,0.02
2154977987,-0.88,-0.48,0.02
2154979976,-0.88,-0.48,0.02
2154981977,-0.88,-0.48,0.02
2154983976,-0.88,-0.47,0.02
2154985976,-0.88,-0.47,0.02
2154987980,-0.88,-0.47,0.02
2154990022,-0.88,-0.47,0.02
2154992037,-0.88,-0.47,0.02
2154994062,-0.89,-0.47,0.01
2154996029,-0.89,-0.47,0.01
2154998008,-0.89,-0.47,0.01
2155000004,-0.89,-0.47,0.01
2155002032,-0.89,-0.47,0.01
2155004005,-0.88,-0.47,0.02
2155006005,-0.88,-0.47,0.02
2155007980,-0.88,-0.47,0.02
2155009980,-0.88,-0.47,0.02
2155011979,-0.88,-0.47,0.02
2155013979,-0.88,-0.48,0.01
2155015980,-0.88,-0.48,0.01
2155017979,-0.88,-0.48,0.01
2155019977,-0.88,-0.48,0.01
2155021980,-0.88,-0.48,0.01
2155023976,-0.88,-0.48,0.00
2155025996,-0.88,-0.48,0.00
2155027982,-0.88,-0.48,0.00
2155030008,-0.88,-0.48,0.00
2155032001,-0.88,-0.48,0.00
2155034005,-0.88,-0.48,-0.00
2155036006,-0.88,-0.48,-0.00
2155038002,-0.88,-0.48,-0.00
2155040004,-0.88,-0.48,-0.00
2155042054,-0.88,-0.48,-0.00
2155044031,-0.88,-0.47,0.00
2155046013,-0.88,-0.47,0.00
2155047979,-0.88,-0.47,0.00
2155049979,-0.88,-0.47,0.00
2155051999,-0.88,-0.47,0.00
2155053977,-0.88,-0.48,-0.00
2155055977,-0.88,-0.48,-0.00
2155057974,-0.88,-0.48,-0.00
2155059979,-0.88,-0.48,-0.00
2155061975,-0.88,-0.48,-0.00
2155063974,-0.88,-0.48,-0.00
2155065980,-0.88,-0.48,-0.00
2155068011,-0.88,-0.48,-0.00
2155070023,-0.88,-0.48,-0.00
2155072006,-0.88,-0.48,-0.00
2155074002,-0.88,-0.48,0.00
2155076016,-0.88,-0.48,0.00
2155078009,-0.88,-0.48,0.00
2155080004,-0.88,-0.48,0.00
2155082004,-0.88,-0.48,0.00
2155083979,-0.88,-0.48,0.00
2155085985,-0.88,-0.48,0.00
2155087983,-0.88,-0.48,0.00
2155089987,-0.88,-0.48,0.00
2155091975,-0.88,-0.48,0.00
2155093979,-0.88,-0.49,0.00
2155095993,-0.88,-0.49,0.00
2155097975,-0.88,-0.49,0.00
2155099977,-0.88,-0.49,0.00
2155101997,-0.88,-0.49,0.00
2155103975,-0.88,-0.49,0.00
2155105975,-0.88,-0.49,0.00
2155107977,-0.88,-0.49,0.00
2155110015,-0.88,-0.49,0.00
2155112005,-0.88,-0.49,0.00
2155114004,-0.88,-0.49,0.00
2155116009,-0.88,-0.48,0.00
2155118005,-0.88,-0.48,0.00
2155120005,-0.88,-0.48,0.00
2155122010,-0.88,-0.48,0.00
2155123981,-0.88,-0.48,0.00
2155125997,-0.88,-0.48,0.00
2155127985,-0.88,-0.48,0.00
2155129979,-0.88,-0.48,0.00
2155131977,-0.88,-0.48,0.00
2155133979,-0.88,-0.48,0.00
2155135974,-0.88,-0.49,0.00
2155137979,-0.88,-0.49,0.00
2155140069,-0.88,-0.49,0.00
2155142018,-0.88,-0.49,0.00
2155143974,-0.88,-0.49,0.00
2155145993,-0.89,-0.48,0.00
2155148021,-0.89,-0.48,0.00
2155150027,-0.89,-0.48,0.00
2155152036,-0.89,-0.48,0.00
2155154003,-0.89,-0.48,0.00
2155156003,-0.88,-0.49,0.01
2155158006,-0.88,-0.49,0.01
2155160001,-0.88,-0.49,0.01
2155162003,-0.88,-0.49,0.01
2155163980,-0.88,-0.49,0.01
2155165980,-0.88,-0.48,0.00
2155168010,-0.88,-0.48,0.00
2155169979,-0.88,-0.48,0.00
2155171980,-0.88,-0.48,0.00
2155173979,-0.88,-0.48,0.00
2155175996,-0.88,-0.47,0.01
2155177980,-0.88,-0.47,0.01
2155179975,-0.88,-0.47,0.01
2155181981,-0.88,-0.47,0.01
2155183979,-0.88,-0.47,0.01
2155185979,-0.88,-0.48,0.01
2155187982,-0.88,-0.48,0.01
2155190026,-0.88,-0.48,0.01
2155192004,-0.88,-0.48,0.01
2155194004,-0.88,-0.48,0.01
2155196010,-0.89,-0.48,0.01
2155198008,-0.89,-0.48,0.01
2155200004,-0.89,-0.48,0.01
2155202035,-0.89,-0.48,0.01
2155203981,-0.89,-0.48,0.01
2155205984,-0.88,-0.47,0.02
2155207978,-0.88,-0.47,0.02
2155209980,-0.88,-0.47,0.02
2155211980,-0.88,-0.47,0.02
2155213981,-0.88,-0.47,0.02
2155215993,-0.88,-0.47,0.01
2155217981,-0.88,-0.47,0.01
2155219976,-0.88,-0.47,0.01
2155221978,-0.88,-0.47,0.01
2155223977,-0.88,-0.47,0.01
2155225990,-0.88,-0.46,0.00
2155227985,-0.88,-0.46,0.00
2155230011,-0.88,-0.46,0.00
2155232008,-0.88,-0.46,0.00
2155234000,-0.88,-0.46,0.00
2155236015,-0.89,-0.46,0.02
2155238045,-0.89,-0.46,0.02
2155240009,-0.89,-0.46,0.02
2155242005,-0.89,-0.46,0.02
2155244003,-0.89,-0.46,0.02
2155245979,-0.88,-0.48,0.01
2155247986,-0.88,-0.48,0.01
2155250026,-0.88,-0.48,0.01
2155252000,-0.88,-0.48,0.01
2155253976,-0.88,-0.48,0.01
2155255974,-0.89,-0.47,0.00
2155257975,-0.89,-0.47,0.00
2155259980,-0.89,-0.47,0.00
2155261977,-0.89,-0.47,0.00
2155263973,-0.89,-0.47,0.00
2155265977,-0.88,-0.46,0.00
2155268019,-0.88,-0.46,0.00
2155270020,-0.88,-0.46,0.00
2155272041,-0.88,-0.46,0.00
2155273964,-0.88,-0.46,0.00
2155275983,-0.89,-0.47,0.01
2155277962,-0.89,-0.47,0.01
2155279956,-0.89,-0.47,0.01
2155281956,-0.89,-0.47,0.01
2155283961,-0.89,-0.47,0.01
2155285956,-0.88,-0.48,0.01
2155287959,-0.88,-0.48,0.01
2155289972,-0.88,-0.48,0.01
2155291956,-0.88,-0.48,0.01
2155293960,-0.88,-0.48,0.01
2155295978,-0.88,-0.47,0.01
2155297958,-0.88,-0.47,0.01
2155299958,-0.88,-0.47,0.01
2155301979,-0.88,-0.47,0.01
2155303959,-0.88,-0.47,0.01
2155305957,-0.88,-0.47,0.01
2155307957,-0.88,-0.46,0.01
2155309957,-0.88,-0.46,0.01
2155311958,-0.88,-0.46,0.01
2155313958,-0.88,-0.46,0.01
2155315957,-0.88,-0.46,0.01
2155317957,-0.87,-0.48,0.01
2155408053,-0.88,-0.49,-0.00
2155410000,-0.88,-0.49,-0.00
2155412005,-0.88,-0.49,-0.00
2155414003,-0.88,-0.49,-0.00
2155416006,-0.88,-0.49,-0.00
2155418001,-0.88,-0.48,0.00
2155420006,-0.88,-0.48,0.00
2155421979,-0.88,-0.48,0.00
2155423979,-0.88,-0.48,0.00
2155425997,-0.88,-0.48,0.00
2155427982,-0.88,-0.47,0.00
2155429981,-0.88,-0.47,0.00
2155431977,-0.88,-0.47,0.00
2155433978,-0.88,-0.47,0.00
2155435975,-0.88,-0.47,0.00
2155437974,-0.88,-0.48,0.00
2155439980,-0.88,-0.48,0.00
2155441977,-0.88,-0.48,0.00
2155443977,-0.88,-0.48,0.00
2155445976,-0.88,-0.48,0.00
2155448002,-0.88,-0.48,0.00
2155450001,-0.88,-0.48,0.00
2155452026,-0.88,-0.48,0.00
2155454039,-0.88,-0.48,0.00
2155456020,-0.88,-0.48,0.00
2155458009,-0.89,-0.48,0.00
2155460005,-0.89,-0.48,0.00
2155461979,-0.89,-0.48,0.00
2155463980,-0.89,-0.48,0.00
2155466047,-0.89,-0.48,0.00
2155468018,-0.88,-0.48,0.01
2155469977,-0.88,-0.48,0.01
2155471976,-0.88,-0.48,0.01
2155473977,-0.88,-0.48,0.01
2155476001,-0.88,-0.48,0.01
2155477980,-0.88,-0.48,0.01
2155479976,-0.88,-0.48,0.01
2155481978,-0.88,-0.48,0.01
2155483978,-0.88,-0.48,0.01
2155485976,-0.88,-0.48,0.01
2155488019,-0.88,-0.48,0.00
2155490012,-0.88,-0.48,0.00
2155492002,-0.88,-0.48,0.00
2155493999,-0.88,-0.48,0.00
2155496008,-0.88,-0.48,0.00
2155498000,-0.88,-0.48,0.00
2155500004,-0.88,-0.47,0.00
2155501995,-0.88,-0.47,0.00
2155503977,-0.88,-0.47,0.00
2155505978,-0.88,-0.47,0.00
2155507974,-0.88,-0.47,0.00
2155509982,-0.88,-0.46,0.01
2155512136,-0.88,-0.46,0.01
2155514011,-0.88,-0.46,0.01
2155515979,-0.88,-0.46,0.01
2155517976,-0.88,-0.46,0.01
2155519977,-0.88,-0.48,0.00
2155521976,-0.88,-0.48,0.00
2155523976,-0.88,-0.48,0.00
2155526000,-0.88,-0.48,0.00
2155528023,-0.88,-0.48,0.00
2155530000,-0.88,-0.48,0.00
2155532003,-0.88,-0.48,0.00
2155534002,-0.88,-0.48,0.00
2155536006,-0.88,-0.48,0.00
2155538004,-0.88,-0.48,0.00
2155540005,-0.88,-0.48,0.01
2155541980,-0.88,-0.48,0.01
2155543980,-0.88,-0.48,0.01
2155545985,-0.88,-0.48,0.01
2155547979,-0.88,-0.48,0.01
2155549980,-0.88,-0.48,0.00
2155551994,-0.88,-0.48,0.00
2155553976,-0.88,-0.48,0.00
2155556020,-0.88,-0.48,0.00
2155557994,-0.88,-0.48,0.00
2155559976,-0.89,-0.47,0.00
2155561980,-0.89,-0.47,0.00
2155563977,-0.89,-0.47,0.00
2155565980,-0.89,-0.47,0.00
2155568055,-0.89,-0.47,0.00
2155570062,-0.89,-0.46,0.02
2155572026,-0.89,-0.46,0.02
2155574009,-0.89,-0.46,0.02
2155576024,-0.89,-0.46,0.02
2155578011,-0.89,-0.46,0.02
2155580006,-0.88,-0.47,0.02
2155582004,-0.88,-0.47,0.02
2155584006,-0.88,-0.47,0.02
2155585987,-0.88,-0.47,0.02
2155587978,-0.88,-0.47,0.02
2155589986,-0.88,-0.48,0.01
2155591974,-0.88,-0.48,0.01
2155593981,-0.88,-0.48,0.01
2155595992,-0.88,-0.48,0.01
2155597976,-0.88,-0.48,0.01
2155599979,-0.88,-0.48,0.01
2155602008,-0.88,-0.48,0.01
2155603979,-0.88,-0.48,0.01
2155605979,-0.88,-0.48,0.01
2155608011,-0.88,-0.48,0.01
2155610003,-0.87,-0.48,-0.01
2155612007,-0.87,-0.48,-0.01
2155614005,-0.87,-0.48,-0.01
2155616007,-0.87,-0.48,-0.01
2155618008,-0.87,-0.48,-0.01
2155620012,-0.88,-0.48,-0.01
2155622055,-0.88,-0.48,-0.01
2155623976,-0.88,-0.48,-0.01
2155626097,-0.88,-0.48,-0.01
2155628062,-0.88,-0.48,-0.01
2155630020,-0.88,-0.48,0.00
2155631977,-0.88,-0.48,0.00
2155633980,-0.88,-0.48,0.00
2155635976,-0.88,-0.48,0.00
2155637975,-0.88,-0.48,0.00
2155639977,-0.88,-0.48,-0.00
2155641981,-0.88,-0.48,-0.00
2155643980,-0.88,-0.48,-0.00
2155645979,-0.88,-0.48,-0.00
2155648021,-0.88,-0.48,-0.00
2155650003,-0.88,-0.48,-0.00
2155652125,-0.88,-0.48,-0.00
2155654012,-0.88,-0.48,-0.00
2155656009,-0.88,-0.48,-0.00
2155658029,-0.88,-0.48,-0.00
2155660046,-0.88,-0.48,0.00
2155662010,-0.88,-0.48,0.00
2155663977,-0.88,-0.48,0.00
2155665980,-0.88,-0.48,0.00
2155668016,-0.88,-0.48,0.00
2155669972,-0.88,-0.47,0.01
2155671972,-0.88,-0.47,0.01
2155673976,-0.88,-0.47,0.01
2155676091,-0.88,-0.47,0.01
2155678025,-0.88,-0.47,0.01
2155680038,-0.88,-0.48,0.00
2155682002,-0.88,-0.48,0.00
2155683980,-0.88,-0.48,0.00
2155685976,-0.88,-0.48,0.00
2155688023,-0.88,-0.48,0.00
2155690013,-0.88,-0.48,0.00
2155691998,-0.88,-0.48,0.01
2155694009,-0.88,-0.48,0.01
2155696015,-0.88,-0.48,0.01
2155698009,-0.88,-0.48,0.01
2155700008,-0.88,-0.48,0.01
2155702096,-0.88,-0.48,0.00
2155703980,-0.88,-0.48,0.00
2155705976,-0.88,-0.48,0.00
2155707980,-0.88,-0.48,0.00
2155709976,-0.88,-0.48,0.00
2155711978,-0.88,-0.48,0.00
2155713978,-0.88,-0.48,0.00
2155715980,-0.88,-0.48,0.00
2155717993,-0.88,-0.48,0.00
2155719978,-0.88,-0.48,0.00
2155721978,-0.88,-0.47,0.01
2155724004,-0.88,-0.47,0.01
2155726218,-0.88,-0.47,0.01
2155728029,-0.88,-0.47,0.01
2155730011,-0.88,-0.47,0.01
2155732005,-0.88,-0.47,0.00
2155734004,-0.88,-0.47,0.00
2155736002,-0.88,-0.47,0.00
2155738002,-0.88,-0.47,0.00
2155740003,-0.88,-0.47,0.00
2155741976,-0.88,-0.48,-0.00
2155743985,-0.88,-0.48,-0.00
2155745981,-0.88,-0.48,-0.00
2155747976,-0.88,-0.48,-0.00
2155749979,-0.88,-0.48,-0.00
2155752085,-0.88,-0.48,0.00
2155753981,-0.88,-0.48,0.00
2155755980,-0.88,-0.48,0.00
2155757983,-0.88,-0.48,0.00
2155760020,-0.88,-0.48,0.00
2155761976,-0.88,-0.48,0.01
2155763979,-0.88,-0.48,0.01
2155765978,-0.88,-0.48,0.01
2155768048,-0.88,-0.48,0.01
2155770005,-0.88,-0.48,0.01
2155771999,-0.88,-0.48,-0.00
2155774006,-0.88,-0.48,-0.00
2155776111,-0.88,-0.48,-0.00
2155778011,-0.88,-0.48,-0.00
2155780006,-0.88,-0.48,-0.00
2155781978,-0.88,-0.48,0.00
2155783978,-0.88,-0.48,0.00
2155785978,-0.88,-0.48,0.00
2155788012,-0.88,-0.48,0.00
2155790090,-0.88,-0.48,0.00
2155792016,-0.88,-0.48,0.01
2155793981,-0.88,-0.48,0.01
2155795987,-0.88,-0.48,0.01
2155797977,-0.88,-0.48,0.01
2155799976,-0.88,-0.48,0.01
2155802100,-0.88,-0.48,0.01
2155803977,-0.88,-0.48,0.01
2155805977,-0.88,-0.48,0.01
2155808023,-0.88,-0.48,0.01
2155810002,-0.88,-0.48,0.01
2155812008,-0.88,-0.48,0.01
2155814008,-0.88,-0.48,0.01
2155816006,-0.88,-0.48,0.01
2155818003,-0.88,-0.48,0.01
2155820006,-0.88,-0.48,0.01
2155821984,-0.88,-0.47,0.00
2155823981,-0.88,-0.47,0.00
2155826087,-0.88,-0.47,0.00
2155827989,-0.88,-0.47,0.00
2155829978,-0.88,-0.47,0.00
2155831976,-0.88,-0.47,0.02
2155833980,-0.88,-0.47,0.02
2155835981,-0.88,-0.47,0.02
2155837979,-0.88,-0.47,0.02
2155839980,-0.88,-0.47,0.02
2155841977,-0.88,-0.47,0.01
2155843984,-0.88,-0.47,0.01
2155845981,-0.88,-0.47,0.01
2155848011,-0.88,-0.47,0.01
2155850003,-0.88,-0.47,0.01
2155852216,-0.89,-0.46,0.02
2155854040,-0.89,-0.46,0.02
2155856011,-0.89,-0.46,0.02
2155858010,-0.89,-0.46,0.02
2155860008,-0.89,-0.46,0.02
2155862010,-0.88,-0.48,0.00
2155864045,-0.88,-0.48,0.00
2155865980,-0.88,-0.48,0.00
2155868008,-0.88,-0.48,0.00
2155869978,-0.88,-0.48,0.00
2155871976,-0.88,-0.48,0.00
2155873984,-0.88,-0.47,0.00
2155876094,-0.88,-0.47,0.00
2155877992,-0.88,-0.47,0.00
2155879978,-0.88,-0.47,0.00
2155881977,-0.88,-0.47,0.00
2155883977,-0.88,-0.48,0.00
2155885977,-0.88,-0.48,0.00
2155888020,-0.88,-0.48,0.00
2155890013,-0.88,-0.48,0.00
2155892007,-0.88,-0.48,0.00
2155894010,-0.88,-0.48,0.00
2155896008,-0.88,-0.48,0.00
2155898008,-0.88,-0.48,0.00
2155899979,-0.88,-0.48,0.00
2155902086,-0.88,-0.48,0.00
2155903977,-0.88,-0.47,0.00
2155905979,-0.88,-0.47,0.00
2155907975,-0.88,-0.47,0.00
2155909980,-0.88,-0.47,0.00
2155911981,-0.88,-0.47,0.00
2155913980,-0.88,-0.48,0.00
2155915979,-0.88,-0.48,0.00
2155917978,-0.88,-0.48,0.00
2155919977,-0.88,-0.48,0.00
2155921981,-0.88,-0.48,0.00
2155923980,-0.88,-0.48,0.01
2155926052,-0.88,-0.48,0.01
2155928016,-0.88,-0.48,0.01
2155930004,-0.88,-0.48,0.01
2155932008,-0.88,-0.48,0.01
2155934007,-0.88,-0.48,0.01
2155936012,-0.88,-0.48,0.01
2155938034,-0.88,-0.48,0.01
2155940041,-0.88,-0.48,0.01
2155942010,-0.88,-0.48,0.01
2155943979,-0.88,-0.48,0.00
2155945978,-0.88,-0.48,0.00
2155947980,-0.88,-0.48,0.00
2155950036,-0.88,-0.48,0.00
2155952102,-0.88,-0.48,0.00
2155953978,-0.88,-0.47,0.01
2155955974,-0.88,-0.47,0.01
2155957977,-0.88,-0.47,0.01
2155959979,-0.88,-0.47,0.01
2155961976,-0.88,-0.47,0.01
2155964024,-0.88,-0.48,0.01
2155966017,-0.88,-0.48,0.01
2155968064,-0.88,-0.48,0.01
2155970005,-0.88,-0.48,0.01
2155972009,-0.88,-0.48,0.01
2155974009,-0.88,-0.48,0.00
2155976114,-0.88,-0.48,0.00
2155978015,-0.88,-0.48,0.00
2155980011,-0.88,-0.48,0.00
2155981984,-0.88,-0.48,0.00
2155983980,-0.88,-0.47,0.01
2155985979,-0.88,-0.47,0.01
2155987982,-0.88,-0.47,0.01
2155989989,-0.88,-0.47,0.01
2155991976,-0.88,-0.47,0.01
2155993980,-0.88,-0.48,0.00
2155995989,-0.88,-0.48,0.00
2155997979,-0.88,-0.48,0.00
2155999976,-0.88,-0.48,0.00
2156002080,-0.88,-0.48,0.00
2156003977,-0.89,-0.48,0.01
2156005980,-0.89,-0.48,0.01
2156008073,-0.89,-0.48,0.01
2156010029,-0.89,-0.48,0.01
2156012009,-0.89,-0.48,0.01
2156014010,-0.88,-0.48,0.00
2156016008,-0.88,-0.48,0.00
2156018006,-0.88,-0.48,0.00
2156020005,-0.88,-0.48,0.00
2156022005,-0.88,-0.48,0.00
2156024004,-0.88,-0.47,0.00
2156026091,-0.88,-0.47,0.00
2156027987,-0.88,-0.47,0.00
2156029979,-0.88,-0.47,0.00
2156031979,-0.88,-0.47,0.00
2156033975,-0.88,-0.48,0.00
2156035979,-0.88,-0.48,0.00
2156037975,-0.88,-0.48,0.00
2156039981,-0.88,-0.48,0.00
2156041979,-0.88,-0.48,0.00
2156043980,-0.88,-0.48,0.01
2156045979,-0.88,-0.48,0.01
2156048009,-0.88,-0.48,0.01
2156050003,-0.88,-0.48,0.01
2156052100,-0.88,-0.48,0.01
2156054050,-0.88,-0.48,0.00
2156056038,-0.88,-0.48,0.00
2156058016,-0.88,-0.48,0.00
2156060005,-0.88,-0.48,0.00
2156062005,-0.88,-0.48,0.00
2156064010,-0.88,-0.48,0.00
2156065981,-0.88,-0.48,0.00
2156068010,-0.88,-0.48,0.00
2156069985,-0.88,-0.48,0.00
2156071977,-0.88,-0.48,0.00
2156073976,-0.88,-0.48,0.00
2156076093,-0.88,-0.48,0.01
2156077989,-0.88,-0.48,0.01
2156079977,-0.88,-0.48,0.01
2156081974,-0.88,-0.48,0.01
2156083978,-0.88,-0.48,0.01
2156085975,-0.88,-0.48,0.00
2156088013,-0.88,-0.48,0.00
2156090008,-0.88,-0.48,0.00
2156092001,-0.88,-0.48,0.00
2156094005,-0.88,-0.48,0.00
2156096013,-0.88,-0.47,0.00
2156098009,-0.88,-0.47,0.00
2156100012,-0.88,-0.47,0.00
2156102086,-0.88,-0.47,0.00
2156103979,-0.88,-0.47,0.00
2156105978,-0.88,-0.47,0.00
2156107980,-0.88,-0.47,0.00
2156109979,-0.88,-0.47,0.00
2156111979,-0.88,-0.47,0.00
2156113974,-0.88,-0.47,0.00
2156115977,-0.88,-0.47,0.00
2156117980,-0.88,-0.47,0.00
2156119976,-0.88,-0.47,0.00
2156121981,-0.88,-0.47,0.00
2156124004,-0.88,-0.47,0.00
2156126106,-0.88,-0.47,0.01
2156128042,-0.88,-0.47,0.01
2156130010,-0.88,-0.47,0.01
2156132005,-0.88,-0.47,0.01
2156134004,-0.88,-0.47,0.01
2156136006,-0.88,-0.47,0.02
2156138002,-0.88,-0.47,0.02
2156140008,-0.88,-0.47,0.02
2156141980,-0.88,-0.47,0.02
2156143979,-0.88,-0.47,0.02
2156145978,-0.88,-0.48,0.01
2156147974,-0.88,-0.48,0.01
2156149980,-0.88,-0.48,0.01
2156152089,-0.88,-0.48,0.01
2156153976,-0.88,-0.48,0.01
2156155979,-0.88,-0.47,0.01
2156157979,-0.88,-0.47,0.01
2156159976,-0.88,-0.47,0.01
2156161977,-0.88,-0.47,0.01
2156163980,-0.88,-0.47,0.01
2156165977,-0.88,-0.48,0.01
2156168046,-0.88,-0.48,0.01
2156170060,-0.88,-0.48,0.01
2156172046,-0.88,-0.48,0.01
2156174005,-0.88,-0.48,0.01
2156176107,-0.88,-0.48,0.00
2156178011,-0.88,-0.48,0.00
2156180048,-0.88,-0.48,0.00
2156182043,-0.88,-0.48,0.00
2156184007,-0.88,-0.48,0.00
2156186014,-0.88,-0.48,0.00
2156187980,-0.88,-0.48,0.00
2156189988,-0.88,-0.48,0.00
2156191980,-0.88,-0.48,0.00
2156193980,-0.88,-0.48,0.00
2156195991,-0.88,-0.48,0.01
2156197974,-0.88,-0.48,0.01
2156199990,-0.88,-0.48,0.01
2156202096,-0.88,-0.48,0.01
2156203976,-0.88,-0.48,0.01
2156205976,-0.88,-0.47,0.00
2156208016,-0.88,-0.47,0.00
2156210008,-0.88,-0.47,0.00
2156212000,-0.88,-0.47,0.00
2156214006,-0.88,-0.47,0.00
2156216006,-0.88,-0.47,0.01
2156218009,-0.88,-0.47,0.01
2156220008,-0.88,-0.47,0.01
2156221977,-0.88,-0.47,0.01
2156223978,-0.88,-0.47,0.01
2156226212,-0.88,-0.48,0.01
2156228067,-0.88,-0.48,0.01
2156230023,-0.88,-0.48,0.01
2156231979,-0.88,-0.48,0.01
2156233978,-0.88,-0.48,0.01
2156235976,-0.88,-0.48,0.00
2156237977,-0.88,-0.48,0.00
2156239976,-0.88,-0.48,0.00
2156241976,-0.88,-0.48,0.00
2156243977,-0.88,-0.48,0.00
2156245977,-0.88,-0.48,0.00
2156248019,-0.88,-0.48,-0.00
2156250006,-0.88,-0.48,-0.00
2156252121,-0.88,-0.48,-0.00
2156254005,-0.88,-0.48,-0.00
2156256007,-0.88,-0.48,-0.00
2156258004,-0.88,-0.47,0.01
2156260008,-0.88,-0.47,0.01
2156261979,-0.88,-0.47,0.01
2156263973,-0.88,-0.47,0.01
2156265985,-0.88,-0.47,0.01
2156268011,-0.88,-0.48,0.01
2156269979,-0.88,-0.48,0.01
2156271979,-0.88,-0.48,0.01
2156273976,-0.88,-0.48,0.01
2156276091,-0.88,-0.48,0.01
2156278067,-0.88,-0.48,0.01
2156280048,-0.88,-0.48,0.01
2156282017,-0.88,-0.48,0.01
2156283977,-0.88,-0.48,0.01
2156285979,-0.88,-0.48,0.01
2156288022,-0.88,-0.48,0.01
2156290007,-0.88,-0.48,0.01
2156292003,-0.88,-0.48,0.01
2156294008,-0.88,-0.48,0.01
2156296007,-0.88,-0.48,0.01
2156298007,-0.88,-0.47,0.01
2156300004,-0.88,-0.47,0.01
2156302123,-0.88,-0.47,0.01
2156303981,-0.88,-0.47,0.01
2156305979,-0.88,-0.47,0.01
2156307980,-0.88,-0.48,0.01
2156309976,-0.88,-0.48,0.01
2156311981,-0.88,-0.48,0.01
2156313979,-0.88,-0.48,0.01
2156315979,-0.88,-0.48,0.01
2156317978,-0.88,-0.47,0.00
2156319979,-0.88,-0.47,0.00
2156321978,-0.88,-0.47,0.00
2156323975,-0.88,-0.47,0.00
2156326050,-0.88,-0.47,0.00
2156328015,-0.89,-0.47,0.00
2156330004,-0.89,-0.47,0.00
2156332016,-0.89,-0.47,0.00
2156334009,-0.89,-0.47,0.00
2156336070,-0.89,-0.47,0.00
2156338041,-0.88,-0.48,0.01
2156340010,-0.88,-0.48,0.01
2156342006,-0.88,-0.48,0.01
2156344008,-0.88,-0.48,0.01
2156345980,-0.88,-0.48,0.01
2156347981,-0.88,-0.49,0.00
2156349984,-0.88,-0.49,0.00
2156352104,-0.88,-0.49,0.00
2156353979,-0.88,-0.49,0.00
2156355977,-0.88,-0.49,0.00
2156357978,-0.88,-0.49,0.00
2156359979,-0.88,-0.49,0.00
2156361979,-0.88,-0.49,0.00
2156363976,-0.88,-0.49,0.00
2156365983,-0.88,-0.49,0.00
2156368041,-0.88,-0.48,0.00
2156370007,-0.88,-0.48,0.00
2156372007,-0.88,-0.48,0.00
2156374008,-0.88,-0.48,0.00
2156376116,-0.88,-0.48,0.00
2156378008,-0.89,-0.47,0.00
2156380009,-0.89,-0.47,0.00
2156382014,-0.89,-0.47,0.00
2156384060,-0.89,-0.47,0.00
2156386017,-0.89,-0.47,0.00
2156387983,-0.88,-0.47,0.01
2156389991,-0.88,-0.47,0.01
2156391979,-0.88,-0.47,0.01
2156393981,-0.88,-0.47,0.01
2156395989,-0.88,-0.47,0.01
2156397984,-0.88,-0.48,0.00
2156399976,-0.88,-0.48,0.00
2156402097,-0.88,-0.48,0.00
2156403976,-0.88,-0.48,0.00
2156405978,-0.88,-0.48,0.00
2156408026,-0.88,-0.48,0.02
2156410003,-0.88,-0.48,0.02
2156412004,-0.88,-0.48,0.02
2156414007,-0.88,-0.48,0.02
2156416005,-0.88,-0.48,0.02
2156418004,-0.88,-0.48,0.00
2156420009,-0.88,-0.48,0.00
2156421980,-0.88,-0.48,0.00
2156423979,-0.88,-0.48,0.00
2156426084,-0.88,-0.48,0.00
2156427987,-0.88,-0.48,0.00
2156429976,-0.88,-0.48,0.01
2156431979,-0.88,-0.48,0.01
2156433979,-0.88,-0.48,0.01
2156435981,-0.88,-0.48,0.01
2156437975,-0.88,-0.48,0.01
2156439984,-0.88,-0.48,-0.00
2156441979,-0.88,-0.48,-0.00
2156443981,-0.88,-0.48,-0.00
2156445975,-0.88,-0.48,-0.00
2156448017,-0.88,-0.48,-0.00
2156450007,-0.88,-0.48,0.01
2156452103,-0.88,-0.48,0.01
2156454004,-0.88,-0.48,0.01
2156456005,-0.88,-0.48,0.01
2156458006,-0.88,-0.48,0.01
2156460009,-0.88,-0.48,0.00
2156461976,-0.88,-0.48,0.00
2156463981,-0.88,-0.48,0.00
2156465984,-0.88,-0.48,0.00
2156468020,-0.88,-0.48,0.00
2156469976,-0.88,-0.48,0.00
2156471974,-0.88,-0.48,0.00
2156473979,-0.88,-0.48,0.00
2156476086,-0.88,-0.48,0.00
2156478027,-0.88,-0.48,0.00
2156479976,-0.88,-0.48,0.00
2156481973,-0.88,-0.48,0.00
2156483975,-0.88,-0.48,0.00
2156485979,-0.88,-0.48,0.00
2156488019,-0.88,-0.48,0.00
2156490007,-0.88,-0.48,0.01
2156492013,-0.88,-0.48,0.01
2156494043,-0.88,-0.48,0.01
2156496047,-0.88,-0.48,0.01
2156498040,-0.88,-0.48,0.01
2156500007,-0.88,-0.48,0.00
2156502120,-0.88,-0.48,0.00
2156504009,-0.88,-0.48,0.00
2156505979,-0.88,-0.48,0.00
2156507979,-0.88,-0.48,0.00
2156509976,-0.88,-0.47,0.01
2156511976,-0.88,-0.47,0.01
2156513984,-0.88,-0.47,0.01
2156515980,-0.88,-0.47,0.01
2156517984,-0.88,-0.47,0.01
2156519981,-0.88,-0.46,0.01
2156521980,-0.88,-0.46,0.01
2156523980,-0.88,-0.46,0.01
2156526079,-0.88,-0.46,0.01
2156528017,-0.88,-0.46,0.01
2156530005,-0.88,-0.47,0.01
2156532007,-0.88,-0.47,0.01
2156534002,-0.88,-0.47,0.01
2156536005,-0.88,-0.47,0.01
2156538004,-0.88,-0.47,0.01
2156540008,-0.87,-0.46,0.01
2156542069,-0.87,-0.46,0.01
2156544014,-0.87,-0.46,0.01
2156545978,-0.87,-0.46,0.01
2156547976,-0.87,-0.46,0.01
2156549977,-0.89,-0.47,0.02
2156552095,-0.89,-0.47,0.02
2156553976,-0.89,-0.47,0.02
2156555976,-0.89,-0.47,0.02
2156557978,-0.89,-0.47,0.02
2156559975,-0.88,-0.46,0.01
2156561975,-0.88,-0.46,0.01
2156563978,-0.88,-0.46,0.01
2156565980,-0.88,-0.46,0.01
2156568044,-0.88,-0.46,0.01
2156570004,-0.89,-0.47,0.01
2156572002,-0.89,-0.47,0.01
2156574004,-0.89,-0.47,0.01
2156576104,-0.89,-0.47,0.01
2156578008,-0.89,-0.47,0.01
2156580009,-0.89,-0.46,0.02
2156581979,-0.89,-0.46,0.02
2156583978,-0.89,-0.46,0.02
2156585979,-0.89,-0.46,0.02
2156587983,-0.89,-0.46,0.02
2156589988,-0.89,-0.45,0.02
2156591977,-0.89,-0.45,0.02
2156593980,-0.89,-0.45,0.02
2156595992,-0.89,-0.45,0.02
2156597976,-0.89,-0.45,0.02
2156599978,-0.88,-0.47,0.01
2156602088,-0.88,-0.47,0.01
2156603979,-0.88,-0.47,0.01
2156605991,-0.88,-0.47,0.01
2156608134,-0.88,-0.47,0.01
2156610040,-0.88,-0.47,0.02
2156612007,-0.88,-0.47,0.02
2156614004,-0.88,-0.47,0.02
2156616006,-0.88,-0.47,0.02
2156618003,-0.88,-0.47,0.02
2156620005,-0.88,-0.47,0.02
2156622076,-0.89,-0.47,0.01
2156623999,-0.89,-0.47,0.01
2156626093,-0.89,-0.47,0.01
2156627992,-0.89,-0.47,0.01
2156629976,-0.89,-0.47,0.01
2156631979,-0.88,-0.48,0.00
2156633980,-0.88,-0.48,0.00
2156635977,-0.88,-0.48,0.00
2156637978,-0.88,-0.48,0.00
2156639980,-0.88,-0.48,0.00
2156641975,-0.88,-0.48,0.01
2156643976,-0.88,-0.48,0.01
2156645977,-0.88,-0.48,0.01
2156647980,-0.88,-0.48,0.01
2156650012,-0.88,-0.48,0.01
2156652106,-0.88,-0.48,0.00
2156654004,-0.88,-0.48,0.00
2156656005,-0.88,-0.48,0.00
2156658008,-0.88,-0.48,0.00
2156660008,-0.88,-0.48,0.00
2156662010,-0.88,-0.48,0.00
2156663975,-0.88,-0.48,0.00
2156665991,-0.88,-0.48,0.00
2156668144,-0.88,-0.48,0.00
2156670032,-0.88,-0.48,0.00
2156671975,-0.88,-0.48,-0.00
2156673977,-0.88,-0.48,-0.00
2156676094,-0.88,-0.48,-0.00
2156677987,-0.88,-0.48,-0.00
2156679978,-0.88,-0.48,-0.00
2156681995,-0.88,-0.48,-0.00
2156684025,-0.88,-0.48,-0.00
2156685976,-0.88,-0.48,-0.00
2156687977,-0.88,-0.48,-0.00
2156690032,-0.88,-0.48,-0.00
2156692004,-0.88,-0.48,-0.00
2156694006,-0.88,-0.48,-0.00
2156696014,-0.88,-0.48,-0.00
2156698009,-0.88,-0.48,-0.00
2156700006,-0.88,-0.48,-0.00
2156702111,-0.88,-0.48,0.00
2156704011,-0.88,-0.48,0.00
2156705978,-0.88,-0.48,0.00
2156707984,-0.88,-0.48,0.00
2156709979,-0.88,-0.48,0.00
2156711976,-0.87,-0.49,-0.00
2156713988,-0.87,-0.49,-0.00
2156716117,-0.87,-0.49,-0.00
2156718016,-0.87,-0.49,-0.00
2156719977,-0.87,-0.49,-0.00
2156721977,-0.88,-0.49,-0.00
2156723976,-0.88,-0.49,-0.00
2156726095,-0.88,-0.49,-0.00
2156727986,-0.88,-0.49,-0.00
2156730024,-0.88,-0.49,-0.00
2156732003,-0.88,-0.49,-0.00
2156734004,-0.88,-0.49,-0.00
2156736004,-0.88,-0.49,-0.00
2156738007,-0.88,-0.49,-0.00
2156740004,-0.88,-0.49,-0.00
2156742010,-0.88,-0.49,0.01
2156743980,-0.88,-0.49,0.01
2156745980,-0.88,-0.49,0.01
2156747979,-0.88,-0.49,0.01
2156749979,-0.88,-0.49,0.01
2156752082,-0.88,-0.49,0.00
2156753977,-0.88,-0.49,0.00
2156755975,-0.88,-0.49,0.00
2156757985,-0.88,-0.49,0.00
2156759977,-0.88,-0.49,0.00
2156761992,-0.88,-0.49,-0.00
2156764089,-0.88,-0.49,-0.00
2156766013,-0.88,-0.49,-0.00
2156767980,-0.88,-0.49,-0.00
2156770049,-0.88,-0.49,-0.00
2156772002,-0.88,-0.48,0.01
2156774003,-0.88,-0.48,0.01
2156776108,-0.88,-0.48,0.01
2156778014,-0.88,-0.48,0.01
2156780006,-0.88,-0.48,0.01
2156782004,-0.88,-0.48,0.01
2156784007,-0.88,-0.48,0.01
2156786027,-0.88,-0.48,0.01
2156787980,-0.88,-0.48,0.01
2156789994,-0.88,-0.48,0.01
2156791981,-0.89,-0.47,0.00
2156793978,-0.89,-0.47,0.00
2156795993,-0.89,-0.47,0.00
2156797975,-0.89,-0.47,0.00
2156799978,-0.89,-0.47,0.00
2156802086,-0.88,-0.48,0.01
2156803974,-0.88,-0.48,0.01
2156805974,-0.88,-0.48,0.01
2156808016,-0.88,-0.48,0.01
2156810042,-0.88,-0.48,0.01
2156812029,-0.88,-0.48,0.01
2156814007,-0.87,-0.48,0.00
2156816004,-0.87,-0.48,0.00
2156818003,-0.87,-0.48,0.00
2156820001,-0.87,-0.48,0.00
2156822004,-0.87,-0.48,0.00
2156824005,-0.88,-0.48,0.00
2156826095,-0.88,-0.48,0.00
2156827987,-0.88,-0.48,0.00
2156829980,-0.88,-0.48,0.00
2156831979,-0.88,-0.48,0.00
2156833980,-0.88,-0.47,0.00
2156835980,-0.88,-0.47,0.00
2156837977,-0.88,-0.47,0.00
2156839980,-0.88,-0.47,0.00
2156841980,-0.88,-0.47,0.00
2156843978,-0.88,-0.47,0.01
2156845977,-0.88,-0.47,0.01
2156847979,-0.88,-0.47,0.01
2156849979,-0.88,-0.47,0.01
2156852105,-0.88,-0.47,0.01
2156854009,-0.88,-0.48,0.01
2156856074,-0.88,-0.48,0.01
2156858041,-0.88,-0.48,0.01
2156860002,-0.88,-0.48,0.01
2156862004,-0.88,-0.48,0.01
2156864005,-0.88,-0.48,0.01
2156865999,-0.88,-0.48,0.01
2156867984,-0.88,-0.48,0.01
2156870006,-0.88,-0.48,0.01
2156871976,-0.88,-0.48,0.01
2156873976,-0.88,-0.48,0.01
2156876093,-0.88,-0.48,0.01
2156877987,-0.88,-0.48,0.01
2156879977,-0.88,-0.48,0.01
2156881974,-0.88,-0.48,0.01
2156883973,-0.88,-0.47,0.01
2156885975,-0.88,-0.47,0.01
2156888048,-0.88,-0.47,0.01
2156890017,-0.88,-0.47,0.01
2156892016,-0.88,-0.47,0.01
2156894004,-0.88,-0.47,0.01
2156896007,-0.88,-0.47,0.01
2156898004,-0.88,-0.47,0.01
2156900003,-0.88,-0.47,0.01
2156902125,-0.88,-0.47,0.01
2156904126,-0.89,-0.47,0.01
2156906041,-0.89,-0.47,0.01
2156908014,-0.89,-0.47,0.01
2156909978,-0.89,-0.47,0.01
2156911976,-0.89,-0.47,0.01
2156913980,-0.89,-0.48,0.01
2156915979,-0.89,-0.48,0.01
2156917979,-0.89,-0.48,0.01
2156919980,-0.89,-0.48,0.01
2156921984,-0.89,-0.48,0.01
2156923974,-0.88,-0.47,0.01
2156926093,-0.88,-0.47,0.01
2156927986,-0.88,-0.47,0.01
2156929980,-0.88,-0.47,0.01
2156932014,-0.88,-0.47,0.01
2156934006,-0.88,-0.48,0.00
2156936002,-0.88,-0.48,0.00
2156938005,-0.88,-0.48,0.00
2156940001,-0.88,-0.48,0.00
2156942009,-0.88,-0.48,0.00
2156944009,-0.88,-0.48,0.00
2156945980,-0.88,-0.48,0.00
2156947989,-0.88,-0.48,0.00
2156950106,-0.88,-0.48,0.00
2156952131,-0.88,-0.48,0.00
2156953977,-0.88,-0.47,0.00
2156955975,-0.88,-0.47,0.00
2156957975,-0.88,-0.47,0.00
2156959977,-0.88,-0.47,0.00
2156961975,-0.88,-0.47,0.00
2156963974,-0.88,-0.47,0.01
2156965978,-0.88,-0.47,0.01
2156967993,-0.88,-0.47,0.01
2156970016,-0.88,-0.47,0.01
2156972027,-0.88,-0.47,0.01
2156974003,-0.89,-0.47,0.01
2156976103,-0.89,-0.47,0.01
2156978015,-0.89,-0.47,0.01
2156980007,-0.89,-0.47,0.01
2156982004,-0.89,-0.47,0.01
2156984002,-0.89,-0.48,0.01
2156985979,-0.89,-0.48,0.01
2156987984,-0.89,-0.48,0.01
2156989988,-0.89,-0.48,0.01
2156991999,-0.89,-0.48,0.01
2156994027,-0.89,-0.48,0.01
2156996033,-0.89,-0.48,0.01
2156998030,-0.89,-0.48,0.01
2156999979,-0.89,-0.48,0.01
2157002091,-0.89,-0.48,0.01
2157003981,-0.89,-0.48,0.01
2157005976,-0.88,-0.49,0.01
2157007974,-0.88,-0.49,0.01
2157009976,-0.88,-0.49,0.01
2157012022,-0.88,-0.49,0.01
2157014006,-0.88,-0.49,0.01
2157016003,-0.89,-0.49,0.01
2157018006,-0.89,-0.49,0.01
2157020006,-0.89,-0.49,0.01
2157022002,-0.89,-0.49,0.01
2157024006,-0.89,-0.49,0.01
2157026076,-0.88,-0.48,0.01
2157027986,-0.88,-0.48,0.01
2157029977,-0.88,-0.48,0.01
2157031976,-0.88,-0.48,0.01
2157033981,-0.88,-0.48,0.01
2157035977,-0.87,-0.49,0.00
2157037981,-0.87,-0.49,0.00
2157039980,-0.87,-0.49,0.00
2157041980,-0.87,-0.49,0.00
2157043979,-0.87,-0.49,0.00
2157045980,-0.86,-0.50,0.00
2157047979,-0.86,-0.50,0.00
2157049978,-0.86,-0.50,0.00
2157052111,-0.86,-0.50,0.00
2157054005,-0.86,-0.50,0.00
2157056007,-0.88,-0.50,-0.00
2157058063,-0.88,-0.50,-0.00
2157060043,-0.88,-0.50,-0.00
2157062007,-0.88,-0.50,-0.00
2157064006,-0.88,-0.50,-0.00
2157066005,-0.88,-0.51,0.00
2157068009,-0.88,-0.51,0.00
2157070006,-0.88,-0.51,0.00
2157071977,-0.88,-0.51,0.00
2157073975,-0.88,-0.51,0.00
2157076103,-0.89,-0.52,-0.01
2157077989,-0.89,-0.52,-0.01
2157079978,-0.89,-0.52,-0.01
2157081976,-0.89,-0.52,-0.01
2157083976,-0.89,-0.52,-0.01
2157085979,-0.90,-0.50,-0.01
2157087978,-0.90,-0.50,-0.01
2157089988,-0.90,-0.50,-0.01
2157092053,-0.90,-0.50,-0.01
2157094031,-0.90,-0.50,-0.01
2157096014,-0.89,-0.51,-0.02
2157098009,-0.89,-0.51,-0.02
2157100005,-0.89,-0.51,-0.02
2157102119,-0.89,-0.51,-0.02
2157104030,-0.89,-0.51,-0.02
2157106039,-0.87,-0.50,0.00
2157108017,-0.87,-0.50,0.00
2157110010,-0.87,-0.50,0.00
2157111977,-0.87,-0.50,0.00
2157113979,-0.87,-0.50,0.00
2157115976,-0.86,-0.50,0.01
2157117978,-0.86,-0.50,0.01
2157119985,-0.86,-0.50,0.01
2157121979,-0.86,-0.50,0.01
2157123980,-0.86,-0.50,0.01
2157126094,-0.88,-0.50,-0.02
2157127987,-0.88,-0.50,-0.02
2157129980,-0.88,-0.50,-0.02
2157132012,-0.88,-0.50,-0.02
2157134005,-0.88,-0.50,-0.02
2157136009,-0.86,-0.49,0.05
2157138010,-0.86,-0.49,0.05
2157140007,-0.86,-0.49,0.05
2157142015,-0.86,-0.49,0.05
2157143978,-0.86,-0.49,0.05
2157145976,-0.90,-0.52,0.01
2157147980,-0.90,-0.52,0.01
2157149977,-0.90,-0.52,0.01
2157152108,-0.90,-0.52,0.01
2157154068,-0.90,-0.52,0.01
2157156020,-0.90,-0.50,-0.01
2157157975,-0.90,-0.50,-0.01
2157159979,-0.90,-0.50,-0.01
2157161976,-0.90,-0.50,-0.01
2157163979,-0.90,-0.50,-0.01
2157165976,-0.94,-0.53,0.00
2157167980,-0.94,-0.53,0.00
2157170006,-0.94,-0.53,0.00
2157172020,-0.94,-0.53,0.00
2157174006,-0.94,-0.53,0.00
2157176109,-0.96,-0.52,0.11
2157178011,-0.96,-0.52,0.11
2157180004,-0.96,-0.52,0.11
2157182002,-0.96,-0.52,0.11
2157184015,-0.96,-0.52,0.11
2157185981,-0.96,-0.52,0.11
2157187983,-0.92,-0.56,0.02
2157189989,-0.92,-0.56,0.02
2157191976,-0.92,-0.56,0.02
2157193980,-0.92,-0.56,0.02
2157195989,-0.92,-0.56,0.02
2157197991,-1.02,-0.56,0.05
2157200037,-1.02,-0.56,0.05
2157202088,-1.02,-0.56,0.05
2157203976,-1.02,-0.56,0.05
2157205977,-1.02,-0.56,0.05
2157207975,-0.97,-0.59,0.05
2157209977,-0.97,-0.59,0.05
2157212019,-0.97,-0.59,0.05
2157214141,-0.97,-0.59,0.05
2157216041,-0.97,-0.59,0.05
2157218007,-0.97,-0.58,0.11
2157220005,-0.97,-0.58,0.11
2157222008,-0.97,-0.58,0.11
2157224007,-0.97,-0.58,0.11
2157226109,-0.97,-0.58,0.11
2157228000,-0.96,-0.60,0.07
2157229980,-0.96,-0.60,0.07
2157231980,-0.96,-0.60,0.07
2157233979,-0.96,-0.60,0.07
2157235980,-0.96,-0.60,0.07
2157237976,-1.00,-0.58,0.04
2157239979,-1.00,-0.58,0.04
2157241975,-1.00,-0.58,0.04
2157243977,-1.00,-0.58,0.04
2157245979,-1.00,-0.58,0.04
2157247979,-0.98,-0.55,0.05
2157249984,-0.98,-0.55,0.05
2157252114,-0.98,-0.55,0.05
2157254005,-0.98,-0.55,0.05
2157256006,-0.98,-0.55,0.05
2157258008,-1.00,-0.52,0.06
2157260031,-1.00,-0.52,0.06
2157262063,-1.00,-0.52,0.06
2157264043,-1.00,-0.52,0.06
2157266006,-1.00,-0.52,0.06
2157268006,-0.95,-0.50,-0.01
2157270008,-0.95,-0.50,-0.01
2157271977,-0.95,-0.50,-0.01
2157273977,-0.95,-0.50,-0.01
2157276094,-0.95,-0.50,-0.01
2157277986,-1.04,-0.52,0.01
2157279978,-1.04,-0.52,0.01
2157281977,-1.04,-0.52,0.01
2157283975,-1.04,-0.52,0.01
2157285975,-1.04,-0.52,0.01
2157287981,-1.00,-0.54,0.02
2157289989,-1.00,-0.54,0.02
2157292019,-1.00,-0.54,0.02
2157294006,-1.00,-0.54,0.02
2157296014,-1.00,-0.54,0.02
2157298057,-1.00,-0.58,0.02
2157300006,-1.00,-0.58,0.02
2157302122,-1.00,-0.58,0.02
2157304008,-1.00,-0.58,0.02
2157305993,-1.00,-0.58,0.02
2157308121,-0.95,-0.57,0.02
2157310016,-0.95,-0.57,0.02
2157311979,-0.95,-0.57,0.02
2157313979,-0.95,-0.57,0.02
2157315985,-0.95,-0.57,0.02
2157317977,-0.93,-0.56,0.02
2157319976,-0.93,-0.56,0.02
2157321976,-0.93,-0.56,0.02
2157323980,-0.93,-0.56,0.02
2157326094,-0.93,-0.56,0.02
2157327988,-0.90,-0.51,0.05
2157329979,-0.90,-0.51,0.05
2157332018,-0.90,-0.51,0.05
2157334010,-0.90,-0.51,0.05
2157336006,-0.90,-0.51,0.05
2157338007,-0.88,-0.46,0.03
2157340004,-0.88,-0.46,0.03
2157342011,-0.88,-0.46,0.03
2157343985,-0.88,-0.46,0.03
2157345977,-0.88,-0.46,0.03
2157347980,-0.88,-0.39,0.00
2157349975,-0.88,-0.39,0.00
2157352085,-0.88,-0.39,0.00
2157354069,-0.88,-0.39,0.00
2157356016,-0.88,-0.39,0.00
2157357975,-0.84,-0.34,0.00
2157359979,-0.84,-0.34,0.00
2157361978,-0.84,-0.34,0.00
2157363977,-0.84,-0.34,0.00
2157365979,-0.84,-0.34,0.00
2157367980,-0.84,-0.34,0.00
2157370012,-0.83,-0.35,-0.02
2157372024,-0.83,-0.35,-0.02
2157374005,-0.83,-0.35,-0.02
2157376110,-0.83,-0.35,-0.02
2157378016,-0.83,-0.35,-0.02
2157380008,-0.84,-0.36,-0.06
2157382009,-0.84,-0.36,-0.06
2157384005,-0.84,-0.36,-0.06
2157385981,-0.84,-0.36,-0.06
2157387979,-0.84,-0.36,-0.06
2157389990,-0.89,-0.39,-0.07
2157391977,-0.89,-0.39,-0.07
2157393984,-0.89,-0.39,-0.07
2157395989,-0.89,-0.39,-0.07
2157397980,-0.89,-0.39,-0.07
2157400052,-0.90,-0.41,-0.08
2157402158,-0.90,-0.41,-0.08
2157403977,-0.90,-0.41,-0.08
2157405979,-0.90,-0.41,-0.08
2157407977,-0.90,-0.41,-0.08
2157409977,-0.96,-0.46,-0.09
2157412020,-0.96,-0.46,-0.09
2157414005,-0.96,-0.46,-0.09
2157416004,-0.96,-0.46,-0.09
2157418007,-0.96,-0.46,-0.09
2157420005,-0.93,-0.47,-0.05
2157422004,-0.93,-0.47,-0.05
2157424005,-0.93,-0.47,-0.05
2157426080,-0.93,-0.47,-0.05
2157427987,-0.93,-0.47,-0.05
2157429979,-0.90,-0.43,-0.07
2157431976,-0.90,-0.43,-0.07
2157433979,-0.90,-0.43,-0.07
2157435978,-0.90,-0.43,-0.07
2157437977,-0.90,-0.43,-0.07
2157439981,-0.87,-0.37,-0.04
2157441978,-0.87,-0.37,-0.04
2157443978,-0.87,-0.37,-0.04
2157445978,-0.87,-0.37,-0.04
2157448094,-0.87,-0.37,-0.04
2157450012,-0.82,-0.33,0.02
2157452132,-0.82,-0.33,0.02
2157454004,-0.82,-0.33,0.02
2157456003,-0.82,-0.33,0.02
2157458009,-0.82,-0.33,0.02
2157460006,-0.77,-0.31,0.02
2157462005,-0.77,-0.31,0.02
2157464007,-0.77,-0.31,0.02
2157465980,-0.77,-0.31,0.02
2157467994,-0.77,-0.31,0.02
2157470012,-0.81,-0.30,-0.02
2157471977,-0.81,-0.30,-0.02
2157473977,-0.81,-0.30,-0.02
2157476082,-0.81,-0.30,-0.02
2157477990,-0.81,-0.30,-0.02
2157479976,-0.76,-0.31,0.06
2157481975,-0.76,-0.31,0.06
2157483979,-0.76,-0.31,0.06
2157485974,-0.76,-0.31,0.06
2157487981,-0.76,-0.31,0.06
2157489991,-0.80,-0.32,0.10
2157492015,-0.80,-0.32,0.10
2157494053,-0.80,-0.32,0.10
2157496026,-0.80,-0.32,0.10
2157498015,-0.80,-0.32,0.10
2157500007,-0.84,-0.37,0.03
2157502157,-0.84,-0.37,0.03
2157504008,-0.84,-0.37,0.03
2157506005,-0.84,-0.37,0.03
2157508003,-0.84,-0.37,0.03
2157509987,-0.85,-0.34,0.06
2157511979,-0.85,-0.34,0.06
2157513981,-0.85,-0.34,0.06
2157515980,-0.85,-0.34,0.06
2157517979,-0.85,-0.34,0.06
2157519981,-0.86,-0.36,0.09
2157521979,-0.86,-0.36,0.09
2157523978,-0.86,-0.36,0.09
2157526077,-0.86,-0.36,0.09
2157527986,-0.86,-0.36,0.09
2157529980,-0.87,-0.35,0.06
2157532007,-0.87,-0.35,0.06
2157534008,-0.87,-0.35,0.06
2157536004,-0.87,-0.35,0.06
2157538007,-0.87,-0.35,0.06
2157540063,-0.91,-0.34,0.00
2157542044,-0.91,-0.34,0.00
2157544007,-0.91,-0.34,0.00
2157546006,-0.91,-0.34,0.00
2157547980,-0.91,-0.34,0.00
2157549979,-0.88,-0.34,-0.01
2157552097,-0.88,-0.34,-0.01
2157553976,-0.88,-0.34,-0.01
2157555977,-0.88,-0.34,-0.01
2157557980,-0.88,-0.34,-0.01
2157559976,-0.88,-0.34,-0.01
2157561980,-0.92,-0.34,0.04
2157563975,-0.92,-0.34,0.04
2157565980,-0.92,-0.34,0.04
2157567977,-0.92,-0.34,0.04
2157570009,-0.92,-0.34,0.04
2157572017,-0.86,-0.30,0.03
2157574005,-0.86,-0.30,0.03
2157576104,-0.86,-0.30,0.03
2157578009,-0.86,-0.30,0.03
2157580004,-0.86,-0.30,0.03
2157582004,-0.94,-0.28,0.04
2157584006,-0.94,-0.28,0.04
2157585999,-0.94,-0.28,0.04
2157588069,-0.94,-0.28,0.04
2157590026,-0.94,-0.28,0.04
2157591979,-0.89,-0.30,0.02
2157593978,-0.89,-0.30,0.02
2157595988,-0.89,-0.30,0.02
2157597976,-0.89,-0.30,0.02
2157599980,-0.89,-0.30,0.02
2157602094,-0.95,-0.30,0.06
2157604029,-0.95,-0.30,0.06
2157605995,-0.95,-0.30,0.06
2157607976,-0.95,-0.30,0.06
2157609975,-0.95,-0.30,0.06
2157612021,-0.89,-0.31,0.09
2157614003,-0.89,-0.31,0.09
2157616004,-0.89,-0.31,0.09
2157618007,-0.89,-0.31,0.09
2157620006,-0.89,-0.31,0.09
2157622075,-0.91,-0.30,0.06
2157624005,-0.91,-0.30,0.06
2157626088,-0.91,-0.30,0.06
2157627989,-0.91,-0.30,0.06
2157629981,-0.91,-0.30,0.06
2157631980,-0.93,-0.29,0.11
2157633979,-0.93,-0.29,0.11
2157635977,-0.93,-0.29,0.11
2157637977,-0.93,-0.29,0.11
2157639980,-0.93,-0.29,0.11
2157641981,-0.89,-0.31,0.11
2157643979,-0.89,-0.31,0.11
2157645980,-0.89,-0.31,0.11
2157647976,-0.89,-0.31,0.11
2157649977,-0.89,-0.31,0.11
2157652107,-0.91,-0.32,0.09
2157654006,-0.91,-0.32,0.09
2157656006,-0.91,-0.32,0.09
2157658006,-0.91,-0.32,0.09
2157660004,-0.91,-0.32,0.09
2157662005,-0.92,-0.32,0.04
2157664009,-0.92,-0.32,0.04
2157666008,-0.92,-0.32,0.04
2157668070,-0.92,-0.32,0.04
2157670035,-0.92,-0.32,0.04
2157671979,-0.93,-0.32,0.00
2157673979,-0.93,-0.32,0.00
2157676098,-0.93,-0.32,0.00
2157677988,-0.93,-0.32,0.00
2157679979,-0.93,-0.32,0.00
2157681975,-0.87,-0.38,-0.02
2157683981,-0.87,-0.38,-0.02
2157685981,-0.87,-0.38,-0.02
2157687983,-0.87,-0.38,-0.02
2157689991,-0.87,-0.38,-0.02
2157692019,-0.91,-0.41,-0.04
2157694003,-0.91,-0.41,-0.04
2157696016,-0.91,-0.41,-0.04
2157698005,-0.91,-0.41,-0.04
2157700005,-0.91,-0.41,-0.04
2157702112,-0.89,-0.45,0.00
2157704012,-0.89,-0.45,0.00
2157706027,-0.89,-0.45,0.00
2157708038,-0.89,-0.45,0.00
2157709981,-0.89,-0.45,0.00
2157711976,-0.93,-0.46,0.01
2157713976,-0.93,-0.46,0.01
2157715980,-0.93,-0.46,0.01
2157717992,-0.93,-0.46,0.01
2157719980,-0.93,-0.46,0.01
2157721979,-0.96,-0.44,0.00
2157723976,-0.96,-0.44,0.00
2157726118,-0.96,-0.44,0.00
2157728018,-0.96,-0.44,0.00
2157729975,-0.96,-0.44,0.00
2157732017,-0.96,-0.42,0.01
2157734001,-0.96,-0.42,0.01
2157736002,-0.96,-0.42,0.01
2157738005,-0.96,-0.42,0.01
2157740004,-0.96,-0.42,0.01
2157742005,-0.95,-0.38,0.03
2157744005,-0.95,-0.38,0.03
2157745979,-0.95,-0.38,0.03
2157747981,-0.95,-0.38,0.03
2157749975,-0.95,-0.38,0.03
2157752092,-0.95,-0.38,0.03
2157753977,-0.90,-0.39,0.00
2157755981,-0.90,-0.39,0.00
2157757973,-0.90,-0.39,0.00
2157759976,-0.90,-0.39,0.00
2157761977,-0.90,-0.39,0.00
2157763977,-0.88,-0.38,0.02
2157765978,-0.88,-0.38,0.02
2157767982,-0.88,-0.38,0.02
2157770020,-0.88,-0.38,0.02
2157772034,-0.88,-0.38,0.02
2157774050,-0.86,-0.41,0.04
2157776118,-0.86,-0.41,0.04
2157778016,-0.86,-0.41,0.04
2157780010,-0.86,-0.41,0.04
2157782007,-0.86,-0.41,0.04
2157784011,-0.84,-0.39,0.00
2157786012,-0.84,-0.39,0.00
2157788013,-0.84,-0.39,0.00
2157789992,-0.84,-0.39,0.00
2157791977,-0.84,-0.39,0.00
2157793980,-0.89,-0.40,-0.02
2157795991,-0.89,-0.40,-0.02
2157797979,-0.89,-0.40,-0.02
2157799978,-0.89,-0.40,-0.02
2157802087,-0.89,-0.40,-0.02
2157803974,-0.88,-0.38,-0.01
2157805974,-0.88,-0.38,-0.01
2157807988,-0.88,-0.38,-0.01
2157810029,-0.88,-0.38,-0.01
2157812021,-0.88,-0.38,-0.01
2157814006,-0.91,-0.38,-0.01
2157816007,-0.91,-0.38,-0.01
2157818010,-0.91,-0.38,-0.01
2157820040,-0.91,-0.38,-0.01
2157822059,-0.91,-0.38,-0.01
2157824045,-0.90,-0.38,-0.02
2157826116,-0.90,-0.38,-0.02
2157828017,-0.90,-0.38,-0.02
2157829977,-0.90,-0.38,-0.02
2157831978,-0.90,-0.38,-0.02
2157833981,-0.93,-0.38,-0.01
2157835980,-0.93,-0.38,-0.01
2157837977,-0.93,-0.38,-0.01
2157839984,-0.93,-0.38,-0.01
2157841980,-0.93,-0.38,-0.01
2157843979,-0.91,-0.38,-0.03
2157845979,-0.91,-0.38,-0.03
2157847975,-0.91,-0.38,-0.03
2157849975,-0.91,-0.38,-0.03
2157852120,-0.91,-0.38,-0.03
2157854006,-0.90,-0.38,-0.02
2157856008,-0.90,-0.38,-0.02
2157858008,-0.90,-0.38,-0.02
2157860014,-0.90,-0.38,-0.02
2157862012,-0.90,-0.38,-0.02
2157864009,-0.88,-0.37,-0.04
2157865978,-0.88,-0.37,-0.04
2157867979,-0.88,-0.37,-0.04
2157870014,-0.88,-0.37,-0.04
2157871976,-0.88,-0.37,-0.04
2157873976,-0.89,-0.37,-0.03
2157876086,-0.89,-0.37,-0.03
2157877988,-0.89,-0.37,-0.03
2157879975,-0.89,-0.37,-0.03
2157881994,-0.89,-0.37,-0.03
2157884089,-0.88,-0.36,-0.02
2157886013,-0.88,-0.36,-0.02
2157887982,-0.88,-0.36,-0.02
2157889990,-0.88,-0.36,-0.02
2157892025,-0.88,-0.36,-0.02
2157894010,-0.89,-0.35,-0.02
2157896008,-0.89,-0.35,-0.02
2157898006,-0.89,-0.35,-0.02
2157900007,-0.89,-0.35,-0.02
2157902123,-0.89,-0.35,-0.02
2157904011,-0.90,-0.34,-0.01
2157906011,-0.90,-0.34,-0.01
2157907979,-0.90,-0.34,-0.01
2157909985,-0.90,-0.34,-0.01
2157912023,-0.90,-0.34,-0.01
2157913978,-0.89,-0.34,-0.01
2157915977,-0.89,-0.34,-0.01
2157917981,-0.89,-0.34,-0.01
2157919975,-0.89,-0.34,-0.01
2157921979,-0.89,-0.34,-0.01
2157923979,-0.90,-0.36,-0.02
2157926082,-0.90,-0.36,-0.02
2157928019,-0.90,-0.36,-0.02
2157930044,-0.90,-0.36,-0.02
2157932030,-0.90,-0.36,-0.02
2157934004,-0.90,-0.36,-0.02
2157936006,-0.89,-0.37,-0.02
2157938004,-0.89,-0.37,-0.02
2157940002,-0.89,-0.37,-0.02
2157942007,-0.89,-0.37,-0.02
2157944006,-0.89,-0.37,-0.02
2157945979,-0.91,-0.40,-0.01
2157947981,-0.91,-0.40,-0.01
2157949979,-0.91,-0.40,-0.01
2157952094,-0.91,-0.40,-0.01
2157953979,-0.91,-0.40,-0.01
2157955979,-0.92,-0.38,-0.03
2157957979,-0.92,-0.38,-0.03
2157959976,-0.92,-0.38,-0.03
2157961979,-0.92,-0.38,-0.03
2157963979,-0.92,-0.38,-0.03
2157965979,-0.95,-0.36,-0.04
2157967996,-0.95,-0.36,-0.04
2157970013,-0.95,-0.36,-0.04
2157972020,-0.95,-0.36,-0.04
2157974009,-0.95,-0.36,-0.04
2157976107,-0.94,-0.36,-0.03
2157978048,-0.94,-0.36,-0.03
2157980040,-0.94,-0.36,-0.03
2157982035,-0.94,-0.36,-0.03
2157984006,-0.94,-0.36,-0.03
2157986005,-0.94,-0.36,-0.04
2157988010,-0.94,-0.36,-0.04
2157989992,-0.94,-0.36,-0.04
2157991975,-0.94,-0.36,-0.04
2157993986,-0.94,-0.36,-0.04
2157995993,-0.92,-0.39,-0.05
2157997976,-0.92,-0.39,-0.05
2157999977,-0.92,-0.39,-0.05
2158002096,-0.92,-0.39,-0.05
2158003973,-0.92,-0.39,-0.05
2158005976,-0.93,-0.41,-0.04
2158007974,-0.93,-0.41,-0.04
2158009974,-0.93,-0.41,-0.04
2158012017,-0.93,-0.41,-0.04
2158014060,-0.93,-0.41,-0.04
2158016010,-0.90,-0.42,-0.07
2158018009,-0.90,-0.42,-0.07
2158020009,-0.90,-0.42,-0.07
2158022007,-0.90,-0.42,-0.07
2158024015,-0.90,-0.42,-0.07
2158026083,-0.95,-0.42,-0.02
2158027987,-0.95,-0.42,-0.02
2158029978,-0.95,-0.42,-0.02
2158031977,-0.95,-0.42,-0.02
2158033991,-0.95,-0.42,-0.02
2158036147,-0.94,-0.39,-0.00
2158038018,-0.94,-0.39,-0.00
2158039974,-0.94,-0.39,-0.00
2158041977,-0.94,-0.39,-0.00
2158043980,-0.94,-0.39,-0.00
2158045979,-0.95,-0.39,0.01
2158047979,-0.95,-0.39,0.01
2158049978,-0.95,-0.39,0.01
2158052132,-0.95,-0.39,0.01
2158054007,-0.95,-0.39,0.01
2158056009,-0.94,-0.38,0.00
2158058006,-0.94,-0.38,0.00
2158060007,-0.94,-0.38,0.00
2158062006,-0.94,-0.38,0.00
2158064013,-0.94,-0.38,0.00
2158065984,-0.96,-0.39,0.01
2158067984,-0.96,-0.39,0.01
2158070011,-0.96,-0.39,0.01
2158071976,-0.96,-0.39,0.01
2158073979,-0.96,-0.39,0.01
2158076083,-0.94,-0.40,0.01
2158077987,-0.94,-0.40,0.01
2158079978,-0.94,-0.40,0.01
2158081978,-0.94,-0.40,0.01
2158083976,-0.94,-0.40,0.01
2158085977,-0.94,-0.41,-0.00
2158087976,-0.94,-0.41,-0.00
2158089992,-0.94,-0.41,-0.00
2158092025,-0.94,-0.41,-0.00
2158094010,-0.94,-0.41,-0.00
2158096013,-0.94,-0.40,-0.02
2158098067,-0.94,-0.40,-0.02
2158100040,-0.94,-0.40,-0.02
2158102125,-0.94,-0.40,-0.02
2158104010,-0.94,-0.40,-0.02
2158106005,-0.93,-0.41,-0.04
2158108005,-0.93,-0.41,-0.04
2158109979,-0.93,-0.41,-0.04
2158111981,-0.93,-0.41,-0.04
2158113979,-0.93,-0.41,-0.04
2158116024,-0.95,-0.42,-0.06
2158117993,-0.95,-0.42,-0.06
2158119976,-0.95,-0.42,-0.06
2158121978,-0.95,-0.42,-0.06
2158123977,-0.95,-0.42,-0.06
2158126084,-0.95,-0.42,-0.06
2158127988,-0.95,-0.42,-0.07
2158129977,-0.95,-0.42,-0.07
2158132025,-0.95,-0.42,-0.07
2158134007,-0.95,-0.42,-0.07
2158136006,-0.95,-0.42,-0.07
2158138006,-0.98,-0.43,-0.09
2158140004,-0.98,-0.43,-0.09
2158142008,-0.98,-0.43,-0.09
2158144008,-0.98,-0.43,-0.09
2158145978,-0.98,-0.43,-0.09
2158147981,-0.99,-0.43,-0.09
2158149975,-0.99,-0.43,-0.09
2158152084,-0.99,-0.43,-0.09
2158153982,-0.99,-0.43,-0.09
2158156139,-0.99,-0.43,-0.09
2158158014,-0.98,-0.43,-0.07
2158159975,-0.98,-0.43,-0.07
2158161980,-0.98,-0.43,-0.07
2158163979,-0.98,-0.43,-0.07
2158165979,-0.98,-0.43,-0.07
2158167984,-0.98,-0.42,-0.07
2158170004,-0.98,-0.42,-0.07
2158172024,-0.98,-0.42,-0.07
2158174007,-0.98,-0.42,-0.07
2158176113,-0.98,-0.42,-0.07
2158178014,-0.96,-0.41,-0.07
2158180005,-0.96,-0.41,-0.07
2158182009,-0.96,-0.41,-0.07
2158184007,-0.96,-0.41,-0.07
2158185980,-0.96,-0.41,-0.07
2158187984,-0.95,-0.39,-0.07
2158189989,-0.95,-0.39,-0.07
2158191978,-0.95,-0.39,-0.07
2158193980,-0.95,-0.39,-0.07
2158195990,-0.95,-0.39,-0.07
2158197975,-0.92,-0.37,-0.08
2158199974,-0.92,-0.37,-0.08
2158202085,-0.92,-0.37,-0.08
2158203977,-0.92,-0.37,-0.08
2158206047,-0.92,-0.37,-0.08
2158208031,-0.91,-0.35,-0.11
2158209980,-0.91,-0.35,-0.11
2158212019,-0.91,-0.35,-0.11
2158214004,-0.91,-0.35,-0.11
2158216003,-0.91,-0.35,-0.11
2158218012,-0.92,-0.33,-0.11
2158220004,-0.92,-0.33,-0.11
2158222003,-0.92,-0.33,-0.11
2158224004,-0.92,-0.33,-0.11
2158226216,-0.92,-0.33,-0.11
2158228069,-0.91,-0.33,-0.13
2158229977,-0.91,-0.33,-0.13
2158231995,-0.91,-0.33,-0.13
2158233977,-0.91,-0.33,-0.13
2158235976,-0.91,-0.33,-0.13
2158237974,-0.89,-0.33,-0.14
2158239977,-0.89,-0.33,-0.14
2158241977,-0.89,-0.33,-0.14
2158243975,-0.89,-0.33,-0.14
2158245974,-0.89,-0.33,-0.14
2158247974,-0.89,-0.34,-0.15
2158249978,-0.89,-0.34,-0.15
2158252133,-0.89,-0.34,-0.15
2158254029,-0.89,-0.34,-0.15
2158256059,-0.89,-0.34,-0.15
2158258000,-0.91,-0.34,-0.10
2158260030,-0.91,-0.34,-0.10
2158262060,-0.91,-0.34,-0.10
2158264043,-0.91,-0.34,-0.10
2158266008,-0.91,-0.34,-0.10
2158268005,-0.89,-0.34,-0.09
2158270015,-0.89,-0.34,-0.09
2158271974,-0.89,-0.34,-0.09
2158273974,-0.89,-0.34,-0.09
2158276096,-0.89,-0.34,-0.09
2158277986,-0.91,-0.30,-0.16
2158279974,-0.91,-0.30,-0.16
2158281977,-0.91,-0.30,-0.16
2158283978,-0.91,-0.30,-0.16
2158285975,-0.91,-0.30,-0.16
2158287978,-0.93,-0.29,-0.08
2158289987,-0.93,-0.29,-0.08
2158292015,-0.93,-0.29,-0.08
2158294008,-0.93,-0.29,-0.08
2158296007,-0.93,-0.29,-0.08
2158298005,-0.94,-0.29,-0.07
2158300008,-0.94,-0.29,-0.07
2158302108,-0.94,-0.29,-0.07
2158304013,-0.94,-0.29,-0.07
2158305981,-0.94,-0.29,-0.07
2158307980,-0.94,-0.29,-0.07
2158309980,-0.92,-0.27,-0.04
2158311978,-0.92,-0.27,-0.04
2158313976,-0.92,-0.27,-0.04
2158315976,-0.92,-0.27,-0.04
2158318073,-0.92,-0.27,-0.04
2158320033,-0.96,-0.28,-0.02
2158322012,-0.96,-0.28,-0.02
2158323977,-0.96,-0.28,-0.02
2158326096,-0.96,-0.28,-0.02
2158327987,-0.96,-0.28,-0.02
2158329980,-0.90,-0.29,-0.04
2158332024,-0.90,-0.29,-0.04
2158334003,-0.90,-0.29,-0.04
2158336002,-0.90,-0.29,-0.04
2158338003,-0.90,-0.29,-0.04
2158340005,-0.95,-0.33,-0.04
2158342002,-0.95,-0.33,-0.04
2158344002,-0.95,-0.33,-0.04
2158345980,-0.95,-0.33,-0.04
2158347980,-0.95,-0.33,-0.04
2158349977,-0.93,-0.32,-0.04
2158352087,-0.93,-0.32,-0.04
2158353979,-0.93,-0.32,-0.04
2158355975,-0.93,-0.32,-0.04
2158357976,-0.93,-0.32,-0.04
2158359984,-0.95,-0.34,-0.02
2158361981,-0.95,-0.34,-0.02
2158363979,-0.95,-0.34,-0.02
2158365977,-0.95,-0.34,-0.02
2158367979,-0.95,-0.34,-0.02
2158370016,-0.98,-0.36,-0.06
2158372012,-0.98,-0.36,-0.06
2158374001,-0.98,-0.36,-0.06
2158376101,-0.98,-0.36,-0.06
2158378011,-0.98,-0.36,-0.06
2158380002,-0.97,-0.36,-0.06
2158382000,-0.97,-0.36,-0.06
2158384007,-0.97,-0.36,-0.06
2158385979,-0.97,-0.36,-0.06
2158388022,-0.97,-0.36,-0.06
2158390052,-0.98,-0.37,-0.04
2158392015,-0.98,-0.37,-0.04
2158393979,-0.98,-0.37,-0.04
2158395993,-0.98,-0.37,-0.04
2158397972,-0.98,-0.37,-0.04
2158399975,-0.95,-0.37,-0.07
2158402093,-0.95,-0.37,-0.07
2158403976,-0.95,-0.37,-0.07
2158405975,-0.95,-0.37,-0.07
2158407976,-0.95,-0.37,-0.07
2158409977,-0.95,-0.36,-0.08
2158412016,-0.95,-0.36,-0.08
2158414003,-0.95,-0.36,-0.08
2158416006,-0.95,-0.36,-0.08
2158418007,-0.95,-0.36,-0.08
2158420006,-0.93,-0.34,-0.09
2158422008,-0.93,-0.34,-0.09
2158424048,-0.93,-0.34,-0.09
2158426088,-0.93,-0.34,-0.09
2158427987,-0.93,-0.34,-0.09
2158429986,-0.91,-0.33,-0.09
2158431977,-0.91,-0.33,-0.09
2158433978,-0.91,-0.33,-0.09
2158435977,-0.91,-0.33,-0.09
2158437979,-0.91,-0.33,-0.09
2158439981,-0.93,-0.32,-0.11
2158442072,-0.93,-0.32,-0.11
2158444017,-0.93,-0.32,-0.11
2158445981,-0.93,-0.32,-0.11
2158447977,-0.93,-0.32,-0.11
2158449981,-0.89,-0.35,-0.14
2158452131,-0.89,-0.35,-0.14
2158454008,-0.89,-0.35,-0.14
2158456004,-0.89,-0.35,-0.14
2158458008,-0.89,-0.35,-0.14
2158460001,-0.93,-0.38,-0.12
2158462004,-0.93,-0.38,-0.12
2158464004,-0.93,-0.38,-0.12
2158465982,-0.93,-0.38,-0.12
2158467993,-0.93,-0.38,-0.12
2158470013,-0.95,-0.40,-0.11
2158471976,-0.95,-0.40,-0.11
2158473977,-0.95,-0.40,-0.11
2158476082,-0.95,-0.40,-0.11
2158477987,-0.95,-0.40,-0.11
2158479978,-0.95,-0.42,-0.10
2158481978,-0.95,-0.42,-0.10
2158483978,-0.95,-0.42,-0.10
2158485980,-0.95,-0.42,-0.10
2158488045,-0.95,-0.42,-0.10
2158490036,-0.96,-0.42,-0.10
2158492025,-0.96,-0.42,-0.10
2158494007,-0.96,-0.42,-0.10
2158496013,-0.96,-0.42,-0.10
2158498009,-0.96,-0.42,-0.10
2158500007,-0.96,-0.42,-0.10
2158502118,-0.96,-0.41,-0.10
2158504008,-0.96,-0.41,-0.10
2158506008,-0.96,-0.41,-0.10
2158507977,-0.96,-0.41,-0.10
2158509984,-0.96,-0.41,-0.10
2158511980,-0.93,-0.40,-0.10
2158513980,-0.93,-0.40,-0.10
2158515978,-0.93,-0.40,-0.10
2158517979,-0.93,-0.40,-0.10
2158519976,-0.93,-0.40,-0.10
2158521980,-0.94,-0.39,-0.11
2158524020,-0.94,-0.39,-0.11
2158526111,-0.94,-0.39,-0.11
2158527984,-0.94,-0.39,-0.11
2158529980,-0.94,-0.39,-0.11
2158532016,-0.95,-0.40,-0.10
2158534034,-0.95,-0.40,-0.10
2158536066,-0.95,-0.40,-0.10
2158538040,-0.95,-0.40,-0.10
2158540004,-0.95,-0.40,-0.10
2158542004,-0.95,-0.41,-0.11
2158544003,-0.95,-0.41,-0.11
2158546004,-0.95,-0.41,-0.11
2158547983,-0.95,-0.41,-0.11
2158549979,-0.95,-0.41,-0.11
2158552099,-0.98,-0.41,-0.10
2158553981,-0.98,-0.41,-0.10
2158555974,-0.98,-0.41,-0.10
2158557977,-0.98,-0.41,-0.10
2158559976,-0.98,-0.41,-0.10
2158561977,-0.95,-0.42,-0.12
2158563976,-0.95,-0.42,-0.12
2158565975,-0.95,-0.42,-0.12
2158567981,-0.95,-0.42,-0.12
2158570009,-0.95,-0.42,-0.12
2158572014,-0.98,-0.41,-0.05
2158574000,-0.98,-0.41,-0.05
2158576103,-0.98,-0.41,-0.05
2158578012,-0.98,-0.41,-0.05
2158580017,-0.98,-0.41,-0.05
2158582064,-0.93,-0.39,-0.05
2158584045,-0.93,-0.39,-0.05
2158586003,-0.93,-0.39,-0.05
2158588011,-0.93,-0.39,-0.05
2158589992,-0.93,-0.39,-0.05
2158591980,-0.95,-0.38,-0.07
2158593981,-0.95,-0.38,-0.07
2158595988,-0.95,-0.38,-0.07
2158597976,-0.95,-0.38,-0.07
2158599977,-0.95,-0.38,-0.07
2158602090,-0.92,-0.36,-0.08
2158603977,-0.92,-0.36,-0.08
2158605977,-0.92,-0.36,-0.08
2158607976,-0.92,-0.36,-0.08
2158609975,-0.92,-0.36,-0.08
2158612016,-0.89,-0.37,-0.07
2158614006,-0.89,-0.37,-0.07
2158616006,-0.89,-0.37,-0.07
2158618004,-0.89,-0.37,-0.07
2158620006,-0.89,-0.37,-0.07
2158622075,-0.89,-0.37,-0.09
2158624009,-0.89,-0.37,-0.09
2158626086,-0.89,-0.37,-0.09
2158628024,-0.89,-0.37,-0.09
2158630000,-0.89,-0.37,-0.09
2158631979,-0.87,-0.36,-0.12
2158633975,-0.87,-0.36,-0.12
2158636086,-0.87,-0.36,-0.12
2158638013,-0.87,-0.36,-0.12
2158639976,-0.87,-0.36,-0.12
2158641978,-0.88,-0.34,-0.10
2158643978,-0.88,-0.34,-0.10
2158645979,-0.88,-0.34,-0.10
2158647975,-0.88,-0.34,-0.10
2158649977,-0.88,-0.34,-0.10
2158652130,-0.87,-0.31,-0.09
2158654005,-0.87,-0.31,-0.09
2158656002,-0.87,-0.31,-0.09
2158658008,-0.87,-0.31,-0.09
2158660006,-0.87,-0.31,-0.09
2158662005,-0.88,-0.29,-0.04
2158664006,-0.88,-0.29,-0.04
2158665980,-0.88,-0.29,-0.04
2158667983,-0.88,-0.29,-0.04
2158670010,-0.88,-0.29,-0.04
2158671977,-0.86,-0.28,-0.04
2158673976,-0.86,-0.28,-0.04
2158676085,-0.86,-0.28,-0.04
2158677987,-0.86,-0.28,-0.04
2158679977,-0.86,-0.28,-0.04
2158681976,-0.86,-0.28,-0.04
2158683979,-0.88,-0.25,-0.04
2158685975,-0.88,-0.25,-0.04
2158687975,-0.88,-0.25,-0.04
2158690031,-0.88,-0.25,-0.04
2158692035,-0.88,-0.25,-0.04
2158694037,-0.89,-0.24,-0.01
2158696014,-0.89,-0.24,-0.01
2158698003,-0.89,-0.24,-0.01
2158700008,-0.89,-0.24,-0.01
2158702120,-0.89,-0.24,-0.01
2158704003,-0.89,-0.23,0.00
2158706007,-0.89,-0.23,0.00
2158708011,-0.89,-0.23,0.00
2158709976,-0.89,-0.23,0.00
2158711981,-0.89,-0.23,0.00
2158713981,-0.90,-0.25,0.00
2158715982,-0.90,-0.25,0.00
2158717991,-0.90,-0.25,0.00
2158719975,-0.90,-0.25,0.00
2158721977,-0.90,-0.25,0.00
2158723974,-0.88,-0.25,0.00
2158726077,-0.88,-0.25,0.00
2158727987,-0.88,-0.25,0.00
2158729995,-0.88,-0.25,0.00
2158732032,-0.88,-0.25,0.00
2158734020,-0.90,-0.27,0.00
2158736023,-0.90,-0.27,0.00
2158738052,-0.90,-0.27,0.00
2158740028,-0.90,-0.27,0.00
2158742005,-0.90,-0.27,0.00
2158744004,-0.91,-0.27,0.02
2158746008,-0.91,-0.27,0.02
2158748009,-0.91,-0.27,0.02
2158749980,-0.91,-0.27,0.02
2158752098,-0.91,-0.27,0.02
2158753978,-0.96,-0.29,0.04
2158755981,-0.96,-0.29,0.04
2158757980,-0.96,-0.29,0.04
2158759974,-0.96,-0.29,0.04
2158761976,-0.96,-0.29,0.04
2158763980,-0.99,-0.28,0.04
2158765976,-0.99,-0.28,0.04
2158767981,-0.99,-0.28,0.04
2158770011,-0.99,-0.28,0.04
2158771976,-0.99,-0.28,0.04
2158774016,-1.00,-0.31,0.04
2158776102,-1.00,-0.31,0.04
2158778008,-1.00,-0.31,0.04
2158780002,-1.00,-0.31,0.04
2158782002,-1.00,-0.31,0.04
2158784004,-1.02,-0.32,0.07
2158786004,-1.02,-0.32,0.07
2158787979,-1.02,-0.32,0.07
2158789991,-1.02,-0.32,0.07
2158791975,-1.02,-0.32,0.07
2158793979,-1.02,-0.36,0.06
2158795993,-1.02,-0.36,0.06
2158797995,-1.02,-0.36,0.06
2158800063,-1.02,-0.36,0.06
2158802131,-1.02,-0.36,0.06
2158803977,-1.04,-0.38,0.07
2158805977,-1.04,-0.38,0.07
2158807975,-1.04,-0.38,0.07
2158809977,-1.04,-0.38,0.07
2158811976,-1.04,-0.38,0.07
2158814021,-1.04,-0.40,0.07
2158816001,-1.04,-0.40,0.07
2158818003,-1.04,-0.40,0.07
2158820006,-1.04,-0.40,0.07
2158822010,-1.04,-0.40,0.07
2158824007,-1.02,-0.41,0.07
2158826105,-1.02,-0.41,0.07
2158827989,-1.02,-0.41,0.07
2158829980,-1.02,-0.41,0.07
2158831985,-1.02,-0.41,0.07
2158834025,-1.03,-0.43,0.06
2158835977,-1.03,-0.43,0.06
2158837979,-1.03,-0.43,0.06
2158839979,-1.03,-0.43,0.06
2158841978,-1.03,-0.43,0.06
2158843979,-1.01,-0.43,0.05
2158845977,-1.01,-0.43,0.05
2158847981,-1.01,-0.43,0.05
2158849981,-1.01,-0.43,0.05
2158852076,-1.01,-0.43,0.05
2158854018,-1.00,-0.41,0.05
2158856003,-1.00,-0.41,0.05
2158858003,-1.00,-0.41,0.05
2158860001,-1.00,-0.41,0.05
2158862065,-1.00,-0.41,0.05
2158864043,-1.00,-0.37,0.03
2158866000,-1.00,-0.37,0.03
2158868004,-1.00,-0.37,0.03
2158870031,-1.00,-0.37,0.03
2158871977,-1.00,-0.37,0.03
2158873981,-1.00,-0.37,0.03
2158876092,-0.96,-0.36,0.03
2158877988,-0.96,-0.36,0.03
2158879979,-0.96,-0.36,0.03
2158881978,-0.96,-0.36,0.03
2158883976,-0.96,-0.36,0.03
2158885975,-0.95,-0.37,0.03
2158887983,-0.95,-0.37,0.03
2158889988,-0.95,-0.37,0.03
2158891979,-0.95,-0.37,0.03
2158894011,-0.95,-0.37,0.03
2158896009,-0.94,-0.40,0.01
2158898004,-0.94,-0.40,0.01
2158900006,-0.94,-0.40,0.01
2158902110,-0.94,-0.40,0.01
2158904008,-0.94,-0.40,0.01
2158906009,-0.95,-0.41,-0.00
2158907975,-0.95,-0.41,-0.00
2158909981,-0.95,-0.41,-0.00
2158911977,-0.95,-0.41,-0.00
2158913981,-0.95,-0.41,-0.00
2158915979,-0.93,-0.41,-0.03
2158917977,-0.93,-0.41,-0.03
2158919975,-0.93,-0.41,-0.03
2158922034,-0.93,-0.41,-0.03
2158924034,-0.93,-0.41,-0.03
2158926110,-0.93,-0.40,-0.02
2158927986,-0.93,-0.40,-0.02
2158929973,-0.93,-0.40,-0.02
2158931977,-0.93,-0.40,-0.02
2158934020,-0.93,-0.40,-0.02
2158936054,-0.92,-0.39,-0.03
2158938005,-0.92,-0.39,-0.03
2158940004,-0.92,-0.39,-0.03
2158942004,-0.92,-0.39,-0.03
2158944003,-0.92,-0.39,-0.03
2158946007,-0.93,-0.38,-0.03
2158947976,-0.93,-0.38,-0.03
2158949975,-0.93,-0.38,-0.03
2158952089,-0.93,-0.38,-0.03
2158953980,-0.93,-0.38,-0.03
2158955973,-0.93,-0.38,-0.02
2158957977,-0.93,-0.38,-0.02
2158959977,-0.93,-0.38,-0.02
2158961972,-0.93,-0.38,-0.02
2158963979,-0.93,-0.38,-0.02
2158965981,-0.91,-0.37,-0.01
2158968069,-0.91,-0.37,-0.01
2158970033,-0.91,-0.37,-0.01
2158971978,-0.91,-0.37,-0.01
2158974018,-0.91,-0.37,-0.01
2158976108,-0.92,-0.38,0.01
2158978011,-0.92,-0.38,0.01
2158980008,-0.92,-0.38,0.01
2158982003,-0.92,-0.38,0.01
2158984006,-0.92,-0.38,0.01
2158986003,-0.88,-0.36,0.00
2158987982,-0.88,-0.36,0.00
2158989991,-0.88,-0.36,0.00
2158991979,-0.88,-0.36,0.00
2158993980,-0.88,-0.36,0.00
2158995993,-0.94,-0.38,-0.04
2158997977,-0.94,-0.38,-0.04
2158999974,-0.94,-0.38,-0.04
2159002086,-0.94,-0.38,-0.04
2159003976,-0.94,-0.38,-0.04
2159005975,-0.83,-0.37,0.05
2159007976,-0.83,-0.37,0.05
2159009979,-0.83,-0.37,0.05
2159011975,-0.83,-0.37,0.05
2159014007,-0.83,-0.37,0.05
2159016007,-0.95,-0.39,0.07
2159018020,-0.95,-0.39,0.07
2159020006,-0.95,-0.39,0.07
2159022004,-0.95,-0.39,0.07
2159024003,-0.95,-0.39,0.07
2159026098,-0.89,-0.39,-0.01
2159027988,-0.89,-0.39,-0.01
2159030069,-0.89,-0.39,-0.01
2159032017,-0.89,-0.39,-0.01
2159033978,-0.89,-0.39,-0.01
2159035976,-0.95,-0.39,0.01
2159038017,-0.95,-0.39,0.01
2159039974,-0.95,-0.39,0.01
2159041976,-0.95,-0.39,0.01
2159043981,-0.95,-0.39,0.01
2159045977,-0.92,-0.40,0.03
2159047975,-0.92,-0.40,0.03
2159049977,-0.92,-0.40,0.03
2159052091,-0.92,-0.40,0.03
2159054022,-0.92,-0.40,0.03
2159056002,-0.93,-0.43,0.04
2159058004,-0.93,-0.43,0.04
2159060002,-0.93,-0.43,0.04
2159062005,-0.93,-0.43,0.04
2159064001,-0.93,-0.43,0.04
2159066006,-0.93,-0.43,0.04
2159067983,-0.91,-0.43,0.02
2159070018,-0.91,-0.43,0.02
2159071976,-0.91,-0.43,0.02
2159073976,-0.91,-0.43,0.02
2159076085,-0.91,-0.43,0.02
2159077989,-0.92,-0.43,0.03
2159079977,-0.92,-0.43,0.03
2159081979,-0.92,-0.43,0.03
2159083986,-0.92,-0.43,0.03
2159085977,-0.92,-0.43,0.03
2159087980,-0.94,-0.43,0.04
2159090040,-0.94,-0.43,0.04
2159092047,-0.94,-0.43,0.04
2159094026,-0.94,-0.43,0.04
2159096004,-0.94,-0.43,0.04
2159098008,-0.93,-0.43,0.07
2159100007,-0.93,-0.43,0.07
2159102119,-0.93,-0.43,0.07
2159104000,-0.93,-0.43,0.07
2159106008,-0.93,-0.43,0.07
2159107979,-0.96,-0.41,0.02
2159109979,-0.96,-0.41,0.02
2159111980,-0.96,-0.41,0.02
2159113979,-0.96,-0.41,0.02
2159115977,-0.96,-0.41,0.02
2159117976,-0.97,-0.40,0.03
2159119980,-0.97,-0.40,0.03
2159121979,-0.97,-0.40,0.03
2159123981,-0.97,-0.40,0.03
2159126075,-0.97,-0.40,0.03
2159127987,-0.95,-0.43,0.06
2159129980,-0.95,-0.43,0.06
2159131978,-0.95,-0.43,0.06
2159134008,-0.95,-0.43,0.06
2159136006,-0.95,-0.43,0.06
2159138006,-0.94,-0.41,0.08
2159140043,-0.94,-0.41,0.08
2159142049,-0.94,-0.41,0.08
2159144045,-0.94,-0.41,0.08
2159146006,-0.94,-0.41,0.08
2159148004,-0.95,-0.43,0.04
2159150012,-0.95,-0.43,0.04
2159152102,-0.95,-0.43,0.04
2159153980,-0.95,-0.43,0.04
2159155975,-0.95,-0.43,0.04
2159157975,-0.98,-0.43,0.04
2159159976,-0.98,-0.43,0.04
2159161977,-0.98,-0.43,0.04
2159163974,-0.98,-0.43,0.04
2159165975,-0.98,-0.43,0.04
2159167978,-0.95,-0.42,0.09
2159170012,-0.95,-0.42,0.09
2159171976,-0.95,-0.42,0.09
2159174017,-0.95,-0.42,0.09
2159176109,-0.95,-0.42,0.09
2159178009,-0.96,-0.42,0.08
2159180005,-0.96,-0.42,0.08
2159182005,-0.96,-0.42,0.08
2159184008,-0.96,-0.42,0.08
2159186008,-0.96,-0.42,0.08
2159187981,-0.98,-0.39,0.07
2159189991,-0.98,-0.39,0.07
2159191977,-0.98,-0.39,0.07
2159193980,-0.98,-0.39,0.07
2159195993,-0.98,-0.39,0.07
2159197977,-0.96,-0.39,0.08
2159200049,-0.96,-0.39,0.08
2159202144,-0.96,-0.39,0.08
2159203976,-0.96,-0.39,0.08
2159205977,-0.96,-0.39,0.08
2159207976,-0.94,-0.39,0.11
2159209975,-0.94,-0.39,0.11
2159211976,-0.94,-0.39,0.11
2159214018,-0.94,-0.39,0.11
2159216004,-0.94,-0.39,0.11
2159218009,-0.94,-0.39,0.09
2159220006,-0.94,-0.39,0.09
2159222003,-0.94,-0.39,0.09
2159224005,-0.94,-0.39,0.09
2159226100,-0.94,-0.39,0.09
2159227986,-0.94,-0.39,0.10
2159229981,-0.94,-0.39,0.10
2159231981,-0.94,-0.39,0.10
2159233980,-0.94,-0.39,0.10
2159235979,-0.94,-0.39,0.10
2159237981,-0.94,-0.39,0.12
2159239977,-0.94,-0.39,0.12
2159241984,-0.94,-0.39,0.12
2159243978,-0.94,-0.39,0.12
2159246027,-0.94,-0.39,0.12
2159248091,-0.96,-0.39,0.15
2159250018,-0.96,-0.39,0.15
2159252097,-0.96,-0.39,0.15
2159254025,-0.96,-0.39,0.15
2159256007,-0.96,-0.39,0.15
2159258004,-0.96,-0.39,0.15
2159260004,-0.97,-0.42,0.15
2159262005,-0.97,-0.42,0.15
2159264001,-0.97,-0.42,0.15
2159266009,-0.97,-0.42,0.15
2159267982,-0.97,-0.42,0.15
2159270010,-0.98,-0.36,0.16
2159271980,-0.98,-0.36,0.16
2159273977,-0.98,-0.36,0.16
2159276087,-0.98,-0.36,0.16
2159277991,-0.98,-0.36,0.16
2159279979,-0.99,-0.36,0.20
2159281980,-0.99,-0.36,0.20
2159283979,-0.99,-0.36,0.20
2159285979,-0.99,-0.36,0.20
2159287981,-0.99,-0.36,0.20
2159289990,-1.00,-0.38,0.27
2159291979,-1.00,-0.38,0.27
2159294035,-1.00,-0.38,0.27
2159296066,-1.00,-0.38,0.27
2159298033,-1.00,-0.38,0.27
2159300010,-0.80,-0.32,0.15
2159302116,-0.80,-0.32,0.15
2159304005,-0.80,-0.32,0.15
2159306006,-0.80,-0.32,0.15
2159308006,-0.80,-0.32,0.15
2159310014,-0.91,-0.27,0.12
2159311978,-0.91,-0.27,0.12
2159313979,-0.91,-0.27,0.12
2159315981,-0.91,-0.27,0.12
2159317977,-0.91,-0.27,0.12
2159319981,-1.00,-0.21,0.19
2159321984,-1.00,-0.21,0.19
2159323985,-1.00,-0.21,0.19
2159326081,-1.00,-0.21,0.19
2159327987,-1.00,-0.21,0.19
2159329981,-0.95,-0.14,0.15
2159331984,-0.95,-0.14,0.15
2159334014,-0.95,-0.14,0.15
2159336006,-0.95,-0.14,0.15
2159338005,-0.95,-0.14,0.15
2159340004,-0.95,-0.10,0.14
2159342055,-0.95,-0.10,0.14
2159344034,-0.95,-0.10,0.14
2159346056,-0.95,-0.10,0.14
2159348002,-0.95,-0.10,0.14
2159350007,-0.93,-0.09,0.08
2159352091,-0.93,-0.09,0.08
2159353981,-0.93,-0.09,0.08
2159355977,-0.93,-0.09,0.08
2159357979,-0.93,-0.09,0.08
2159359977,-0.92,-0.12,0.05
2159361978,-0.92,-0.12,0.05
2159363977,-0.92,-0.12,0.05
2159365977,-0.92,-0.12,0.05
2159367978,-0.92,-0.12,0.05
2159370016,-0.94,-0.17,0.07
2159371974,-0.94,-0.17,0.07
2159374017,-0.94,-0.17,0.07
2159376102,-0.94,-0.17,0.07
2159378011,-0.94,-0.17,0.07
2159380004,-0.86,-0.19,0.02
2159382007,-0.86,-0.19,0.02
2159384006,-0.86,-0.19,0.02
2159386008,-0.86,-0.19,0.02
2159387979,-0.86,-0.19,0.02
2159389990,-0.88,-0.22,0.02
2159392034,-0.88,-0.22,0.02
2159394046,-0.88,-0.22,0.02
2159395993,-0.88,-0.22,0.02
2159397977,-0.88,-0.22,0.02
2159399976,-0.85,-0.25,-0.04
2159402092,-0.85,-0.25,-0.04
2159403977,-0.85,-0.25,-0.04
2159405975,-0.85,-0.25,-0.04
2159407977,-0.85,-0.25,-0.04
2159409976,-0.86,-0.31,-0.07
2159411985,-0.86,-0.31,-0.07
2159414027,-0.86,-0.31,-0.07
2159416003,-0.86,-0.31,-0.07
2159418002,-0.86,-0.31,-0.07
2159420008,-0.84,-0.33,-0.10
2159422002,-0.84,-0.33,-0.10
2159424004,-0.84,-0.33,-0.10
2159426095,-0.84,-0.33,-0.10
2159427987,-0.84,-0.33,-0.10
2159429979,-0.84,-0.36,-0.14
2159431980,-0.84,-0.36,-0.14
2159433979,-0.84,-0.36,-0.14
2159435979,-0.84,-0.36,-0.14
2159437980,-0.84,-0.36,-0.14
2159439976,-0.84,-0.36,-0.14
2159441977,-0.85,-0.37,-0.15
2159443982,-0.85,-0.37,-0.15
2159445983,-0.85,-0.37,-0.15
2159448030,-0.85,-0.37,-0.15
2159449977,-0.85,-0.37,-0.15
2159452239,-0.84,-0.39,-0.16
2159454030,-0.84,-0.39,-0.16
2159456009,-0.84,-0.39,-0.16
2159458006,-0.84,-0.39,-0.16
2159460004,-0.84,-0.39,-0.16
2159462004,-0.85,-0.41,-0.15
2159464006,-0.85,-0.41,-0.15
2159466004,-0.85,-0.41,-0.15
2159467995,-0.85,-0.41,-0.15
2159470005,-0.85,-0.41,-0.15
2159471973,-0.84,-0.40,-0.13
2159473975,-0.84,-0.40,-0.13
2159476089,-0.84,-0.40,-0.13
2159477990,-0.84,-0.40,-0.13
2159479977,-0.84,-0.40,-0.13
2159481977,-0.84,-0.35,-0.14
2159483977,-0.84,-0.35,-0.14
2159485975,-0.84,-0.35,-0.14
2159487981,-0.84,-0.35,-0.14
2159489988,-0.84,-0.35,-0.14
2159491976,-0.85,-0.31,-0.12
2159494017,-0.85,-0.31,-0.12
2159496010,-0.85,-0.31,-0.12
2159498008,-0.85,-0.31,-0.12
2159500054,-0.85,-0.31,-0.12
2159502154,-0.88,-0.29,-0.09
2159504008,-0.88,-0.29,-0.09
2159506006,-0.88,-0.29,-0.09
2159508000,-0.88,-0.29,-0.09
2159510012,-0.88,-0.29,-0.09
2159511979,-0.87,-0.25,-0.07
2159513980,-0.87,-0.25,-0.07
2159515979,-0.87,-0.25,-0.07
2159517984,-0.87,-0.25,-0.07
2159519980,-0.87,-0.25,-0.07
2159521980,-0.89,-0.24,-0.06
2159523978,-0.89,-0.24,-0.06
2159526083,-0.89,-0.24,-0.06
2159527986,-0.89,-0.24,-0.06
2159529979,-0.89,-0.24,-0.06
2159531981,-0.92,-0.24,-0.05
2159534016,-0.92,-0.24,-0.05
2159536007,-0.92,-0.24,-0.05
2159537999,-0.92,-0.24,-0.05
2159540006,-0.92,-0.24,-0.05
2159542008,-0.94,-0.24,-0.07
2159544002,-0.94,-0.24,-0.07
2159546006,-0.94,-0.24,-0.07
2159547977,-0.94,-0.24,-0.07
2159550020,-0.94,-0.24,-0.07
2159552090,-0.96,-0.24,-0.06
2159553979,-0.96,-0.24,-0.06
2159555979,-0.96,-0.24,-0.06
2159557980,-0.96,-0.24,-0.06
2159559979,-0.96,-0.24,-0.06
2159562114,-0.96,-0.26,-0.06
2159564015,-0.96,-0.26,-0.06
2159565978,-0.96,-0.26,-0.06
2159567980,-0.96,-0.26,-0.06
2159570010,-0.96,-0.26,-0.06
2159571977,-0.97,-0.30,-0.06
2159574017,-0.97,-0.30,-0.06
2159576112,-0.97,-0.30,-0.06
2159578010,-0.97,-0.30,-0.06
2159580006,-0.97,-0.30,-0.06
2159582004,-0.96,-0.33,-0.05
2159584007,-0.96,-0.33,-0.05
2159586007,-0.96,-0.33,-0.05
2159587982,-0.96,-0.33,-0.05
2159589991,-0.96,-0.33,-0.05
2159591979,-0.97,-0.36,-0.04
2159593977,-0.97,-0.36,-0.04
2159595992,-0.97,-0.36,-0.04
2159597976,-0.97,-0.36,-0.04
2159599977,-0.97,-0.36,-0.04
2159602086,-0.97,-0.38,-0.03
2159603974,-0.97,-0.38,-0.03
2159605974,-0.97,-0.38,-0.03
2159607979,-0.97,-0.38,-0.03
2159609984,-0.97,-0.38,-0.03
2159612005,-0.97,-0.41,-0.05
2159614045,-0.97,-0.41,-0.05
2159616037,-0.97,-0.41,-0.05
2159618002,-0.97,-0.41,-0.05
2159620003,-0.97,-0.41,-0.05
2159622077,-0.98,-0.41,-0.05
2159624005,-0.98,-0.41,-0.05
2159626120,-0.98,-0.41,-0.05
2159628010,-0.98,-0.41,-0.05
2159630008,-0.98,-0.41,-0.05
2159631975,-0.98,-0.41,-0.05
2159633981,-1.00,-0.43,-0.04
2159635980,-1.00,-0.43,-0.04
2159637979,-1.00,-0.43,-0.04
2159639979,-1.00,-0.43,-0.04
2159641980,-1.00,-0.43,-0.04
2159643980,-0.98,-0.45,-0.06
2159645977,-0.98,-0.45,-0.06
2159647981,-0.98,-0.45,-0.06
2159649981,-0.98,-0.45,-0.06
2159652133,-0.98,-0.45,-0.06
2159653994,-0.99,-0.45,-0.09
2159656012,-0.99,-0.45,-0.09
2159658002,-0.99,-0.45,-0.09
2159660002,-0.99,-0.45,-0.09
2159662005,-0.99,-0.45,-0.09
2159664001,-0.98,-0.45,-0.09
2159666005,-0.98,-0.45,-0.09
2159668003,-0.98,-0.45,-0.09
2159670011,-0.98,-0.45,-0.09
2159672039,-0.98,-0.45,-0.09
2159674033,-0.95,-0.45,-0.09
2159676100,-0.95,-0.45,-0.09
2159677991,-0.95,-0.45,-0.09
2159679974,-0.95,-0.45,-0.09
2159681981,-0.95,-0.45,-0.09
2159683979,-0.93,-0.45,-0.11
2159685975,-0.93,-0.45,-0.11
2159687981,-0.93,-0.45,-0.11
2159689991,-0.93,-0.45,-0.11
2159691975,-0.93,-0.45,-0.11
2159693979,-0.91,-0.44,-0.12
2159696029,-0.91,-0.44,-0.12
2159698006,-0.91,-0.44,-0.12
2159700005,-0.91,-0.44,-0.12
2159702107,-0.91,-0.44,-0.12
2159704008,-0.91,-0.44,-0.12
2159706005,-0.91,-0.44,-0.12
2159708007,-0.91,-0.44,-0.12
2159709974,-0.91,-0.44,-0.12
2159711979,-0.91,-0.44,-0.12
2159713976,-0.90,-0.43,-0.14
2159715978,-0.90,-0.43,-0.14
2159717994,-0.90,-0.43,-0.14
2159720123,-0.90,-0.43,-0.14
2159722015,-0.90,-0.43,-0.14
2159723978,-0.91,-0.41,-0.12
2159726090,-0.91,-0.41,-0.12
2159727987,-0.91,-0.41,-0.12
2159729979,-0.91,-0.41,-0.12
2159731978,-0.91,-0.41,-0.12
2159733980,-0.92,-0.38,-0.11
2159736025,-0.92,-0.38,-0.11
2159738009,-0.92,-0.38,-0.11
2159740010,-0.92,-0.38,-0.11
2159742009,-0.92,-0.38,-0.11
2159744005,-0.91,-0.38,-0.12
2159746004,-0.91,-0.38,-0.12
2159748001,-0.91,-0.38,-0.12
2159749977,-0.91,-0.38,-0.12
2159752082,-0.91,-0.38,-0.12
2159753997,-0.91,-0.37,-0.12
2159756027,-0.91,-0.37,-0.12
2159757977,-0.91,-0.37,-0.12
2159759973,-0.91,-0.37,-0.12
2159761977,-0.91,-0.37,-0.12
2159763976,-0.92,-0.36,-0.12
2159766012,-0.92,-0.36,-0.12
2159768040,-0.92,-0.36,-0.12
2159770017,-0.92,-0.36,-0.12
2159771979,-0.92,-0.36,-0.12
2159773975,-0.94,-0.33,-0.10
2159776121,-0.94,-0.33,-0.10
2159778011,-0.94,-0.33,-0.10
2159780005,-0.94,-0.33,-0.10
2159782001,-0.94,-0.33,-0.10
2159784007,-0.91,-0.32,-0.09
2159786004,-0.91,-0.32,-0.09
2159788004,-0.91,-0.32,-0.09
2159789991,-0.91,-0.32,-0.09
2159791979,-0.91,-0.32,-0.09
2159793977,-0.91,-0.30,-0.08
2159795990,-0.91,-0.30,-0.08
2159797979,-0.91,-0.30,-0.08
2159799978,-0.91,-0.30,-0.08
2159802084,-0.91,-0.30,-0.08
2159803977,-0.89,-0.29,-0.09
2159805979,-0.89,-0.29,-0.09
2159807978,-0.89,-0.29,-0.09
2159809976,-0.89,-0.29,-0.09
2159812018,-0.89,-0.29,-0.09
2159814043,-0.89,-0.28,-0.08
2159816039,-0.89,-0.28,-0.08
2159818003,-0.89,-0.28,-0.08
2159820004,-0.89,-0.28,-0.08
2159822005,-0.89,-0.28,-0.08
2159824006,-0.89,-0.28,-0.08
2159826112,-0.91,-0.28,-0.07
2159828010,-0.91,-0.28,-0.07
2159829977,-0.91,-0.28,-0.07
2159831978,-0.91,-0.28,-0.07
2159833980,-0.91,-0.28,-0.07
2159835979,-0.93,-0.29,-0.10
2159837979,-0.93,-0.29,-0.10
2159839977,-0.93,-0.29,-0.10
2159841977,-0.93,-0.29,-0.10
2159843984,-0.93,-0.29,-0.10
2159845977,-0.93,-0.29,-0.11
2159847976,-0.93,-0.29,-0.11
2159849984,-0.93,-0.29,-0.11
2159852078,-0.93,-0.29,-0.11
2159853979,-0.93,-0.29,-0.11
2159856011,-0.93,-0.28,-0.10
2159858060,-0.93,-0.28,-0.10
2159860035,-0.93,-0.28,-0.10
2159862010,-0.93,-0.28,-0.10
2159864006,-0.93,-0.28,-0.10
2159866001,-0.91,-0.29,-0.12
2159868006,-0.91,-0.29,-0.12
2159870042,-0.91,-0.29,-0.12
2159872010,-0.91,-0.29,-0.12
2159873977,-0.91,-0.29,-0.12
2159876096,-0.91,-0.30,-0.12
2159877986,-0.91,-0.30,-0.12
2159879979,-0.91,-0.30,-0.12
2159881976,-0.91,-0.30,-0.12
2159883979,-0.91,-0.30,-0.12
2159885976,-0.89,-0.32,-0.13
2159887979,-0.89,-0.32,-0.13
2159889992,-0.89,-0.32,-0.13
2159891977,-0.89,-0.32,-0.13
2159893981,-0.89,-0.32,-0.13
2159896013,-0.89,-0.33,-0.12
2159898006,-0.89,-0.33,-0.12
2159900007,-0.89,-0.33,-0.12
2159902113,-0.89,-0.33,-0.12
2159904006,-0.89,-0.33,-0.12
2159906070,-0.91,-0.35,-0.12
2159908045,-0.91,-0.35,-0.12
2159910009,-0.91,-0.35,-0.12
2159912015,-0.91,-0.35,-0.12
2159913977,-0.91,-0.35,-0.12
2159915976,-0.93,-0.35,-0.14
2159917980,-0.93,-0.35,-0.14
2159919979,-0.93,-0.35,-0.14
2159921979,-0.93,-0.35,-0.14
2159923977,-0.93,-0.35,-0.14
2159926091,-0.94,-0.34,-0.13
2159927989,-0.94,-0.34,-0.13
2159929977,-0.94,-0.34,-0.13
2159931984,-0.94,-0.34,-0.13
2159933979,-0.94,-0.34,-0.13
2159936017,-0.93,-0.34,-0.13
2159938011,-0.93,-0.34,-0.13
2159940013,-0.93,-0.34,-0.13
2159942010,-0.93,-0.34,-0.13
2159944012,-0.93,-0.34,-0.13
2159946007,-0.95,-0.37,-0.13
2159948011,-0.95,-0.37,-0.13
2159949979,-0.95,-0.37,-0.13
2159952078,-0.95,-0.37,-0.13
2159953978,-0.95,-0.37,-0.13
2159955975,-0.95,-0.39,-0.13
2159957979,-0.95,-0.39,-0.13
2159960027,-0.95,-0.39,-0.13
2159961979,-0.95,-0.39,-0.13
2159963978,-0.95,-0.39,-0.13
2159965980,-0.96,-0.41,-0.12
2159967994,-0.96,-0.41,-0.12
2159970020,-0.96,-0.41,-0.12
2159971977,-0.96,-0.41,-0.12
2159973978,-0.96,-0.41,-0.12
2159976114,-0.95,-0.42,-0.11
2159978013,-0.95,-0.42,-0.11
2159980005,-0.95,-0.42,-0.11
2159982006,-0.95,-0.42,-0.11
2159984005,-0.95,-0.42,-0.11
2159986011,-0.95,-0.42,-0.10
2159988012,-0.95,-0.42,-0.10
2159989992,-0.95,-0.42,-0.10
2159991979,-0.95,-0.42,-0.10
2159993980,-0.95,-0.42,-0.10
2159995991,-0.95,-0.41,-0.10
2159997978,-0.95,-0.41,-0.10
2159999979,-0.95,-0.41,-0.10
2160002096,-0.95,-0.41,-0.10
2160003979,-0.95,-0.41,-0.10
