timestamp,accX,accY,accZ
2184642049,-0.85,-0.54,-0.03
2184643992,-0.85,-0.54,-0.03
2184645990,-0.85,-0.54,-0.03
2184647986,-0.85,-0.53,-0.02
2184649990,-0.85,-0.53,-0.02
2184652104,-0.85,-0.53,-0.02
2184653986,-0.85,-0.53,-0.02
2184655986,-0.85,-0.53,-0.02
2184657987,-0.85,-0.52,-0.02
2184660012,-0.85,-0.52,-0.02
2184661987,-0.85,-0.52,-0.02
2184663991,-0.85,-0.52,-0.02
2184665987,-0.85,-0.52,-0.02
2184667985,-0.84,-0.53,-0.02
2184669987,-0.84,-0.53,-0.02
2184671986,-0.84,-0.53,-0.02
2184673992,-0.84,-0.53,-0.02
2184676085,-0.84,-0.53,-0.02
2184677997,-0.84,-0.54,-0.02
2184679992,-0.84,-0.54,-0.02
2184682061,-0.84,-0.54,-0.02
2184684033,-0.84,-0.54,-0.02
2184686017,-0.84,-0.54,-0.02
2184688012,-0.85,-0.54,-0.03
2184690012,-0.85,-0.54,-0.03
2184692021,-0.85,-0.54,-0.03
2184694011,-0.85,-0.54,-0.03
2184696014,-0.85,-0.54,-0.03
2184697987,-0.85,-0.53,-0.02
2184699986,-0.85,-0.53,-0.02
2184702096,-0.85,-0.53,-0.02
2184703990,-0.85,-0.53,-0.02
2184705991,-0.85,-0.53,-0.02
2184707990,-0.85,-0.53,-0.02
2184709992,-0.85,-0.54,-0.03
2184711990,-0.85,-0.54,-0.03
2184713987,-0.85,-0.54,-0.03
2184715984,-0.85,-0.54,-0.03
2184717987,-0.85,-0.54,-0.03
2184719989,-0.85,-0.54,-0.02
2184722021,-0.85,-0.54,-0.02
2184724010,-0.85,-0.54,-0.02
2184726106,-0.85,-0.54,-0.02
2184728019,-0.85,-0.54,-0.02
2184730014,-0.85,-0.53,-0.03
2184732016,-0.85,-0.53,-0.03
2184734009,-0.85,-0.53,-0.03
2184735991,-0.85,-0.53,-0.03
2184737990,-0.85,-0.53,-0.03
2184740038,-0.85,-0.53,-0.02
2184742004,-0.85,-0.53,-0.02
2184743991,-0.85,-0.53,-0.02
2184745990,-0.85,-0.53,-0.02
2184747986,-0.85,-0.53,-0.02
2184749990,-0.84,-0.54,-0.02
2184752093,-0.84,-0.54,-0.02
2184753990,-0.84,-0.54,-0.02
2184755984,-0.84,-0.54,-0.02
2184757992,-0.84,-0.54,-0.02
2184760015,-0.84,-0.53,-0.03
2184762029,-0.84,-0.53,-0.03
2184764011,-0.84,-0.53,-0.03
2184766015,-0.84,-0.53,-0.03
2184768031,-0.84,-0.53,-0.03
2184770045,-0.84,-0.53,-0.03
2184772017,-0.84,-0.53,-0.03
2184774016,-0.84,-0.53,-0.03
2184776121,-0.84,-0.53,-0.03
2184777997,-0.84,-0.53,-0.03
2184779992,-0.84,-0.53,-0.03
2184781992,-0.84,-0.53,-0.03
2184783987,-0.84,-0.53,-0.03
2184785992,-0.84,-0.53,-0.03
2184787991,-0.84,-0.53,-0.03
2184789995,-0.85,-0.53,-0.02
2184791997,-0.85,-0.53,-0.02
2184793992,-0.85,-0.53,-0.02
2184795995,-0.85,-0.53,-0.02
2184797990,-0.85,-0.53,-0.02
2184799990,-0.85,-0.53,-0.03
2184802119,-0.85,-0.53,-0.03
2184804018,-0.85,-0.53,-0.03
2184806015,-0.85,-0.53,-0.03
2184808020,-0.85,-0.53,-0.03
2184810022,-0.85,-0.54,-0.03
2184812017,-0.85,-0.54,-0.03
2184814014,-0.85,-0.54,-0.03
2184815987,-0.85,-0.54,-0.03
2184817991,-0.85,-0.54,-0.03
2184819990,-0.85,-0.54,-0.04
2184821987,-0.85,-0.54,-0.04
2184823986,-0.85,-0.54,-0.04
2184826088,-0.85,-0.54,-0.04
2184827994,-0.85,-0.54,-0.04
2184829990,-0.85,-0.54,-0.03
2184831986,-0.85,-0.54,-0.03
2184833991,-0.85,-0.54,-0.03
2184835991,-0.85,-0.54,-0.03
2184837993,-0.85,-0.54,-0.03
2184839999,-0.84,-0.53,-0.04
2184842059,-0.84,-0.53,-0.04
2184844016,-0.84,-0.53,-0.04
2184846019,-0.84,-0.53,-0.04
2184848018,-0.84,-0.53,-0.04
2184850013,-0.84,-0.53,-0.04
2184852126,-0.84,-0.53,-0.04
2184854020,-0.84,-0.53,-0.04
2184855992,-0.84,-0.53,-0.04
2184857993,-0.84,-0.53,-0.04
2184860012,-0.85,-0.53,-0.03
2184861986,-0.85,-0.53,-0.03
2184863992,-0.85,-0.53,-0.03
2184865991,-0.85,-0.53,-0.03
2184867992,-0.85,-0.53,-0.03
2184869990,-0.84,-0.53,-0.03
2184871992,-0.84,-0.53,-0.03
2184873991,-0.84,-0.53,-0.03
2184876098,-0.84,-0.53,-0.03
2184877996,-0.84,-0.53,-0.03
2184879992,-0.85,-0.54,-0.03
2184882081,-0.85,-0.54,-0.03
2184884066,-0.85,-0.54,-0.03
2184886053,-0.85,-0.54,-0.03
2184888013,-0.85,-0.54,-0.03
2184890014,-0.85,-0.53,-0.03
2184892016,-0.85,-0.53,-0.03
2184894020,-0.85,-0.53,-0.03
2184896023,-0.85,-0.53,-0.03
2184898015,-0.85,-0.53,-0.03
2184899989,-0.85,-0.53,-0.03
2184902108,-0.85,-0.54,-0.02
2184903990,-0.85,-0.54,-0.02
2184905986,-0.85,-0.54,-0.02
2184907991,-0.85,-0.54,-0.02
2184909984,-0.85,-0.54,-0.02
2184911984,-0.85,-0.53,-0.02
2184913990,-0.85,-0.53,-0.02
2184915991,-0.85,-0.53,-0.02
2184917985,-0.85,-0.53,-0.02
2184919990,-0.85,-0.53,-0.02
2184922021,-0.85,-0.53,-0.02
2184924015,-0.85,-0.53,-0.02
2184926105,-0.85,-0.53,-0.02
2184928014,-0.85,-0.53,-0.02
2184930016,-0.85,-0.53,-0.02
2184932017,-0.85,-0.53,-0.02
2184934015,-0.85,-0.53,-0.02
2184935989,-0.85,-0.53,-0.02
2184937992,-0.85,-0.53,-0.02
2184939990,-0.85,-0.53,-0.02
2184941987,-0.85,-0.53,-0.02
2184943991,-0.85,-0.53,-0.02
2184946046,-0.85,-0.53,-0.02
2184948075,-0.85,-0.53,-0.02
2184950008,-0.85,-0.53,-0.02
2184952104,-0.85,-0.53,-0.02
2184953984,-0.85,-0.53,-0.02
2184955991,-0.85,-0.53,-0.02
2184957984,-0.85,-0.53,-0.02
2184960015,-0.85,-0.53,-0.02
2184962033,-0.84,-0.54,-0.02
2184964018,-0.84,-0.54,-0.02
2184966013,-0.84,-0.54,-0.02
2184968020,-0.84,-0.54,-0.02
2184970019,-0.84,-0.54,-0.02
2184972022,-0.84,-0.54,-0.02
2184974016,-0.84,-0.54,-0.02
2184976101,-0.84,-0.54,-0.02
2184977995,-0.84,-0.54,-0.02
2184979990,-0.84,-0.54,-0.02
2184981992,-0.84,-0.53,-0.04
2184983986,-0.84,-0.53,-0.04
2184985987,-0.84,-0.53,-0.04
2184987990,-0.84,-0.53,-0.04
2184989995,-0.84,-0.53,-0.04
2184991999,-0.84,-0.53,-0.04
2184993993,-0.84,-0.53,-0.04
2184995998,-0.84,-0.53,-0.04
2184997987,-0.84,-0.53,-0.04
2184999992,-0.84,-0.53,-0.04
2185002125,-0.84,-0.53,-0.03
2185004017,-0.84,-0.53,-0.03
2185006013,-0.84,-0.53,-0.03
2185008016,-0.84,-0.53,-0.03
2185010015,-0.84,-0.53,-0.03
2185012018,-0.84,-0.53,-0.03
2185014014,-0.84,-0.53,-0.03
2185015991,-0.84,-0.53,-0.03
2185017987,-0.84,-0.53,-0.03
2185019987,-0.84,-0.53,-0.03
2185021987,-0.86,-0.52,-0.03
2185023986,-0.86,-0.52,-0.03
2185026087,-0.86,-0.52,-0.03
2185027997,-0.86,-0.52,-0.03
2185029992,-0.86,-0.52,-0.03
2185031992,-0.84,-0.54,-0.04
2185033991,-0.84,-0.54,-0.04
2185035993,-0.84,-0.54,-0.04
2185037992,-0.84,-0.54,-0.04
2185039991,-0.84,-0.54,-0.04
2185042019,-0.85,-0.54,-0.03
2185044020,-0.85,-0.54,-0.03
2185046054,-0.85,-0.54,-0.03
2185048073,-0.85,-0.54,-0.03
2185050056,-0.85,-0.54,-0.03
2185052155,-0.84,-0.54,-0.02
2185054015,-0.84,-0.54,-0.02
2185056019,-0.84,-0.54,-0.02
2185058015,-0.84,-0.54,-0.02
2185060052,-0.84,-0.54,-0.02
2185061989,-0.85,-0.53,-0.02
2185063991,-0.85,-0.53,-0.02
2185065990,-0.85,-0.53,-0.02
2185067983,-0.85,-0.53,-0.02
2185069990,-0.85,-0.53,-0.02
2185071987,-0.85,-0.53,-0.02
2185073984,-0.85,-0.53,-0.02
2185076102,-0.85,-0.53,-0.02
2185077999,-0.85,-0.53,-0.02
2185079986,-0.85,-0.53,-0.02
2185082013,-0.85,-0.53,-0.03
2185084017,-0.85,-0.53,-0.03
2185086010,-0.85,-0.53,-0.03
2185088013,-0.85,-0.53,-0.03
2185090012,-0.85,-0.53,-0.03
2185092015,-0.85,-0.53,-0.03
2185094010,-0.85,-0.53,-0.03
2185095995,-0.85,-0.53,-0.03
2185097984,-0.85,-0.53,-0.03
2185099987,-0.85,-0.53,-0.03
2185102089,-0.85,-0.53,-0.03
2185103991,-0.85,-0.53,-0.03
2185105987,-0.85,-0.53,-0.03
2185107984,-0.85,-0.53,-0.03
2185109987,-0.85,-0.53,-0.03
2185111987,-0.85,-0.53,-0.03
2185113985,-0.86,-0.52,-0.03
2185115990,-0.86,-0.52,-0.03
2185117986,-0.86,-0.52,-0.03
2185119985,-0.86,-0.52,-0.03
2185122019,-0.86,-0.52,-0.03
2185124011,-0.85,-0.53,-0.03
2185126103,-0.85,-0.53,-0.03
2185128015,-0.85,-0.53,-0.03
2185130019,-0.85,-0.53,-0.03
2185132012,-0.85,-0.53,-0.03
2185134077,-0.85,-0.54,-0.03
2185136004,-0.85,-0.54,-0.03
2185137987,-0.85,-0.54,-0.03
2185139991,-0.85,-0.54,-0.03
2185141992,-0.85,-0.54,-0.03
2185143991,-0.84,-0.54,-0.03
2185145987,-0.84,-0.54,-0.03
2185147991,-0.84,-0.54,-0.03
2185149992,-0.84,-0.54,-0.03
2185152093,-0.84,-0.54,-0.03
2185153990,-0.84,-0.54,-0.03
2185155991,-0.84,-0.54,-0.03
2185157990,-0.84,-0.54,-0.03
2185160013,-0.84,-0.54,-0.03
2185162049,-0.84,-0.54,-0.03
2185163985,-0.84,-0.53,-0.03
2185165967,-0.84,-0.53,-0.03
2185167972,-0.84,-0.53,-0.03
2185169965,-0.84,-0.53,-0.03
2185171964,-0.84,-0.53,-0.03
2185173965,-0.84,-0.54,-0.02
2185176110,-0.84,-0.54,-0.02
2185178055,-0.84,-0.54,-0.02
2185180047,-0.84,-0.54,-0.02
2185182032,-0.84,-0.54,-0.02
2185184016,-0.84,-0.53,-0.03
2185186014,-0.84,-0.53,-0.03
2185188017,-0.84,-0.53,-0.03
2185190016,-0.84,-0.53,-0.03
2185192024,-0.84,-0.53,-0.03
2185194015,-0.84,-0.54,-0.03
2185195997,-0.84,-0.54,-0.03
2185197986,-0.84,-0.54,-0.03
2185199986,-0.84,-0.54,-0.03
2185202132,-0.84,-0.54,-0.03
2185204015,-0.84,-0.54,-0.04
2185206013,-0.84,-0.54,-0.04
2185208019,-0.84,-0.54,-0.04
2185210020,-0.84,-0.54,-0.04
2185212018,-0.84,-0.54,-0.04
2185214014,-0.84,-0.53,-0.03
2185215985,-0.84,-0.53,-0.03
2185217990,-0.84,-0.53,-0.03
2185219988,-0.84,-0.53,-0.03
2185221996,-0.84,-0.53,-0.03
2185223990,-0.85,-0.53,-0.02
2185226092,-0.85,-0.53,-0.02
2185227996,-0.85,-0.53,-0.02
2185229989,-0.85,-0.53,-0.02
2185231986,-0.85,-0.53,-0.02
2185233992,-0.85,-0.53,-0.03
2185235992,-0.85,-0.53,-0.03
2185237987,-0.85,-0.53,-0.03
2185239990,-0.85,-0.53,-0.03
2185242020,-0.85,-0.53,-0.03
2185244018,-0.85,-0.53,-0.02
2185246012,-0.85,-0.53,-0.02
2185248036,-0.85,-0.53,-0.02
2185250046,-0.85,-0.53,-0.02
2185252161,-0.85,-0.53,-0.02
2185254063,-0.84,-0.54,-0.03
2185256030,-0.84,-0.54,-0.03
2185258018,-0.84,-0.54,-0.03
2185260015,-0.84,-0.54,-0.03
2185261990,-0.84,-0.54,-0.03
2185263991,-0.84,-0.54,-0.04
2185265990,-0.84,-0.54,-0.04
2185267984,-0.84,-0.54,-0.04
2185269990,-0.84,-0.54,-0.04
2185271991,-0.84,-0.54,-0.04
2185273986,-0.84,-0.54,-0.04
2185276104,-0.84,-0.54,-0.03
2185277994,-0.84,-0.54,-0.03
2185279991,-0.84,-0.54,-0.03
2185282031,-0.84,-0.54,-0.03
2185284015,-0.84,-0.54,-0.03
2185286016,-0.84,-0.54,-0.03
2185288013,-0.84,-0.54,-0.03
2185290016,-0.84,-0.54,-0.03
2185292020,-0.84,-0.54,-0.03
2185294016,-0.84,-0.54,-0.03
2185295997,-0.84,-0.55,-0.03
2185297998,-0.84,-0.55,-0.03
2185299993,-0.84,-0.55,-0.03
2185302092,-0.84,-0.55,-0.03
2185303990,-0.84,-0.55,-0.03
2185305990,-0.85,-0.54,-0.04
2185307984,-0.85,-0.54,-0.04
2185309987,-0.85,-0.54,-0.04
2185311984,-0.85,-0.54,-0.04
2185313984,-0.85,-0.54,-0.04
2185315991,-0.85,-0.53,-0.04
2185317986,-0.85,-0.53,-0.04
2185319990,-0.85,-0.53,-0.04
2185322019,-0.85,-0.53,-0.04
2185324018,-0.85,-0.53,-0.04
2185326107,-0.85,-0.54,-0.04
2185328017,-0.85,-0.54,-0.04
2185330010,-0.85,-0.54,-0.04
2185332017,-0.85,-0.54,-0.04
2185334010,-0.85,-0.54,-0.04
2185335987,-0.84,-0.53,-0.04
2185337992,-0.84,-0.53,-0.04
2185339989,-0.84,-0.53,-0.04
2185341987,-0.84,-0.53,-0.04
2185343990,-0.84,-0.53,-0.04
2185345991,-0.84,-0.53,-0.03
2185347990,-0.84,-0.53,-0.03
2185349985,-0.84,-0.53,-0.03
2185352087,-0.84,-0.53,-0.03
2185353991,-0.84,-0.53,-0.03
2185356083,-0.85,-0.53,-0.02
2185358032,-0.85,-0.53,-0.02
2185360011,-0.85,-0.53,-0.02
2185362034,-0.85,-0.53,-0.02
2185364017,-0.85,-0.53,-0.02
2185366012,-0.85,-0.53,-0.02
2185368019,-0.85,-0.53,-0.02
2185370017,-0.85,-0.53,-0.02
2185372015,-0.85,-0.53,-0.02
2185374010,-0.85,-0.53,-0.02
2185376105,-0.85,-0.53,-0.02
2185377997,-0.85,-0.53,-0.02
2185379992,-0.85,-0.53,-0.02
2185381991,-0.85,-0.53,-0.02
2185383990,-0.85,-0.53,-0.02
2185385995,-0.84,-0.54,-0.02
2185387978,-0.84,-0.54,-0.02
2185389980,-0.84,-0.54,-0.02
2185391991,-0.84,-0.54,-0.02
2185393980,-0.84,-0.54,-0.02
2185395991,-0.84,-0.54,-0.03
2185397979,-0.84,-0.54,-0.03
2185399979,-0.84,-0.54,-0.03
2185402118,-0.84,-0.54,-0.03
2185404009,-0.84,-0.54,-0.03
2185406005,-0.85,-0.53,-0.02
2185408008,-0.85,-0.53,-0.02
2185410009,-0.85,-0.53,-0.02
2185412009,-0.85,-0.53,-0.02
2185414007,-0.85,-0.53,-0.02
2185415979,-0.84,-0.53,-0.02
2185417981,-0.84,-0.53,-0.02
2185419978,-0.84,-0.53,-0.02
2185421979,-0.84,-0.53,-0.02
2185423979,-0.84,-0.53,-0.02
2185426072,-0.84,-0.53,-0.03
2185427991,-0.84,-0.53,-0.03
2185429986,-0.84,-0.53,-0.03
2185431980,-0.84,-0.53,-0.03
2185433981,-0.84,-0.53,-0.03
2185435981,-0.85,-0.52,-0.02
2185437980,-0.85,-0.52,-0.02
2185439985,-0.85,-0.52,-0.02
2185442014,-0.85,-0.52,-0.02
2185444005,-0.85,-0.52,-0.02
2185446006,-0.86,-0.52,-0.02
2185448035,-0.86,-0.52,-0.02
2185450035,-0.86,-0.52,-0.02
2185452135,-0.86,-0.52,-0.02
2185453963,-0.86,-0.52,-0.02
2185456016,-0.85,-0.53,-0.02
2185457960,-0.85,-0.53,-0.02
2185460015,-0.85,-0.53,-0.02
2185461958,-0.85,-0.53,-0.02
2185463958,-0.85,-0.53,-0.02
2185465958,-0.85,-0.53,-0.02
2185467953,-0.85,-0.53,-0.02
2185469957,-0.85,-0.53,-0.02
2185471979,-0.85,-0.53,-0.02
2185473957,-0.85,-0.53,-0.02
2185476068,-0.85,-0.53,-0.02
2185477967,-0.85,-0.53,-0.02
2185479955,-0.85,-0.53,-0.02
2185481952,-0.85,-0.53,-0.02
2185483958,-0.85,-0.53,-0.02
2185485958,-0.85,-0.53,-0.02
2185487955,-0.85,-0.53,-0.02
2185489961,-0.85,-0.53,-0.02
2185512041,-0.85,-0.52,-0.02
2185514000,-0.85,-0.52,-0.02
2185516003,-0.85,-0.52,-0.02
2185518004,-0.85,-0.52,-0.03
2185520003,-0.85,-0.52,-0.03
2185522003,-0.85,-0.52,-0.03
2185524008,-0.85,-0.52,-0.03
2185526018,-0.85,-0.52,-0.03
2185527985,-0.85,-0.53,-0.03
2185529978,-0.85,-0.53,-0.03
2185531976,-0.85,-0.53,-0.03
2185533975,-0.85,-0.53,-0.03
2185535979,-0.85,-0.53,-0.03
2185537979,-0.85,-0.53,-0.03
2185539977,-0.85,-0.53,-0.03
2185541981,-0.85,-0.53,-0.03
2185543979,-0.85,-0.53,-0.03
2185545978,-0.85,-0.53,-0.03
2185547977,-0.84,-0.53,-0.03
2185549975,-0.84,-0.53,-0.03
2185552023,-0.84,-0.53,-0.03
2185554008,-0.84,-0.53,-0.03
2185555998,-0.84,-0.53,-0.03
2185558004,-0.84,-0.53,-0.02
2185560058,-0.84,-0.53,-0.02
2185562057,-0.84,-0.53,-0.02
2185564039,-0.84,-0.53,-0.02
2185566010,-0.84,-0.53,-0.02
2185568010,-0.84,-0.54,-0.03
2185569978,-0.84,-0.54,-0.03
2185571976,-0.84,-0.54,-0.03
2185573981,-0.84,-0.54,-0.03
2185576008,-0.84,-0.54,-0.03
2185577986,-0.84,-0.54,-0.04
2185579979,-0.84,-0.54,-0.04
2185581980,-0.84,-0.54,-0.04
2185583977,-0.84,-0.54,-0.04
2185585977,-0.84,-0.54,-0.04
2185587979,-0.84,-0.54,-0.04
2185589982,-0.84,-0.54,-0.04
2185592018,-0.84,-0.54,-0.04
2185594006,-0.84,-0.54,-0.04
2185596012,-0.84,-0.54,-0.04
2185598007,-0.84,-0.54,-0.03
2185600002,-0.84,-0.54,-0.03
2185602029,-0.84,-0.54,-0.03
2185604009,-0.84,-0.54,-0.03
2185605976,-0.84,-0.54,-0.03
2185607982,-0.84,-0.55,-0.03
2185609981,-0.84,-0.55,-0.03
2185611981,-0.84,-0.55,-0.03
2185613978,-0.84,-0.55,-0.03
2185615981,-0.84,-0.55,-0.03
2185617980,-0.85,-0.54,-0.04
2185619981,-0.85,-0.54,-0.04
2185622050,-0.85,-0.54,-0.04
2185623979,-0.85,-0.54,-0.04
2185625998,-0.85,-0.54,-0.04
2185627986,-0.85,-0.54,-0.03
2185629979,-0.85,-0.54,-0.03
2185632017,-0.85,-0.54,-0.03
2185634008,-0.85,-0.54,-0.03
2185636008,-0.85,-0.54,-0.03
2185638003,-0.84,-0.54,-0.04
2185640008,-0.84,-0.54,-0.04
2185642009,-0.84,-0.54,-0.04
2185644003,-0.84,-0.54,-0.04
2185645980,-0.84,-0.54,-0.04
2185647980,-0.84,-0.54,-0.04
2185649982,-0.84,-0.54,-0.04
2185652090,-0.84,-0.54,-0.04
2185654020,-0.84,-0.54,-0.04
2185655978,-0.84,-0.54,-0.04
2185657981,-0.84,-0.54,-0.04
2185660015,-0.84,-0.54,-0.04
2185662021,-0.84,-0.54,-0.04
2185663979,-0.84,-0.54,-0.04
2185665977,-0.84,-0.54,-0.04
2185667980,-0.84,-0.54,-0.04
2185669980,-0.84,-0.54,-0.03
2185672023,-0.84,-0.54,-0.03
2185674011,-0.84,-0.54,-0.03
2185676022,-0.84,-0.54,-0.03
2185678008,-0.84,-0.54,-0.03
2185680005,-0.84,-0.54,-0.04
2185682006,-0.84,-0.54,-0.04
2185684009,-0.84,-0.54,-0.04
2185685977,-0.84,-0.54,-0.04
2185687979,-0.84,-0.54,-0.04
2185689981,-0.85,-0.54,-0.04
2185691987,-0.85,-0.54,-0.04
2185693984,-0.85,-0.54,-0.04
2185695993,-0.85,-0.54,-0.04
2185697976,-0.85,-0.54,-0.04
2185699975,-0.85,-0.53,-0.03
2185701996,-0.85,-0.53,-0.03
2185703981,-0.85,-0.53,-0.03
2185705976,-0.85,-0.53,-0.03
2185707976,-0.85,-0.53,-0.03
2185709980,-0.85,-0.52,-0.03
2185712011,-0.85,-0.52,-0.03
2185714008,-0.85,-0.52,-0.03
2185716005,-0.85,-0.52,-0.03
2185718004,-0.85,-0.52,-0.03
2185720005,-0.84,-0.53,-0.02
2185722011,-0.84,-0.53,-0.02
2185724004,-0.84,-0.53,-0.02
2185726000,-0.84,-0.53,-0.02
2185727985,-0.84,-0.53,-0.02
2185729980,-0.84,-0.53,-0.04
2185731977,-0.84,-0.53,-0.04
2185733980,-0.84,-0.53,-0.04
2185735980,-0.84,-0.53,-0.04
2185737979,-0.84,-0.53,-0.04
2185739981,-0.84,-0.53,-0.04
2185741979,-0.84,-0.53,-0.04
2185743980,-0.84,-0.53,-0.04
2185745976,-0.84,-0.53,-0.04
2185747974,-0.84,-0.53,-0.04
2185749979,-0.86,-0.52,-0.02
2185752034,-0.86,-0.52,-0.02
2185754009,-0.86,-0.52,-0.02
2185756007,-0.86,-0.52,-0.02
2185758034,-0.86,-0.52,-0.02
2185760058,-0.85,-0.52,-0.02
2185762023,-0.85,-0.52,-0.02
2185764009,-0.85,-0.52,-0.02
2185765957,-0.85,-0.52,-0.02
2185767957,-0.85,-0.52,-0.02
2185769957,-0.85,-0.53,-0.02
2185771956,-0.85,-0.53,-0.02
2185773957,-0.85,-0.53,-0.02
2185775985,-0.85,-0.53,-0.02
2185777961,-0.85,-0.53,-0.02
2185779957,-0.84,-0.53,-0.02
2185781957,-0.84,-0.53,-0.02
2185783956,-0.84,-0.53,-0.02
2185785957,-0.84,-0.53,-0.02
2185787957,-0.84,-0.53,-0.02
2185789959,-0.85,-0.53,-0.01
2185791974,-0.85,-0.53,-0.01
2185793959,-0.85,-0.53,-0.01
2185795978,-0.85,-0.53,-0.01
2185797958,-0.85,-0.53,-0.01
2185799958,-0.85,-0.53,-0.01
2185870057,-0.85,-0.54,-0.04
2185872037,-0.84,-0.54,-0.04
2185874017,-0.84,-0.54,-0.04
2185876022,-0.84,-0.54,-0.04
2185878009,-0.84,-0.54,-0.04
2185880008,-0.84,-0.54,-0.04
2185882007,-0.84,-0.53,-0.03
2185884007,-0.84,-0.53,-0.03
2185886007,-0.84,-0.53,-0.03
2185888018,-0.84,-0.53,-0.03
2185889984,-0.84,-0.53,-0.03
2185891991,-0.84,-0.53,-0.03
2185893977,-0.84,-0.53,-0.03
2185895992,-0.84,-0.53,-0.03
2185897977,-0.84,-0.53,-0.03
2185899979,-0.84,-0.53,-0.03
2185901993,-0.85,-0.53,-0.04
2185903975,-0.85,-0.53,-0.04
2185905977,-0.85,-0.53,-0.04
2185907977,-0.85,-0.53,-0.04
2185910016,-0.85,-0.53,-0.04
2185912006,-0.85,-0.53,-0.03
2185914009,-0.85,-0.53,-0.03
2185916006,-0.85,-0.53,-0.03
2185918005,-0.85,-0.53,-0.03
2185920009,-0.85,-0.53,-0.03
2185922001,-0.84,-0.54,-0.02
2185923977,-0.84,-0.54,-0.02
2185925998,-0.84,-0.54,-0.02
2185927981,-0.84,-0.54,-0.02
2185929974,-0.84,-0.54,-0.02
2185931975,-0.84,-0.55,-0.03
2185933974,-0.84,-0.55,-0.03
2185935976,-0.84,-0.55,-0.03
2185937979,-0.84,-0.55,-0.03
2185939974,-0.84,-0.55,-0.03
2185941980,-0.84,-0.55,-0.04
2185943977,-0.84,-0.55,-0.04
2185945976,-0.84,-0.55,-0.04
2185947980,-0.84,-0.55,-0.04
2185950007,-0.84,-0.55,-0.04
2185952036,-0.84,-0.54,-0.03
2185954046,-0.84,-0.54,-0.03
2185956007,-0.84,-0.54,-0.03
2185958004,-0.84,-0.54,-0.03
2185960043,-0.84,-0.54,-0.03
2185962008,-0.84,-0.54,-0.03
2185964012,-0.84,-0.54,-0.03
2185965976,-0.84,-0.54,-0.03
2185967981,-0.84,-0.54,-0.03
2185969978,-0.84,-0.54,-0.03
2185971992,-0.85,-0.54,-0.03
2185973976,-0.85,-0.54,-0.03
2185976007,-0.85,-0.54,-0.03
2185978041,-0.85,-0.54,-0.03
2185979980,-0.85,-0.54,-0.03
2185981974,-0.84,-0.55,-0.04
2185983978,-0.84,-0.55,-0.04
2185985978,-0.84,-0.55,-0.04
2185987976,-0.84,-0.55,-0.04
2185990015,-0.84,-0.55,-0.04
2185992007,-0.84,-0.54,-0.04
2185994004,-0.84,-0.54,-0.04
2185996010,-0.84,-0.54,-0.04
2185998003,-0.84,-0.54,-0.04
2186000006,-0.84,-0.54,-0.04
2186002037,-0.84,-0.54,-0.04
2186003976,-0.84,-0.54,-0.04
2186005977,-0.84,-0.54,-0.04
2186007975,-0.84,-0.54,-0.04
2186009978,-0.84,-0.54,-0.04
2186011979,-0.84,-0.54,-0.04
2186013978,-0.84,-0.54,-0.04
2186015978,-0.84,-0.54,-0.04
2186017980,-0.84,-0.54,-0.04
2186019981,-0.84,-0.54,-0.04
2186021981,-0.84,-0.54,-0.03
2186023978,-0.84,-0.54,-0.03
2186025984,-0.84,-0.54,-0.03
2186027987,-0.84,-0.54,-0.03
2186030012,-0.84,-0.54,-0.03
2186032007,-0.84,-0.54,-0.03
2186034007,-0.84,-0.53,-0.03
2186036004,-0.84,-0.53,-0.03
2186038022,-0.84,-0.53,-0.03
2186040010,-0.84,-0.53,-0.03
2186042052,-0.84,-0.53,-0.03
2186044008,-0.85,-0.53,-0.02
2186046008,-0.85,-0.53,-0.02
2186047980,-0.85,-0.53,-0.02
2186049977,-0.85,-0.53,-0.02
2186052003,-0.85,-0.53,-0.02
2186053977,-0.84,-0.53,-0.04
2186055981,-0.84,-0.53,-0.04
2186057983,-0.84,-0.53,-0.04
2186060008,-0.84,-0.53,-0.04
2186061978,-0.84,-0.53,-0.04
2186063977,-0.84,-0.54,-0.02
2186065973,-0.84,-0.54,-0.02
2186067979,-0.84,-0.54,-0.02
2186070027,-0.84,-0.54,-0.02
2186072055,-0.84,-0.54,-0.02
2186074011,-0.84,-0.54,-0.04
2186076021,-0.84,-0.54,-0.04
2186078008,-0.84,-0.54,-0.04
2186080003,-0.84,-0.54,-0.04
2186082013,-0.84,-0.54,-0.04
2186083978,-0.84,-0.53,-0.03
2186085984,-0.84,-0.53,-0.03
2186087975,-0.84,-0.53,-0.03
2186089978,-0.84,-0.53,-0.03
2186091989,-0.84,-0.53,-0.03
2186093980,-0.84,-0.53,-0.03
2186095989,-0.84,-0.53,-0.03
2186097974,-0.84,-0.53,-0.03
2186099977,-0.84,-0.53,-0.03
2186101996,-0.84,-0.53,-0.03
2186103980,-0.85,-0.52,-0.03
2186105976,-0.85,-0.52,-0.03
2186107977,-0.85,-0.52,-0.03
2186110009,-0.85,-0.52,-0.03
2186112006,-0.85,-0.52,-0.03
2186114006,-0.85,-0.53,-0.03
2186116008,-0.85,-0.53,-0.03
2186118006,-0.85,-0.53,-0.03
2186120006,-0.85,-0.53,-0.03
2186122003,-0.85,-0.53,-0.03
2186123976,-0.85,-0.54,-0.02
2186126000,-0.85,-0.54,-0.02
2186127986,-0.85,-0.54,-0.02
2186129977,-0.85,-0.54,-0.02
2186131979,-0.85,-0.54,-0.02
2186133978,-0.85,-0.54,-0.02
2186135976,-0.85,-0.54,-0.02
2186137977,-0.85,-0.54,-0.02
2186139977,-0.85,-0.54,-0.02
2186141977,-0.85,-0.54,-0.02
2186143976,-0.85,-0.53,-0.03
2186145979,-0.85,-0.53,-0.03
2186147979,-0.85,-0.53,-0.03
2186150012,-0.85,-0.53,-0.03
2186152026,-0.85,-0.53,-0.03
2186154030,-0.84,-0.53,-0.02
2186156038,-0.84,-0.53,-0.02
2186158011,-0.84,-0.53,-0.02
2186160043,-0.84,-0.53,-0.02
2186162008,-0.84,-0.53,-0.02
2186164007,-0.85,-0.52,-0.02
2186166012,-0.85,-0.52,-0.02
2186167984,-0.85,-0.52,-0.02
2186169980,-0.85,-0.52,-0.02
2186171978,-0.85,-0.52,-0.02
2186174022,-0.84,-0.53,-0.02
2186176003,-0.84,-0.53,-0.02
2186177980,-0.84,-0.53,-0.02
2186179980,-0.84,-0.53,-0.02
2186181976,-0.84,-0.53,-0.02
2186183975,-0.85,-0.53,-0.02
2186185977,-0.85,-0.53,-0.02
2186187975,-0.85,-0.53,-0.02
2186190019,-0.85,-0.53,-0.02
2186192012,-0.85,-0.53,-0.02
2186194009,-0.85,-0.54,-0.03
2186196008,-0.85,-0.54,-0.03
2186198005,-0.85,-0.54,-0.03
2186200007,-0.85,-0.54,-0.03
2186202128,-0.85,-0.54,-0.03
2186203979,-0.85,-0.54,-0.02
2186205980,-0.85,-0.54,-0.02
2186207979,-0.85,-0.54,-0.02
2186209979,-0.85,-0.54,-0.02
2186211979,-0.85,-0.54,-0.02
2186213979,-0.85,-0.54,-0.02
2186215986,-0.84,-0.53,-0.03
2186217984,-0.84,-0.53,-0.03
2186219980,-0.84,-0.53,-0.03
2186221993,-0.84,-0.53,-0.03
2186223979,-0.84,-0.53,-0.03
2186226152,-0.85,-0.53,-0.02
2186228053,-0.85,-0.53,-0.02
2186230065,-0.85,-0.53,-0.02
2186232026,-0.85,-0.53,-0.02
2186234018,-0.85,-0.53,-0.02
2186236009,-0.84,-0.53,-0.03
2186238005,-0.84,-0.53,-0.03
2186240009,-0.84,-0.53,-0.03
2186242001,-0.84,-0.53,-0.03
2186244008,-0.84,-0.53,-0.03
2186246011,-0.85,-0.53,-0.03
2186247985,-0.85,-0.53,-0.03
2186249981,-0.85,-0.53,-0.03
2186252103,-0.85,-0.53,-0.03
2186253979,-0.85,-0.53,-0.03
2186255974,-0.85,-0.53,-0.02
2186257981,-0.85,-0.53,-0.02
2186260010,-0.85,-0.53,-0.02
2186261977,-0.85,-0.53,-0.02
2186263976,-0.85,-0.53,-0.02
2186265977,-0.84,-0.54,-0.02
2186267975,-0.84,-0.54,-0.02
2186269974,-0.84,-0.54,-0.02
2186272021,-0.84,-0.54,-0.02
2186274001,-0.84,-0.54,-0.02
2186276023,-0.84,-0.54,-0.03
2186278014,-0.84,-0.54,-0.03
2186280005,-0.84,-0.54,-0.03
2186282017,-0.84,-0.54,-0.03
2186284010,-0.84,-0.54,-0.03
2186285981,-0.85,-0.54,-0.03
2186287984,-0.85,-0.54,-0.03
2186289984,-0.85,-0.54,-0.03
2186291990,-0.85,-0.54,-0.03
2186293981,-0.85,-0.54,-0.03
2186295992,-0.84,-0.54,-0.02
2186297979,-0.84,-0.54,-0.02
2186299979,-0.84,-0.54,-0.02
2186302001,-0.84,-0.54,-0.02
2186303981,-0.84,-0.54,-0.02
2186305977,-0.84,-0.54,-0.02
2186307979,-0.84,-0.54,-0.02
2186309976,-0.84,-0.54,-0.02
2186312017,-0.84,-0.54,-0.02
2186314051,-0.84,-0.54,-0.02
2186316032,-0.84,-0.54,-0.03
2186318014,-0.84,-0.54,-0.03
2186320004,-0.84,-0.54,-0.03
2186322007,-0.84,-0.54,-0.03
2186324008,-0.84,-0.54,-0.03
2186326020,-0.84,-0.54,-0.03
2186328014,-0.84,-0.54,-0.03
2186329976,-0.84,-0.54,-0.03
2186331977,-0.84,-0.54,-0.03
2186333979,-0.84,-0.54,-0.03
2186335977,-0.84,-0.54,-0.02
2186337979,-0.84,-0.54,-0.02
2186339976,-0.84,-0.54,-0.02
2186341975,-0.84,-0.54,-0.02
2186343979,-0.84,-0.54,-0.02
2186345979,-0.84,-0.54,-0.02
2186347984,-0.84,-0.54,-0.02
2186349981,-0.84,-0.54,-0.02
2186352028,-0.84,-0.54,-0.02
2186354008,-0.84,-0.54,-0.02
2186356002,-0.84,-0.54,-0.03
2186358006,-0.84,-0.54,-0.03
2186360039,-0.84,-0.54,-0.03
2186362008,-0.84,-0.54,-0.03
2186364003,-0.84,-0.54,-0.03
2186365984,-0.84,-0.54,-0.04
2186367982,-0.84,-0.54,-0.04
2186370066,-0.84,-0.54,-0.04
2186372018,-0.84,-0.54,-0.04
2186373976,-0.84,-0.54,-0.04
2186376005,-0.85,-0.54,-0.04
2186377995,-0.85,-0.54,-0.04
2186380016,-0.85,-0.54,-0.04
2186381978,-0.85,-0.54,-0.04
2186383974,-0.85,-0.54,-0.04
2186385979,-0.85,-0.52,-0.04
2186387975,-0.85,-0.52,-0.04
2186389982,-0.85,-0.52,-0.04
2186392026,-0.85,-0.52,-0.04
2186394009,-0.85,-0.52,-0.04
2186396009,-0.85,-0.53,-0.03
2186398008,-0.85,-0.53,-0.03
2186400008,-0.85,-0.53,-0.03
2186402036,-0.85,-0.53,-0.03
2186404011,-0.85,-0.53,-0.03
2186405980,-0.85,-0.53,-0.03
2186407980,-0.84,-0.54,-0.03
2186409979,-0.84,-0.54,-0.03
2186411980,-0.84,-0.54,-0.03
2186413981,-0.84,-0.54,-0.03
2186415976,-0.84,-0.54,-0.03
2186417980,-0.85,-0.53,-0.04
2186419980,-0.85,-0.53,-0.04
2186421979,-0.85,-0.53,-0.04
2186423980,-0.85,-0.53,-0.04
2186425999,-0.85,-0.53,-0.04
2186427980,-0.85,-0.53,-0.04
2186429979,-0.85,-0.53,-0.04
2186432010,-0.85,-0.53,-0.04
2186434007,-0.85,-0.53,-0.04
2186436006,-0.85,-0.53,-0.04
2186438005,-0.84,-0.54,-0.03
2186440008,-0.84,-0.54,-0.03
2186442008,-0.84,-0.54,-0.03
2186443992,-0.84,-0.54,-0.03
2186445980,-0.84,-0.54,-0.03
2186447980,-0.84,-0.53,-0.03
2186449980,-0.84,-0.53,-0.03
2186451991,-0.84,-0.53,-0.03
2186453980,-0.84,-0.53,-0.03
2186455976,-0.84,-0.53,-0.03
2186457981,-0.84,-0.54,-0.02
2186460013,-0.84,-0.54,-0.02
2186461975,-0.84,-0.54,-0.02
2186463991,-0.84,-0.54,-0.02
2186466068,-0.84,-0.54,-0.02
2186468021,-0.84,-0.54,-0.02
2186469978,-0.84,-0.54,-0.02
2186472026,-0.84,-0.54,-0.02
2186474006,-0.84,-0.54,-0.02
2186476029,-0.84,-0.54,-0.02
2186478012,-0.84,-0.54,-0.03
2186480008,-0.84,-0.54,-0.03
2186482051,-0.84,-0.54,-0.03
2186484009,-0.84,-0.54,-0.03
2186486011,-0.84,-0.54,-0.03
2186487979,-0.84,-0.54,-0.02
2186489981,-0.84,-0.54,-0.02
2186491996,-0.84,-0.54,-0.02
2186493977,-0.84,-0.54,-0.02
2186495987,-0.84,-0.54,-0.02
2186497976,-0.84,-0.53,-0.02
2186499974,-0.84,-0.53,-0.02
2186502002,-0.84,-0.53,-0.02
2186503979,-0.84,-0.53,-0.02
2186505979,-0.84,-0.53,-0.02
2186507977,-0.84,-0.54,-0.02
2186509976,-0.84,-0.54,-0.02
2186512016,-0.84,-0.54,-0.02
2186514006,-0.84,-0.54,-0.02
2186516006,-0.84,-0.54,-0.02
2186518008,-0.85,-0.53,-0.03
2186520005,-0.85,-0.53,-0.03
2186522011,-0.85,-0.53,-0.03
2186524065,-0.85,-0.53,-0.03
2186526048,-0.85,-0.53,-0.03
2186527994,-0.85,-0.53,-0.02
2186529978,-0.85,-0.53,-0.02
2186531977,-0.85,-0.53,-0.02
2186533977,-0.85,-0.53,-0.02
2186535980,-0.85,-0.53,-0.02
2186537976,-0.85,-0.53,-0.02
2186539975,-0.85,-0.53,-0.02
2186541976,-0.85,-0.53,-0.02
2186543978,-0.85,-0.53,-0.02
2186545977,-0.85,-0.53,-0.02
2186547974,-0.85,-0.53,-0.04
2186549976,-0.85,-0.53,-0.04
2186552033,-0.85,-0.53,-0.04
2186554005,-0.85,-0.53,-0.04
2186556006,-0.85,-0.53,-0.04
2186558007,-0.85,-0.52,-0.02
2186560040,-0.85,-0.52,-0.02
2186562007,-0.85,-0.52,-0.02
2186564011,-0.85,-0.52,-0.02
2186565976,-0.85,-0.52,-0.02
2186567981,-0.85,-0.54,-0.04
2186569978,-0.85,-0.54,-0.04
2186572130,-0.85,-0.54,-0.04
2186574017,-0.85,-0.54,-0.04
2186576003,-0.85,-0.54,-0.04
2186577981,-0.85,-0.52,-0.03
2186579977,-0.85,-0.52,-0.03
2186581979,-0.85,-0.52,-0.03
2186583979,-0.85,-0.52,-0.03
2186585979,-0.85,-0.52,-0.03
2186587976,-0.85,-0.52,-0.03
2186589983,-0.84,-0.53,-0.03
2186592029,-0.84,-0.53,-0.03
2186594007,-0.84,-0.53,-0.03
2186596012,-0.84,-0.53,-0.03
2186598005,-0.84,-0.53,-0.03
2186600006,-0.84,-0.53,-0.03
2186602122,-0.84,-0.53,-0.03
2186604012,-0.84,-0.53,-0.03
2186605980,-0.84,-0.53,-0.03
2186607979,-0.84,-0.53,-0.03
2186609980,-0.85,-0.54,-0.02
2186611979,-0.85,-0.54,-0.02
2186613979,-0.85,-0.54,-0.02
2186615976,-0.85,-0.54,-0.02
2186617984,-0.85,-0.54,-0.02
2186619979,-0.84,-0.55,-0.03
2186622053,-0.84,-0.55,-0.03
2186623976,-0.84,-0.55,-0.03
2186625996,-0.84,-0.55,-0.03
2186628070,-0.84,-0.55,-0.03
2186630022,-0.84,-0.54,-0.04
2186632020,-0.84,-0.54,-0.04
2186634004,-0.84,-0.54,-0.04
2186636007,-0.84,-0.54,-0.04
2186638007,-0.84,-0.54,-0.04
2186640005,-0.84,-0.53,-0.02
2186642007,-0.84,-0.53,-0.02
2186644008,-0.84,-0.53,-0.02
2186645981,-0.84,-0.53,-0.02
2186647981,-0.84,-0.53,-0.02
2186649980,-0.84,-0.53,-0.03
2186652101,-0.84,-0.53,-0.03
2186653975,-0.84,-0.53,-0.03
2186655979,-0.84,-0.53,-0.03
2186657980,-0.84,-0.53,-0.03
2186660009,-0.84,-0.54,-0.03
2186661976,-0.84,-0.54,-0.03
2186663979,-0.84,-0.54,-0.03
2186665975,-0.84,-0.54,-0.03
2186667976,-0.84,-0.54,-0.03
2186669979,-0.84,-0.54,-0.02
2186672019,-0.84,-0.54,-0.02
2186674006,-0.84,-0.54,-0.02
2186676019,-0.84,-0.54,-0.02
2186678009,-0.84,-0.54,-0.02
2186680064,-0.84,-0.54,-0.02
2186682047,-0.84,-0.54,-0.02
2186684010,-0.84,-0.54,-0.02
2186686046,-0.84,-0.54,-0.02
2186688018,-0.84,-0.54,-0.02
2186689979,-0.84,-0.54,-0.03
2186691990,-0.84,-0.54,-0.03
2186693981,-0.84,-0.54,-0.03
2186695994,-0.84,-0.54,-0.03
2186697977,-0.84,-0.54,-0.03
2186699974,-0.83,-0.54,-0.03
2186701999,-0.83,-0.54,-0.03
2186703976,-0.83,-0.54,-0.03
2186705977,-0.83,-0.54,-0.03
2186707977,-0.83,-0.54,-0.03
2186709975,-0.84,-0.54,-0.03
2186712016,-0.84,-0.54,-0.03
2186714010,-0.84,-0.54,-0.03
2186716009,-0.84,-0.54,-0.03
2186718008,-0.84,-0.54,-0.03
2186720007,-0.84,-0.53,-0.04
2186722013,-0.84,-0.53,-0.04
2186724011,-0.84,-0.53,-0.04
2186725999,-0.84,-0.53,-0.04
2186728066,-0.84,-0.53,-0.04
2186730016,-0.84,-0.53,-0.04
2186731976,-0.84,-0.53,-0.04
2186733976,-0.84,-0.53,-0.04
2186735974,-0.84,-0.53,-0.04
2186737976,-0.84,-0.53,-0.04
2186739979,-0.85,-0.53,-0.04
2186741981,-0.85,-0.53,-0.04
2186743974,-0.85,-0.53,-0.04
2186745977,-0.85,-0.53,-0.04
2186747975,-0.85,-0.53,-0.04
2186749975,-0.85,-0.54,-0.03
2186752047,-0.85,-0.54,-0.03
2186754008,-0.85,-0.54,-0.03
2186756008,-0.85,-0.54,-0.03
2186758006,-0.85,-0.54,-0.03
2186760040,-0.85,-0.54,-0.04
2186762007,-0.85,-0.54,-0.04
2186764008,-0.85,-0.54,-0.04
2186765981,-0.85,-0.54,-0.04
2186767975,-0.85,-0.54,-0.04
2186769975,-0.85,-0.53,-0.03
2186771973,-0.85,-0.53,-0.03
2186773973,-0.85,-0.53,-0.03
2186776002,-0.85,-0.53,-0.03
2186777980,-0.85,-0.53,-0.03
2186779979,-0.85,-0.53,-0.03
2186781976,-0.84,-0.53,-0.03
2186783981,-0.84,-0.53,-0.03
2186785978,-0.84,-0.53,-0.03
2186788032,-0.84,-0.53,-0.03
2186790060,-0.84,-0.53,-0.03
2186792039,-0.84,-0.52,-0.03
2186794016,-0.84,-0.52,-0.03
2186796011,-0.84,-0.52,-0.03
2186798005,-0.84,-0.52,-0.03
2186800005,-0.84,-0.52,-0.03
2186802036,-0.84,-0.54,-0.02
2186804009,-0.84,-0.54,-0.02
2186806020,-0.84,-0.54,-0.02
2186807981,-0.84,-0.54,-0.02
2186809984,-0.84,-0.54,-0.02
2186811981,-0.85,-0.53,-0.02
2186813979,-0.85,-0.53,-0.02
2186815977,-0.85,-0.53,-0.02
2186817981,-0.85,-0.53,-0.02
2186819981,-0.85,-0.53,-0.02
2186821979,-0.86,-0.54,-0.01
2186823977,-0.86,-0.54,-0.01
2186825994,-0.86,-0.54,-0.01
2186827982,-0.86,-0.54,-0.01
2186829976,-0.86,-0.54,-0.01
2186832018,-0.83,-0.54,-0.01
2186834009,-0.83,-0.54,-0.01
2186836003,-0.83,-0.54,-0.01
2186838009,-0.83,-0.54,-0.01
2186840009,-0.83,-0.54,-0.01
2186842008,-0.84,-0.55,-0.01
2186844005,-0.84,-0.55,-0.01
2186845976,-0.84,-0.55,-0.01
2186847981,-0.84,-0.55,-0.01
2186849979,-0.84,-0.55,-0.01
2186851996,-0.83,-0.54,-0.02
2186854068,-0.83,-0.54,-0.02
2186856019,-0.83,-0.54,-0.02
2186857981,-0.83,-0.54,-0.02
2186860016,-0.83,-0.54,-0.02
2186861980,-0.84,-0.52,-0.02
2186863980,-0.84,-0.52,-0.02
2186865980,-0.84,-0.52,-0.02
2186867979,-0.84,-0.52,-0.02
2186869979,-0.84,-0.52,-0.02
2186872024,-0.85,-0.52,-0.02
2186874007,-0.85,-0.52,-0.02
2186876021,-0.85,-0.52,-0.02
2186878014,-0.85,-0.52,-0.02
2186880005,-0.85,-0.52,-0.02
2186882006,-0.84,-0.52,-0.03
2186884008,-0.84,-0.52,-0.03
2186885981,-0.84,-0.52,-0.03
2186887979,-0.84,-0.52,-0.03
2186889981,-0.84,-0.52,-0.03
2186891992,-0.86,-0.52,-0.03
2186894036,-0.86,-0.52,-0.03
2186895990,-0.86,-0.52,-0.03
2186897976,-0.86,-0.52,-0.03
2186900109,-0.86,-0.52,-0.03
2186902036,-0.85,-0.52,-0.03
2186903979,-0.85,-0.52,-0.03
2186905975,-0.85,-0.52,-0.03
2186907979,-0.85,-0.52,-0.03
2186909980,-0.85,-0.52,-0.03
2186912025,-0.84,-0.53,-0.02
2186914007,-0.84,-0.53,-0.02
2186916007,-0.84,-0.53,-0.02
2186918005,-0.84,-0.53,-0.02
2186920008,-0.84,-0.53,-0.02
2186922010,-0.83,-0.53,-0.04
2186924006,-0.83,-0.53,-0.04
2186926001,-0.83,-0.53,-0.04
2186927981,-0.83,-0.53,-0.04
2186929980,-0.83,-0.53,-0.04
2186931977,-0.84,-0.53,-0.03
2186933980,-0.84,-0.53,-0.03
2186935977,-0.84,-0.53,-0.03
2186937984,-0.84,-0.53,-0.03
2186939976,-0.84,-0.53,-0.03
2186941977,-0.84,-0.53,-0.03
2186943976,-0.84,-0.53,-0.03
2186945981,-0.84,-0.53,-0.03
2186947977,-0.84,-0.53,-0.03
2186949978,-0.84,-0.53,-0.03
2186952028,-0.84,-0.54,-0.01
2186954008,-0.84,-0.54,-0.01
2186956005,-0.84,-0.54,-0.01
2186958010,-0.84,-0.54,-0.01
2186960109,-0.84,-0.54,-0.01
2186962054,-0.84,-0.54,-0.02
2186964007,-0.84,-0.54,-0.02
2186966006,-0.84,-0.54,-0.02
2186968008,-0.84,-0.54,-0.02
2186969979,-0.84,-0.54,-0.02
2186971989,-0.84,-0.54,-0.02
2186973979,-0.85,-0.53,-0.02
2186976004,-0.85,-0.53,-0.02
2186977986,-0.85,-0.53,-0.02
2186979977,-0.85,-0.53,-0.02
2186981980,-0.85,-0.53,-0.02
2186983980,-0.84,-0.54,-0.02
2186985976,-0.84,-0.54,-0.02
2186987976,-0.84,-0.54,-0.02
2186989979,-0.84,-0.54,-0.02
2186992012,-0.84,-0.54,-0.02
2186994060,-0.84,-0.54,-0.03
2186996013,-0.84,-0.54,-0.03
2186998003,-0.84,-0.54,-0.03
2187000006,-0.84,-0.54,-0.03
2187002136,-0.84,-0.54,-0.03
2187004007,-0.84,-0.55,-0.04
2187006009,-0.84,-0.55,-0.04
2187007978,-0.84,-0.55,-0.04
2187009975,-0.84,-0.55,-0.04
2187012133,-0.84,-0.55,-0.04
2187014014,-0.85,-0.54,-0.04
2187015981,-0.85,-0.54,-0.04
2187017980,-0.85,-0.54,-0.04
2187019979,-0.85,-0.54,-0.04
2187021980,-0.85,-0.54,-0.04
2187023975,-0.85,-0.53,-0.04
2187026002,-0.85,-0.53,-0.04
2187027982,-0.85,-0.53,-0.04
2187029975,-0.85,-0.53,-0.04
2187032020,-0.85,-0.53,-0.04
2187034010,-0.84,-0.53,-0.03
2187036004,-0.84,-0.53,-0.03
2187038008,-0.84,-0.53,-0.03
2187040006,-0.84,-0.53,-0.03
2187042008,-0.84,-0.53,-0.03
2187044007,-0.84,-0.53,-0.04
2187045980,-0.84,-0.53,-0.04
2187047979,-0.84,-0.53,-0.04
2187049976,-0.84,-0.53,-0.04
2187052085,-0.84,-0.53,-0.04
2187053978,-0.85,-0.54,-0.04
2187056018,-0.85,-0.54,-0.04
2187058048,-0.85,-0.54,-0.04
2187059998,-0.85,-0.54,-0.04
2187062052,-0.85,-0.54,-0.04
2187063975,-0.84,-0.54,-0.04
2187066009,-0.84,-0.54,-0.04
2187068010,-0.84,-0.54,-0.04
2187069984,-0.84,-0.54,-0.04
2187072019,-0.84,-0.54,-0.04
2187074007,-0.84,-0.54,-0.03
2187076028,-0.84,-0.54,-0.03
2187078012,-0.84,-0.54,-0.03
2187080010,-0.84,-0.54,-0.03
2187082009,-0.84,-0.54,-0.03
2187084005,-0.85,-0.54,-0.03
2187085976,-0.85,-0.54,-0.03
2187087980,-0.85,-0.54,-0.03
2187089981,-0.85,-0.54,-0.03
2187091991,-0.85,-0.54,-0.03
2187093979,-0.85,-0.54,-0.02
2187096032,-0.85,-0.54,-0.02
2187097980,-0.85,-0.54,-0.02
2187099975,-0.85,-0.54,-0.02
2187102022,-0.85,-0.54,-0.02
2187104116,-0.84,-0.54,-0.04
2187106015,-0.84,-0.54,-0.04
2187107979,-0.84,-0.54,-0.04
2187109979,-0.84,-0.54,-0.04
2187112022,-0.84,-0.54,-0.04
2187114008,-0.85,-0.54,-0.03
2187116006,-0.85,-0.54,-0.03
2187118009,-0.85,-0.54,-0.03
2187120009,-0.85,-0.54,-0.03
2187122009,-0.85,-0.54,-0.03
2187124007,-0.86,-0.53,-0.03
2187126006,-0.86,-0.53,-0.03
2187127987,-0.86,-0.53,-0.03
2187129979,-0.86,-0.53,-0.03
2187131980,-0.86,-0.53,-0.03
2187133990,-0.85,-0.52,-0.04
2187135977,-0.85,-0.52,-0.04
2187137979,-0.85,-0.52,-0.04
2187139975,-0.85,-0.52,-0.04
2187141977,-0.85,-0.52,-0.04
2187143978,-0.85,-0.52,-0.02
2187145975,-0.85,-0.52,-0.02
2187147979,-0.85,-0.52,-0.02
2187149979,-0.85,-0.52,-0.02
2187152073,-0.85,-0.52,-0.02
2187154031,-0.84,-0.53,-0.03
2187156028,-0.84,-0.53,-0.03
2187158006,-0.84,-0.53,-0.03
2187160010,-0.84,-0.53,-0.03
2187162007,-0.84,-0.53,-0.03
2187164006,-0.84,-0.53,-0.03
2187166012,-0.84,-0.53,-0.03
2187168013,-0.84,-0.53,-0.03
2187169975,-0.84,-0.53,-0.03
2187171981,-0.84,-0.53,-0.03
2187173977,-0.84,-0.53,-0.03
2187176001,-0.83,-0.54,-0.03
2187177981,-0.83,-0.54,-0.03
2187179977,-0.83,-0.54,-0.03
2187181974,-0.83,-0.54,-0.03
2187183976,-0.83,-0.54,-0.03
2187185976,-0.84,-0.53,-0.03
2187187978,-0.84,-0.53,-0.03
2187189979,-0.84,-0.53,-0.03
2187192019,-0.84,-0.53,-0.03
2187194008,-0.84,-0.53,-0.03
2187196011,-0.85,-0.53,-0.02
2187198054,-0.85,-0.53,-0.02
2187200051,-0.85,-0.53,-0.02
2187202068,-0.85,-0.53,-0.02
2187204006,-0.85,-0.53,-0.02
2187206004,-0.86,-0.53,-0.01
2187208018,-0.86,-0.53,-0.01
2187209980,-0.86,-0.53,-0.01
2187211980,-0.86,-0.53,-0.01
2187213979,-0.86,-0.53,-0.01
2187215978,-0.85,-0.53,-0.02
2187217979,-0.85,-0.53,-0.02
2187219978,-0.85,-0.53,-0.02
2187221993,-0.85,-0.53,-0.02
2187223974,-0.85,-0.53,-0.02
2187225995,-0.85,-0.54,-0.02
2187227975,-0.85,-0.54,-0.02
2187229980,-0.85,-0.54,-0.02
2187232013,-0.85,-0.54,-0.02
2187234008,-0.85,-0.54,-0.02
2187236004,-0.84,-0.54,-0.02
2187238010,-0.84,-0.54,-0.02
2187240007,-0.84,-0.54,-0.02
2187242003,-0.84,-0.54,-0.02
2187244006,-0.84,-0.54,-0.02
2187245979,-0.84,-0.54,-0.03
2187247980,-0.84,-0.54,-0.03
2187249980,-0.84,-0.54,-0.03
2187251996,-0.84,-0.54,-0.03
2187253979,-0.84,-0.54,-0.03
2187255979,-0.84,-0.53,-0.02
2187257980,-0.84,-0.53,-0.02
2187260131,-0.84,-0.53,-0.02
2187262017,-0.84,-0.53,-0.02
2187263978,-0.84,-0.53,-0.02
2187265982,-0.84,-0.53,-0.03
2187268013,-0.84,-0.53,-0.03
2187269975,-0.84,-0.53,-0.03
2187272021,-0.84,-0.53,-0.03
2187274005,-0.84,-0.53,-0.03
2187276024,-0.84,-0.54,-0.04
2187278009,-0.84,-0.54,-0.04
2187280007,-0.84,-0.54,-0.04
2187282007,-0.84,-0.54,-0.04
2187284011,-0.84,-0.54,-0.04
2187285984,-0.85,-0.54,-0.03
2187287980,-0.85,-0.54,-0.03
2187289981,-0.85,-0.54,-0.03
2187291992,-0.85,-0.54,-0.03
2187293981,-0.85,-0.54,-0.03
2187295993,-0.85,-0.54,-0.03
2187297975,-0.85,-0.54,-0.03
2187300024,-0.85,-0.54,-0.03
2187302025,-0.85,-0.54,-0.03
2187303977,-0.85,-0.54,-0.03
2187306071,-0.84,-0.54,-0.04
2187308008,-0.84,-0.54,-0.04
2187309977,-0.84,-0.54,-0.04
2187312041,-0.84,-0.54,-0.04
2187314068,-0.84,-0.54,-0.04
2187316007,-0.84,-0.53,-0.03
2187318045,-0.84,-0.53,-0.03
2187320004,-0.84,-0.53,-0.03
2187322007,-0.84,-0.53,-0.03
2187324008,-0.84,-0.53,-0.03
2187326024,-0.84,-0.54,-0.04
2187328009,-0.84,-0.54,-0.04
2187329983,-0.84,-0.54,-0.04
2187331981,-0.84,-0.54,-0.04
2187333976,-0.84,-0.54,-0.04
2187335979,-0.84,-0.53,-0.04
2187337977,-0.84,-0.53,-0.04
2187339979,-0.84,-0.53,-0.04
2187341980,-0.84,-0.53,-0.04
2187343975,-0.84,-0.53,-0.04
2187345977,-0.84,-0.53,-0.04
2187347978,-0.86,-0.53,-0.04
2187349980,-0.86,-0.53,-0.04
2187352033,-0.86,-0.53,-0.04
2187354074,-0.86,-0.53,-0.04
2187356042,-0.86,-0.53,-0.04
2187358007,-0.85,-0.52,-0.04
2187360008,-0.85,-0.52,-0.04
2187362009,-0.85,-0.52,-0.04
2187364009,-0.85,-0.52,-0.04
2187366007,-0.85,-0.52,-0.04
2187367979,-0.86,-0.53,-0.03
2187369977,-0.86,-0.53,-0.03
2187371980,-0.86,-0.53,-0.03
2187373981,-0.86,-0.53,-0.03
2187376006,-0.86,-0.53,-0.03
2187377985,-0.85,-0.53,-0.03
2187379980,-0.85,-0.53,-0.03
2187381974,-0.85,-0.53,-0.03
2187383984,-0.85,-0.53,-0.03
2187385979,-0.85,-0.53,-0.03
2187387976,-0.84,-0.53,-0.02
2187389978,-0.84,-0.53,-0.02
2187392019,-0.84,-0.53,-0.02
2187394011,-0.84,-0.53,-0.02
2187396013,-0.84,-0.53,-0.02
2187398008,-0.83,-0.53,-0.03
2187400047,-0.83,-0.53,-0.03
2187402148,-0.83,-0.53,-0.03
2187404035,-0.83,-0.53,-0.03
2187406015,-0.83,-0.53,-0.03
2187408014,-0.84,-0.53,-0.02
2187409976,-0.84,-0.53,-0.02
2187411977,-0.84,-0.53,-0.02
2187413981,-0.84,-0.53,-0.02
2187415983,-0.84,-0.53,-0.02
2187418019,-0.84,-0.53,-0.02
2187419976,-0.84,-0.53,-0.02
2187421977,-0.84,-0.53,-0.02
2187423980,-0.84,-0.53,-0.02
2187426006,-0.84,-0.53,-0.02
2187427982,-0.86,-0.54,-0.03
2187429975,-0.86,-0.54,-0.03
2187432018,-0.86,-0.54,-0.03
2187434007,-0.86,-0.54,-0.03
2187436004,-0.86,-0.54,-0.03
2187438008,-0.86,-0.53,-0.03
2187440006,-0.86,-0.53,-0.03
2187442006,-0.86,-0.53,-0.03
2187444009,-0.86,-0.53,-0.03
2187446065,-0.86,-0.53,-0.03
2187448017,-0.86,-0.53,-0.02
2187449974,-0.86,-0.53,-0.02
2187452094,-0.86,-0.53,-0.02
2187453976,-0.86,-0.53,-0.02
2187455973,-0.86,-0.53,-0.02
2187457976,-0.85,-0.54,-0.02
2187459976,-0.85,-0.54,-0.02
2187461979,-0.85,-0.54,-0.02
2187463977,-0.85,-0.54,-0.02
2187465972,-0.85,-0.54,-0.02
2187467976,-0.84,-0.54,-0.02
2187469980,-0.84,-0.54,-0.02
2187472030,-0.84,-0.54,-0.02
2187474008,-0.84,-0.54,-0.02
2187476018,-0.84,-0.54,-0.02
2187478013,-0.83,-0.54,-0.02
2187480006,-0.83,-0.54,-0.02
2187482007,-0.83,-0.54,-0.02
2187484010,-0.83,-0.54,-0.02
2187485980,-0.83,-0.54,-0.02
2187487979,-0.84,-0.53,-0.03
2187489980,-0.84,-0.53,-0.03
2187491990,-0.84,-0.53,-0.03
2187493977,-0.84,-0.53,-0.03
2187495992,-0.84,-0.53,-0.03
2187497977,-0.84,-0.54,-0.02
2187499974,-0.84,-0.54,-0.02
2187501997,-0.84,-0.54,-0.02
2187503978,-0.84,-0.54,-0.02
2187505975,-0.84,-0.54,-0.02
2187507975,-0.84,-0.54,-0.04
2187509974,-0.84,-0.54,-0.04
2187512040,-0.84,-0.54,-0.04
2187514051,-0.84,-0.54,-0.04
2187516007,-0.84,-0.54,-0.04
2187518050,-0.85,-0.54,-0.04
2187520004,-0.85,-0.54,-0.04
2187522004,-0.85,-0.54,-0.04
2187524008,-0.85,-0.54,-0.04
2187526025,-0.85,-0.54,-0.04
2187527985,-0.85,-0.54,-0.04
2187529975,-0.86,-0.54,-0.04
2187531979,-0.86,-0.54,-0.04
2187533977,-0.86,-0.54,-0.04
2187535976,-0.86,-0.54,-0.04
2187537980,-0.86,-0.54,-0.04
2187539976,-0.85,-0.55,-0.05
2187541980,-0.85,-0.55,-0.05
2187543976,-0.85,-0.55,-0.05
2187545976,-0.85,-0.55,-0.05
2187547975,-0.85,-0.55,-0.05
2187549975,-0.86,-0.53,-0.04
2187552033,-0.86,-0.53,-0.04
2187554008,-0.86,-0.53,-0.04
2187556003,-0.86,-0.53,-0.04
2187558108,-0.86,-0.53,-0.04
2187560031,-0.84,-0.51,-0.03
2187562009,-0.84,-0.51,-0.03
2187564008,-0.84,-0.51,-0.03
2187566008,-0.84,-0.51,-0.03
2187567979,-0.84,-0.51,-0.03
2187569978,-0.84,-0.52,-0.03
2187571981,-0.84,-0.52,-0.03
2187573979,-0.84,-0.52,-0.03
2187576002,-0.84,-0.52,-0.03
2187577981,-0.84,-0.52,-0.03
2187579978,-0.84,-0.52,-0.03
2187581977,-0.84,-0.52,-0.03
2187583981,-0.84,-0.52,-0.03
2187585980,-0.84,-0.52,-0.03
2187587979,-0.84,-0.52,-0.03
2187589978,-0.85,-0.52,-0.02
2187592020,-0.85,-0.52,-0.02
2187594009,-0.85,-0.52,-0.02
2187596012,-0.85,-0.52,-0.02
2187598007,-0.85,-0.52,-0.02
2187600027,-0.84,-0.54,-0.02
2187602035,-0.84,-0.54,-0.02
2187603959,-0.84,-0.54,-0.02
2187605958,-0.84,-0.54,-0.02
2187608022,-0.84,-0.54,-0.02
2187609961,-0.85,-0.55,-0.02
2187611958,-0.85,-0.55,-0.02
2187613957,-0.85,-0.55,-0.02
2187615960,-0.85,-0.55,-0.02
2187618010,-0.85,-0.55,-0.02
2187619957,-0.84,-0.54,-0.01
2187622040,-0.84,-0.54,-0.01
2187623958,-0.84,-0.54,-0.01
2187625981,-0.84,-0.54,-0.01
2187627960,-0.84,-0.54,-0.01
2187629957,-0.84,-0.55,-0.03
2187631958,-0.84,-0.55,-0.03
2187633952,-0.84,-0.55,-0.03
2187635957,-0.84,-0.55,-0.03
2187637958,-0.84,-0.55,-0.03
2187639955,-0.83,-0.54,-0.02
2187720055,-0.85,-0.54,-0.04
2187722014,-0.85,-0.54,-0.04
2187724009,-0.85,-0.54,-0.04
2187726024,-0.85,-0.54,-0.04
2187728008,-0.85,-0.54,-0.04
2187730005,-0.85,-0.54,-0.04
2187732005,-0.85,-0.53,-0.03
2187734004,-0.85,-0.53,-0.03
2187736005,-0.85,-0.53,-0.03
2187737980,-0.85,-0.53,-0.03
2187739980,-0.85,-0.53,-0.03
2187741980,-0.85,-0.53,-0.03
2187743979,-0.85,-0.53,-0.03
2187745979,-0.85,-0.53,-0.03
2187747977,-0.85,-0.53,-0.03
2187749977,-0.85,-0.53,-0.03
2187751998,-0.85,-0.53,-0.02
2187753977,-0.85,-0.53,-0.02
2187755978,-0.85,-0.53,-0.02
2187757977,-0.85,-0.53,-0.02
2187760010,-0.85,-0.53,-0.02
2187762007,-0.85,-0.52,-0.02
2187764008,-0.85,-0.52,-0.02
2187766008,-0.85,-0.52,-0.02
2187768004,-0.85,-0.52,-0.02
2187770003,-0.85,-0.52,-0.02
2187771985,-0.85,-0.53,-0.04
2187773986,-0.85,-0.53,-0.04
2187776061,-0.85,-0.53,-0.04
2187778023,-0.85,-0.53,-0.04
2187779978,-0.85,-0.53,-0.04
2187781978,-0.84,-0.52,-0.03
2187783977,-0.84,-0.52,-0.03
2187785980,-0.84,-0.52,-0.03
2187787978,-0.84,-0.52,-0.03
2187789984,-0.84,-0.52,-0.03
2187791987,-0.84,-0.53,-0.02
2187793981,-0.84,-0.53,-0.02
2187795993,-0.84,-0.53,-0.02
2187797976,-0.84,-0.53,-0.02
2187800019,-0.84,-0.53,-0.02
2187802125,-0.84,-0.52,-0.03
2187804007,-0.84,-0.52,-0.03
2187806004,-0.84,-0.52,-0.03
2187808008,-0.84,-0.52,-0.03
2187810009,-0.84,-0.52,-0.03
2187812032,-0.85,-0.53,-0.04
2187814002,-0.85,-0.53,-0.04
2187815973,-0.85,-0.53,-0.04
2187817979,-0.85,-0.53,-0.04
2187820046,-0.85,-0.53,-0.04
2187822060,-0.85,-0.52,-0.04
2187824017,-0.85,-0.52,-0.04
2187826005,-0.85,-0.52,-0.04
2187827986,-0.85,-0.52,-0.04
2187829977,-0.85,-0.52,-0.04
2187831977,-0.86,-0.54,-0.02
2187833979,-0.86,-0.54,-0.02
2187835978,-0.86,-0.54,-0.02
2187837981,-0.86,-0.54,-0.02
2187840025,-0.86,-0.54,-0.02
2187842007,-0.84,-0.55,-0.02
2187844008,-0.84,-0.55,-0.02
2187846010,-0.84,-0.55,-0.02
2187848002,-0.84,-0.55,-0.02
2187850006,-0.84,-0.55,-0.02
2187852120,-0.84,-0.55,-0.00
2187853983,-0.84,-0.55,-0.00
2187855980,-0.84,-0.55,-0.00
2187857981,-0.84,-0.55,-0.00
2187859979,-0.84,-0.55,-0.00
2187861976,-0.83,-0.53,-0.02
2187863976,-0.83,-0.53,-0.02
2187865981,-0.83,-0.53,-0.02
2187867977,-0.83,-0.53,-0.02
2187869980,-0.83,-0.53,-0.02
2187872110,-0.86,-0.53,-0.03
2187874015,-0.86,-0.53,-0.03
2187876002,-0.86,-0.53,-0.03
2187877987,-0.86,-0.53,-0.03
2187880023,-0.86,-0.53,-0.03
2187882005,-0.85,-0.52,-0.03
2187884005,-0.85,-0.52,-0.03
2187886009,-0.85,-0.52,-0.03
2187888009,-0.85,-0.52,-0.03
2187890007,-0.85,-0.52,-0.03
2187892014,-0.86,-0.54,-0.03
2187893984,-0.86,-0.54,-0.03
2187895993,-0.86,-0.54,-0.03
2187897977,-0.86,-0.54,-0.03
2187899974,-0.86,-0.54,-0.03
2187902000,-0.84,-0.53,-0.05
2187903984,-0.84,-0.53,-0.05
2187905978,-0.84,-0.53,-0.05
2187907978,-0.84,-0.53,-0.05
2187909976,-0.84,-0.53,-0.05
2187911976,-0.84,-0.53,-0.05
2187913981,-0.85,-0.54,-0.04
2187916065,-0.85,-0.54,-0.04
2187918030,-0.85,-0.54,-0.04
2187920049,-0.85,-0.54,-0.04
2187922007,-0.85,-0.54,-0.04
2187924007,-0.84,-0.53,-0.05
2187926026,-0.84,-0.53,-0.05
2187928013,-0.84,-0.53,-0.05
2187930007,-0.84,-0.53,-0.05
2187932008,-0.84,-0.53,-0.05
2187933980,-0.85,-0.53,-0.05
2187935977,-0.85,-0.53,-0.05
2187937980,-0.85,-0.53,-0.05
2187939979,-0.85,-0.53,-0.05
2187941977,-0.85,-0.53,-0.05
2187943980,-0.84,-0.54,-0.05
2187945979,-0.84,-0.54,-0.05
2187947979,-0.84,-0.54,-0.05
2187949977,-0.84,-0.54,-0.05
2187951993,-0.84,-0.54,-0.05
2187953979,-0.84,-0.54,-0.05
2187955978,-0.84,-0.54,-0.05
2187957979,-0.84,-0.54,-0.05
2187960006,-0.84,-0.54,-0.05
2187962004,-0.84,-0.54,-0.05
2187964060,-0.84,-0.55,-0.05
2187966042,-0.84,-0.55,-0.05
2187968004,-0.84,-0.55,-0.05
2187970007,-0.84,-0.55,-0.05
2187972012,-0.84,-0.55,-0.05
2187974007,-0.84,-0.55,-0.05
2187976023,-0.84,-0.55,-0.05
2187977986,-0.84,-0.55,-0.05
2187979981,-0.84,-0.55,-0.05
2187981980,-0.84,-0.55,-0.05
2187983980,-0.83,-0.55,-0.05
2187985985,-0.83,-0.55,-0.05
2187987976,-0.83,-0.55,-0.05
2187989984,-0.83,-0.55,-0.05
2187991989,-0.83,-0.55,-0.05
2187993976,-0.83,-0.55,-0.05
2187995993,-0.83,-0.55,-0.05
2187997980,-0.83,-0.55,-0.05
2188000019,-0.83,-0.55,-0.05
2188002032,-0.83,-0.55,-0.05
2188004007,-0.84,-0.55,-0.05
2188006008,-0.84,-0.55,-0.05
2188008006,-0.84,-0.55,-0.05
2188010056,-0.84,-0.55,-0.05
2188012032,-0.84,-0.55,-0.05
2188014007,-0.84,-0.55,-0.04
2188016008,-0.84,-0.55,-0.04
2188018024,-0.84,-0.55,-0.04
2188020019,-0.84,-0.55,-0.04
2188021976,-0.84,-0.55,-0.04
2188023978,-0.84,-0.55,-0.04
2188026003,-0.84,-0.55,-0.04
2188027980,-0.84,-0.55,-0.04
2188029978,-0.84,-0.55,-0.04
2188031978,-0.84,-0.55,-0.04
2188033977,-0.84,-0.55,-0.04
2188035976,-0.84,-0.55,-0.04
2188037977,-0.84,-0.55,-0.04
2188040019,-0.84,-0.55,-0.04
2188042004,-0.84,-0.55,-0.04
2188044010,-0.84,-0.55,-0.04
2188046005,-0.84,-0.55,-0.04
2188048007,-0.84,-0.55,-0.04
2188050005,-0.84,-0.55,-0.04
2188052028,-0.84,-0.55,-0.04
2188053980,-0.84,-0.54,-0.04
2188055978,-0.84,-0.54,-0.04
2188057979,-0.84,-0.54,-0.04
2188059980,-0.84,-0.54,-0.04
2188061977,-0.84,-0.54,-0.04
2188063977,-0.84,-0.54,-0.03
2188065976,-0.84,-0.54,-0.03
2188067982,-0.84,-0.54,-0.03
2188069977,-0.84,-0.54,-0.03
2188071981,-0.84,-0.54,-0.03
2188073979,-0.85,-0.54,-0.03
2188076054,-0.85,-0.54,-0.03
2188078026,-0.85,-0.54,-0.03
2188080022,-0.85,-0.54,-0.03
2188082007,-0.85,-0.54,-0.03
2188084009,-0.85,-0.53,-0.03
2188086009,-0.85,-0.53,-0.03
2188088008,-0.85,-0.53,-0.03
2188090009,-0.85,-0.53,-0.03
2188092010,-0.85,-0.53,-0.03
2188093979,-0.85,-0.53,-0.03
2188095990,-0.85,-0.53,-0.02
2188097977,-0.85,-0.53,-0.02
2188099977,-0.85,-0.53,-0.02
2188102004,-0.85,-0.53,-0.02
2188103975,-0.85,-0.53,-0.02
2188105975,-0.86,-0.53,-0.02
2188107981,-0.86,-0.53,-0.02
2188109978,-0.86,-0.53,-0.02
2188111977,-0.86,-0.53,-0.02
2188113980,-0.86,-0.53,-0.02
2188115992,-0.86,-0.52,-0.03
2188117986,-0.86,-0.52,-0.03
2188120062,-0.86,-0.52,-0.03
2188122005,-0.86,-0.52,-0.03
2188124007,-0.86,-0.52,-0.03
2188126025,-0.85,-0.53,-0.04
2188128014,-0.85,-0.53,-0.04
2188130010,-0.85,-0.53,-0.04
2188132005,-0.85,-0.53,-0.04
2188134062,-0.85,-0.53,-0.04
2188136037,-0.85,-0.52,-0.02
2188137993,-0.85,-0.52,-0.02
2188139980,-0.85,-0.52,-0.02
2188141979,-0.85,-0.52,-0.02
2188143980,-0.85,-0.52,-0.02
2188145974,-0.85,-0.52,-0.02
2188147980,-0.85,-0.52,-0.02
2188149980,-0.85,-0.52,-0.02
2188152004,-0.85,-0.52,-0.02
2188153981,-0.85,-0.52,-0.02
2188155980,-0.85,-0.52,-0.02
2188157978,-0.85,-0.52,-0.02
2188160010,-0.85,-0.52,-0.02
2188162006,-0.85,-0.52,-0.02
2188164009,-0.85,-0.52,-0.02
2188166006,-0.85,-0.51,-0.01
2188168004,-0.85,-0.51,-0.01
2188170006,-0.85,-0.51,-0.01
2188172003,-0.85,-0.51,-0.01
2188173978,-0.85,-0.51,-0.01
2188175998,-0.85,-0.52,-0.02
2188177985,-0.85,-0.52,-0.02
2188180052,-0.85,-0.52,-0.02
2188182029,-0.85,-0.52,-0.02
2188183980,-0.85,-0.52,-0.02
2188185978,-0.85,-0.52,-0.02
2188187976,-0.85,-0.52,-0.02
2188189979,-0.85,-0.52,-0.02
2188191990,-0.85,-0.52,-0.02
2188193981,-0.85,-0.52,-0.02
2188195993,-0.84,-0.53,-0.04
2188197976,-0.84,-0.53,-0.04
2188200021,-0.84,-0.53,-0.04
2188202036,-0.84,-0.53,-0.04
2188204007,-0.84,-0.53,-0.04
2188206005,-0.85,-0.53,-0.03
2188208009,-0.85,-0.53,-0.03
2188210009,-0.85,-0.53,-0.03
2188212006,-0.85,-0.53,-0.03
2188213984,-0.85,-0.53,-0.03
2188215980,-0.85,-0.54,-0.02
2188217981,-0.85,-0.54,-0.02
2188220013,-0.85,-0.54,-0.02
2188222033,-0.85,-0.54,-0.02
2188223978,-0.85,-0.54,-0.02
2188226250,-0.85,-0.54,-0.02
2188228066,-0.85,-0.54,-0.02
2188230041,-0.85,-0.54,-0.02
2188232018,-0.85,-0.54,-0.02
2188233977,-0.85,-0.54,-0.02
2188235979,-0.85,-0.54,-0.04
2188237978,-0.85,-0.54,-0.04
2188240022,-0.85,-0.54,-0.04
2188242007,-0.85,-0.54,-0.04
2188244007,-0.85,-0.54,-0.04
2188246006,-0.84,-0.54,-0.04
2188248016,-0.84,-0.54,-0.04
2188250006,-0.84,-0.54,-0.04
2188252039,-0.84,-0.54,-0.04
2188253978,-0.84,-0.54,-0.04
2188255978,-0.84,-0.54,-0.03
2188257979,-0.84,-0.54,-0.03
2188259978,-0.84,-0.54,-0.03
2188261979,-0.84,-0.54,-0.03
2188263974,-0.84,-0.54,-0.03
2188265978,-0.84,-0.54,-0.02
2188267977,-0.84,-0.54,-0.02
2188269980,-0.84,-0.54,-0.02
2188271977,-0.84,-0.54,-0.02
2188273979,-0.84,-0.54,-0.02
2188275985,-0.85,-0.54,-0.04
2188277981,-0.85,-0.54,-0.04
2188280014,-0.85,-0.54,-0.04
2188282004,-0.85,-0.54,-0.04
2188284007,-0.85,-0.54,-0.04
2188286006,-0.84,-0.54,-0.03
2188288019,-0.84,-0.54,-0.03
2188290090,-0.84,-0.54,-0.03
2188292045,-0.84,-0.54,-0.03
2188294006,-0.84,-0.54,-0.03
2188295999,-0.84,-0.54,-0.03
2188297976,-0.84,-0.55,-0.04
2188299978,-0.84,-0.55,-0.04
2188302002,-0.84,-0.55,-0.04
2188303978,-0.84,-0.55,-0.04
2188305979,-0.84,-0.55,-0.04
2188307980,-0.84,-0.54,-0.05
2188309980,-0.84,-0.54,-0.05
2188311979,-0.84,-0.54,-0.05
2188313984,-0.84,-0.54,-0.05
2188315975,-0.84,-0.54,-0.05
2188317979,-0.84,-0.54,-0.05
2188320044,-0.84,-0.54,-0.05
2188322009,-0.84,-0.54,-0.05
2188324044,-0.84,-0.54,-0.05
2188326028,-0.84,-0.54,-0.05
2188328010,-0.84,-0.54,-0.05
2188330007,-0.84,-0.54,-0.05
2188332005,-0.84,-0.54,-0.05
2188334032,-0.84,-0.54,-0.05
2188336062,-0.84,-0.54,-0.05
2188338021,-0.84,-0.55,-0.06
2188339979,-0.84,-0.55,-0.06
2188341980,-0.84,-0.55,-0.06
2188343976,-0.84,-0.55,-0.06
2188345977,-0.84,-0.55,-0.06
2188347979,-0.84,-0.55,-0.05
2188349976,-0.84,-0.55,-0.05
2188351997,-0.84,-0.55,-0.05
2188353977,-0.84,-0.55,-0.05
2188355976,-0.84,-0.55,-0.05
2188357976,-0.83,-0.55,-0.05
2188360025,-0.83,-0.55,-0.05
2188362005,-0.83,-0.55,-0.05
2188364003,-0.83,-0.55,-0.05
2188366006,-0.83,-0.55,-0.05
2188368006,-0.84,-0.55,-0.04
2188370009,-0.84,-0.55,-0.04
2188372007,-0.84,-0.55,-0.04
2188373984,-0.84,-0.55,-0.04
2188376003,-0.84,-0.55,-0.04
2188377986,-0.84,-0.55,-0.05
2188379986,-0.84,-0.55,-0.05
2188382052,-0.84,-0.55,-0.05
2188384026,-0.84,-0.55,-0.05
2188385976,-0.84,-0.55,-0.05
2188387973,-0.84,-0.55,-0.04
2188389979,-0.84,-0.55,-0.04
2188391990,-0.84,-0.55,-0.04
2188393978,-0.84,-0.55,-0.04
2188395990,-0.84,-0.55,-0.04
2188397970,-0.84,-0.54,-0.05
2188400023,-0.84,-0.54,-0.05
2188402036,-0.84,-0.54,-0.05
2188404008,-0.84,-0.54,-0.05
2188406008,-0.84,-0.54,-0.05
2188408006,-0.84,-0.54,-0.04
2188410009,-0.84,-0.54,-0.04
2188412007,-0.84,-0.54,-0.04
2188413979,-0.84,-0.54,-0.04
2188415979,-0.84,-0.54,-0.04
2188417978,-0.84,-0.53,-0.03
2188420014,-0.84,-0.53,-0.03
2188421974,-0.84,-0.53,-0.03
2188423973,-0.84,-0.53,-0.03
2188426006,-0.84,-0.53,-0.03
2188428061,-0.86,-0.52,-0.03
2188430024,-0.86,-0.52,-0.03
2188431974,-0.86,-0.52,-0.03
2188433978,-0.86,-0.52,-0.03
2188435976,-0.86,-0.52,-0.03
2188437974,-0.86,-0.52,-0.04
2188440021,-0.86,-0.52,-0.04
2188442004,-0.86,-0.52,-0.04
2188444017,-0.86,-0.52,-0.04
2188446008,-0.86,-0.52,-0.04
2188448008,-0.86,-0.53,-0.04
2188450009,-0.86,-0.53,-0.04
2188452037,-0.86,-0.53,-0.04
2188453979,-0.86,-0.53,-0.04
2188455979,-0.86,-0.53,-0.04
2188457975,-0.84,-0.54,-0.03
2188459974,-0.84,-0.54,-0.03
2188461977,-0.84,-0.54,-0.03
2188463976,-0.84,-0.54,-0.03
2188465979,-0.84,-0.54,-0.03
2188467975,-0.84,-0.54,-0.02
2188469978,-0.84,-0.54,-0.02
2188471992,-0.84,-0.54,-0.02
2188473978,-0.84,-0.54,-0.02
2188476135,-0.84,-0.54,-0.02
2188478008,-0.84,-0.54,-0.02
2188480019,-0.84,-0.54,-0.02
2188482008,-0.84,-0.54,-0.02
2188484009,-0.84,-0.54,-0.02
2188486008,-0.84,-0.54,-0.02
2188488005,-0.84,-0.54,-0.02
2188490007,-0.84,-0.56,-0.02
2188492021,-0.84,-0.56,-0.02
2188493977,-0.84,-0.56,-0.02
2188495991,-0.84,-0.56,-0.02
2188497976,-0.84,-0.56,-0.02
2188499973,-0.85,-0.55,-0.02
2188501998,-0.85,-0.55,-0.02
2188503977,-0.85,-0.55,-0.02
2188505977,-0.85,-0.55,-0.02
2188507974,-0.85,-0.55,-0.02
2188509974,-0.86,-0.54,-0.04
2188511979,-0.86,-0.54,-0.04
2188513974,-0.86,-0.54,-0.04
2188515979,-0.86,-0.54,-0.04
2188517980,-0.86,-0.54,-0.04
2188520045,-0.84,-0.50,-0.05
2188522006,-0.84,-0.50,-0.05
2188524053,-0.84,-0.50,-0.05
2188526037,-0.84,-0.50,-0.05
2188528019,-0.84,-0.50,-0.05
2188530049,-0.85,-0.51,-0.04
2188532005,-0.85,-0.51,-0.04
2188534009,-0.85,-0.51,-0.04
2188536010,-0.85,-0.51,-0.04
2188538010,-0.85,-0.51,-0.04
2188539976,-0.85,-0.52,-0.02
2188541979,-0.85,-0.52,-0.02
2188543979,-0.85,-0.52,-0.02
2188545979,-0.85,-0.52,-0.02
2188547980,-0.85,-0.52,-0.02
2188549980,-0.85,-0.54,-0.01
2188552002,-0.85,-0.54,-0.01
2188553976,-0.85,-0.54,-0.01
2188555974,-0.85,-0.54,-0.01
2188557978,-0.85,-0.54,-0.01
2188560018,-0.84,-0.54,-0.02
2188562006,-0.84,-0.54,-0.02
2188564007,-0.84,-0.54,-0.02
2188566006,-0.84,-0.54,-0.02
2188568007,-0.84,-0.54,-0.02
2188570005,-0.84,-0.55,-0.03
2188572005,-0.84,-0.55,-0.03
2188573979,-0.84,-0.55,-0.03
2188576004,-0.84,-0.55,-0.03
2188577983,-0.84,-0.55,-0.03
2188579980,-0.84,-0.54,-0.03
2188581980,-0.84,-0.54,-0.03
2188583979,-0.84,-0.54,-0.03
2188586063,-0.84,-0.54,-0.03
2188588019,-0.84,-0.54,-0.03
2188589980,-0.84,-0.52,-0.02
2188591989,-0.84,-0.52,-0.02
2188593980,-0.84,-0.52,-0.02
2188595988,-0.84,-0.52,-0.02
2188597974,-0.84,-0.52,-0.02
2188600022,-0.85,-0.52,-0.02
2188602042,-0.85,-0.52,-0.02
2188604008,-0.85,-0.52,-0.02
2188606009,-0.85,-0.52,-0.02
2188608007,-0.85,-0.52,-0.02
2188610009,-0.85,-0.52,-0.01
2188612006,-0.85,-0.52,-0.01
2188613978,-0.85,-0.52,-0.01
2188615979,-0.85,-0.52,-0.01
2188617986,-0.85,-0.52,-0.01
2188620014,-0.85,-0.53,-0.02
2188622052,-0.85,-0.53,-0.02
2188623977,-0.85,-0.53,-0.02
2188626090,-0.85,-0.53,-0.02
2188627991,-0.85,-0.53,-0.02
2188629977,-0.85,-0.53,-0.03
2188632032,-0.85,-0.53,-0.03
2188634107,-0.85,-0.53,-0.03
2188636011,-0.85,-0.53,-0.03
2188637980,-0.85,-0.53,-0.03
2188640027,-0.85,-0.53,-0.03
2188642008,-0.85,-0.53,-0.03
2188644004,-0.85,-0.53,-0.03
2188646011,-0.85,-0.53,-0.03
2188648006,-0.85,-0.53,-0.03
2188650006,-0.85,-0.53,-0.02
2188652127,-0.85,-0.53,-0.02
2188653978,-0.85,-0.53,-0.02
2188655980,-0.85,-0.53,-0.02
2188657977,-0.85,-0.53,-0.02
2188659978,-0.84,-0.53,-0.03
2188661979,-0.84,-0.53,-0.03
2188663976,-0.84,-0.53,-0.03
2188665978,-0.84,-0.53,-0.03
2188667979,-0.84,-0.53,-0.03
2188669976,-0.84,-0.53,-0.03
2188671980,-0.85,-0.52,-0.02
2188673979,-0.85,-0.52,-0.02
2188676051,-0.85,-0.52,-0.02
2188677987,-0.85,-0.52,-0.02
2188680014,-0.85,-0.52,-0.02
2188682007,-0.85,-0.52,-0.02
2188684006,-0.85,-0.52,-0.02
2188686005,-0.85,-0.52,-0.02
2188688008,-0.85,-0.52,-0.02
2188690006,-0.85,-0.52,-0.02
2188692007,-0.85,-0.52,-0.02
2188693977,-0.85,-0.52,-0.02
2188695992,-0.85,-0.52,-0.02
2188697976,-0.85,-0.52,-0.02
2188700068,-0.85,-0.52,-0.02
2188702131,-0.84,-0.53,-0.06
2188703976,-0.84,-0.53,-0.06
2188705985,-0.84,-0.53,-0.06
2188707977,-0.84,-0.53,-0.06
2188709975,-0.84,-0.53,-0.06
2188711976,-0.84,-0.54,-0.02
2188713976,-0.84,-0.54,-0.02
2188715978,-0.84,-0.54,-0.02
2188717980,-0.84,-0.54,-0.02
2188720051,-0.84,-0.54,-0.02
2188722012,-0.83,-0.55,-0.03
2188724006,-0.83,-0.55,-0.03
2188726109,-0.83,-0.55,-0.03
2188728014,-0.83,-0.55,-0.03
2188730008,-0.83,-0.55,-0.03
2188732008,-0.85,-0.52,-0.04
2188734026,-0.85,-0.52,-0.04
2188735977,-0.85,-0.52,-0.04
2188737977,-0.85,-0.52,-0.04
2188739978,-0.85,-0.52,-0.04
2188741977,-0.84,-0.54,-0.04
2188743980,-0.84,-0.54,-0.04
2188745973,-0.84,-0.54,-0.04
2188747977,-0.84,-0.54,-0.04
2188749975,-0.84,-0.54,-0.04
2188752085,-0.84,-0.54,-0.02
2188753979,-0.84,-0.54,-0.02
2188755982,-0.84,-0.54,-0.02
2188758081,-0.84,-0.54,-0.02
2188760040,-0.84,-0.54,-0.02
2188762007,-0.84,-0.55,-0.05
2188764006,-0.84,-0.55,-0.05
2188766006,-0.84,-0.55,-0.05
2188768007,-0.84,-0.55,-0.05
2188770007,-0.84,-0.55,-0.05
2188772015,-0.86,-0.53,-0.01
2188773985,-0.86,-0.53,-0.01
2188776095,-0.86,-0.53,-0.01
2188777989,-0.86,-0.53,-0.01
2188779984,-0.86,-0.53,-0.01
2188781979,-0.83,-0.54,-0.03
2188783981,-0.83,-0.54,-0.03
2188785979,-0.83,-0.54,-0.03
2188787979,-0.83,-0.54,-0.03
2188789979,-0.83,-0.54,-0.03
2188791989,-0.84,-0.55,-0.07
2188793979,-0.84,-0.55,-0.07
2188795992,-0.84,-0.55,-0.07
2188797976,-0.84,-0.55,-0.07
2188800019,-0.84,-0.55,-0.07
2188802112,-0.83,-0.55,-0.03
2188804047,-0.83,-0.55,-0.03
2188806034,-0.83,-0.55,-0.03
2188808016,-0.83,-0.55,-0.03
2188810004,-0.83,-0.55,-0.03
2188812008,-0.84,-0.55,-0.02
2188814008,-0.84,-0.55,-0.02
2188816011,-0.84,-0.55,-0.02
2188817983,-0.84,-0.55,-0.02
2188820015,-0.84,-0.55,-0.02
2188821975,-0.84,-0.52,-0.05
2188823981,-0.84,-0.52,-0.05
2188826098,-0.84,-0.52,-0.05
2188827986,-0.84,-0.52,-0.05
2188829977,-0.84,-0.52,-0.05
2188831979,-0.85,-0.54,-0.04
2188833974,-0.85,-0.54,-0.04
2188835977,-0.85,-0.54,-0.04
2188837981,-0.85,-0.54,-0.04
2188840027,-0.85,-0.54,-0.04
2188842039,-0.83,-0.53,-0.02
2188844005,-0.83,-0.53,-0.02
2188846002,-0.83,-0.53,-0.02
2188848006,-0.83,-0.53,-0.02
2188850006,-0.83,-0.53,-0.02
2188852122,-0.84,-0.56,-0.05
2188853980,-0.84,-0.56,-0.05
2188855977,-0.84,-0.56,-0.05
2188857993,-0.84,-0.56,-0.05
2188860070,-0.84,-0.56,-0.05
2188862012,-0.84,-0.56,-0.05
2188863978,-0.83,-0.55,-0.04
2188865978,-0.83,-0.55,-0.04
2188867979,-0.83,-0.55,-0.04
2188869979,-0.83,-0.55,-0.04
2188871979,-0.83,-0.55,-0.04
2188873980,-0.84,-0.55,-0.03
2188876087,-0.84,-0.55,-0.03
2188877989,-0.84,-0.55,-0.03
2188880025,-0.84,-0.55,-0.03
2188882004,-0.84,-0.55,-0.03
2188884002,-0.84,-0.54,-0.03
2188886006,-0.84,-0.54,-0.03
2188888005,-0.84,-0.54,-0.03
2188890005,-0.84,-0.54,-0.03
2188892009,-0.84,-0.54,-0.03
2188893977,-0.85,-0.52,-0.03
2188895991,-0.85,-0.52,-0.03
2188897974,-0.85,-0.52,-0.03
2188899979,-0.85,-0.52,-0.03
2188902087,-0.85,-0.52,-0.03
2188903980,-0.86,-0.52,-0.03
2188905974,-0.86,-0.52,-0.03
2188907981,-0.86,-0.52,-0.03
2188909979,-0.86,-0.52,-0.03
2188911977,-0.86,-0.52,-0.03
2188913978,-0.84,-0.52,-0.02
2188915974,-0.84,-0.52,-0.02
2188918066,-0.84,-0.52,-0.02
2188920045,-0.84,-0.52,-0.02
2188922018,-0.84,-0.52,-0.02
2188924004,-0.85,-0.53,-0.02
2188926114,-0.85,-0.53,-0.02
2188928011,-0.85,-0.53,-0.02
2188930011,-0.85,-0.53,-0.02
2188932009,-0.85,-0.53,-0.02
2188934006,-0.84,-0.53,-0.03
2188935981,-0.84,-0.53,-0.03
2188938002,-0.84,-0.53,-0.03
2188940025,-0.84,-0.53,-0.03
2188941980,-0.84,-0.53,-0.03
2188943977,-0.84,-0.54,-0.03
2188945977,-0.84,-0.54,-0.03
2188947977,-0.84,-0.54,-0.03
2188949976,-0.84,-0.54,-0.03
2188952084,-0.84,-0.54,-0.03
2188953980,-0.84,-0.53,-0.02
2188955976,-0.84,-0.53,-0.02
2188957977,-0.84,-0.53,-0.02
2188960024,-0.84,-0.53,-0.02
2188962006,-0.84,-0.53,-0.02
2188964006,-0.84,-0.53,-0.02
2188966005,-0.84,-0.53,-0.02
2188968012,-0.84,-0.53,-0.02
2188970009,-0.84,-0.53,-0.02
2188972014,-0.84,-0.53,-0.02
2188973973,-0.85,-0.54,-0.03
2188976099,-0.85,-0.54,-0.03
2188978062,-0.85,-0.54,-0.03
2188980025,-0.85,-0.54,-0.03
2188981976,-0.85,-0.54,-0.03
2188983976,-0.84,-0.53,-0.03
2188985979,-0.84,-0.53,-0.03
2188987976,-0.84,-0.53,-0.03
2188989979,-0.84,-0.53,-0.03
2188991990,-0.84,-0.53,-0.03
2188993980,-0.84,-0.54,-0.02
2188995988,-0.84,-0.54,-0.02
2188997977,-0.84,-0.54,-0.02
2189000022,-0.84,-0.54,-0.02
2189002122,-0.84,-0.54,-0.02
2189004004,-0.84,-0.53,-0.03
2189006006,-0.84,-0.53,-0.03
2189008009,-0.84,-0.53,-0.03
2189010006,-0.84,-0.53,-0.03
2189012010,-0.84,-0.53,-0.03
2189013981,-0.84,-0.54,-0.05
2189015980,-0.84,-0.54,-0.05
2189017981,-0.84,-0.54,-0.05
2189020015,-0.84,-0.54,-0.05
2189021978,-0.84,-0.54,-0.05
2189023976,-0.84,-0.54,-0.05
2189026082,-0.84,-0.54,-0.05
2189027987,-0.84,-0.54,-0.05
2189029979,-0.84,-0.54,-0.05
2189031978,-0.84,-0.54,-0.05
2189033981,-0.85,-0.54,-0.04
2189035984,-0.85,-0.54,-0.04
2189037979,-0.85,-0.54,-0.04
2189040019,-0.85,-0.54,-0.04
2189042069,-0.85,-0.54,-0.04
2189044040,-0.84,-0.53,-0.04
2189046013,-0.84,-0.53,-0.04
2189048008,-0.84,-0.53,-0.04
2189050004,-0.84,-0.53,-0.04
2189052123,-0.84,-0.53,-0.04
2189054008,-0.84,-0.53,-0.04
2189056014,-0.84,-0.53,-0.02
2189057976,-0.84,-0.53,-0.02
2189059977,-0.84,-0.53,-0.02
2189061979,-0.84,-0.53,-0.02
2189063979,-0.84,-0.53,-0.02
2189065979,-0.85,-0.54,-0.02
2189067980,-0.85,-0.54,-0.02
2189069979,-0.85,-0.54,-0.02
2189071976,-0.85,-0.54,-0.02
2189073981,-0.85,-0.54,-0.02
2189076079,-0.86,-0.53,-0.01
2189077988,-0.86,-0.53,-0.01
2189080011,-0.86,-0.53,-0.01
2189082007,-0.86,-0.53,-0.01
2189084005,-0.86,-0.53,-0.01
2189086009,-0.85,-0.53,0.00
2189088009,-0.85,-0.53,0.00
2189090009,-0.85,-0.53,0.00
2189091991,-0.85,-0.53,0.00
2189093979,-0.85,-0.53,0.00
2189095989,-0.85,-0.53,-0.01
2189097977,-0.85,-0.53,-0.01
2189099988,-0.85,-0.53,-0.01
2189102174,-0.85,-0.53,-0.01
2189104022,-0.85,-0.53,-0.01
2189105976,-0.84,-0.54,-0.02
2189107978,-0.84,-0.54,-0.02
2189109974,-0.84,-0.54,-0.02
2189111976,-0.84,-0.54,-0.02
2189113977,-0.84,-0.54,-0.02
2189115977,-0.84,-0.54,-0.03
2189117976,-0.84,-0.54,-0.03
2189120052,-0.84,-0.54,-0.03
2189122004,-0.84,-0.54,-0.03
2189124008,-0.84,-0.54,-0.03
2189126115,-0.84,-0.53,-0.04
2189128012,-0.84,-0.53,-0.04
2189130004,-0.84,-0.53,-0.04
2189132009,-0.84,-0.53,-0.04
2189133978,-0.84,-0.53,-0.04
2189135976,-0.84,-0.52,-0.04
2189137980,-0.84,-0.52,-0.04
2189139981,-0.84,-0.52,-0.04
2189141980,-0.84,-0.52,-0.04
2189144028,-0.84,-0.52,-0.04
2189145976,-0.85,-0.52,-0.04
2189147978,-0.85,-0.52,-0.04
2189150105,-0.85,-0.52,-0.04
2189152127,-0.85,-0.52,-0.04
2189153976,-0.85,-0.52,-0.04
2189155978,-0.85,-0.53,-0.04
2189157974,-0.85,-0.53,-0.04
2189160022,-0.85,-0.53,-0.04
2189162004,-0.85,-0.53,-0.04
2189164007,-0.85,-0.53,-0.04
2189166006,-0.85,-0.53,-0.03
2189168010,-0.85,-0.53,-0.03
2189170007,-0.85,-0.53,-0.03
2189172006,-0.85,-0.53,-0.03
2189173984,-0.85,-0.53,-0.03
2189176084,-0.86,-0.52,-0.01
2189177990,-0.86,-0.52,-0.01
2189179979,-0.86,-0.52,-0.01
2189181977,-0.86,-0.52,-0.01
2189183976,-0.86,-0.52,-0.01
2189185976,-0.85,-0.52,-0.02
2189187980,-0.85,-0.52,-0.02
2189189983,-0.85,-0.52,-0.02
2189191989,-0.85,-0.52,-0.02
2189193980,-0.85,-0.52,-0.02
2189195990,-0.83,-0.54,-0.03
2189197977,-0.83,-0.54,-0.03
2189200019,-0.83,-0.54,-0.03
2189202111,-0.83,-0.54,-0.03
2189204004,-0.83,-0.54,-0.03
2189206004,-0.83,-0.54,-0.03
2189208007,-0.83,-0.54,-0.03
2189210052,-0.83,-0.54,-0.03
2189212045,-0.83,-0.54,-0.03
2189214013,-0.83,-0.54,-0.03
2189215994,-0.84,-0.56,-0.04
2189217982,-0.84,-0.56,-0.04
2189220017,-0.84,-0.56,-0.04
2189221993,-0.84,-0.56,-0.04
2189223976,-0.84,-0.56,-0.04
2189226093,-0.84,-0.56,-0.05
2189227987,-0.84,-0.56,-0.05
2189229979,-0.84,-0.56,-0.05
2189231981,-0.84,-0.56,-0.05
2189233976,-0.84,-0.56,-0.05
2189235976,-0.84,-0.56,-0.05
2189237978,-0.85,-0.55,-0.04
2189240020,-0.85,-0.55,-0.04
2189242003,-0.85,-0.55,-0.04
2189244005,-0.85,-0.55,-0.04
2189246052,-0.85,-0.55,-0.04
2189248013,-0.85,-0.55,-0.04
2189250008,-0.85,-0.55,-0.04
2189252114,-0.85,-0.55,-0.04
2189253978,-0.85,-0.55,-0.04
2189255977,-0.85,-0.55,-0.04
2189258055,-0.84,-0.54,-0.04
2189260024,-0.84,-0.54,-0.04
2189261977,-0.84,-0.54,-0.04
2189263975,-0.84,-0.54,-0.04
2189265980,-0.84,-0.54,-0.04
2189267975,-0.84,-0.54,-0.04
2189269976,-0.84,-0.54,-0.04
2189271976,-0.84,-0.54,-0.04
2189273979,-0.84,-0.54,-0.04
2189276088,-0.84,-0.54,-0.04
2189277987,-0.83,-0.55,-0.03
2189280023,-0.83,-0.55,-0.03
2189282006,-0.83,-0.55,-0.03
2189284007,-0.83,-0.55,-0.03
2189286008,-0.83,-0.55,-0.03
2189288008,-0.84,-0.55,-0.04
2189290008,-0.84,-0.55,-0.04
2189292013,-0.84,-0.55,-0.04
2189293980,-0.84,-0.55,-0.04
2189295995,-0.84,-0.55,-0.04
2189297974,-0.84,-0.54,-0.03
2189299976,-0.84,-0.54,-0.03
2189302083,-0.84,-0.54,-0.03
2189303998,-0.84,-0.54,-0.03
2189306117,-0.84,-0.54,-0.03
2189308017,-0.85,-0.54,-0.03
2189309976,-0.85,-0.54,-0.03
2189311976,-0.85,-0.54,-0.03
2189313977,-0.85,-0.54,-0.03
2189315975,-0.85,-0.54,-0.03
2189317981,-0.85,-0.53,-0.02
2189320051,-0.85,-0.53,-0.02
2189322007,-0.85,-0.53,-0.02
2189324007,-0.85,-0.53,-0.02
2189326114,-0.85,-0.53,-0.02
2189328011,-0.84,-0.53,-0.01
2189330007,-0.84,-0.53,-0.01
2189332007,-0.84,-0.53,-0.01
2189333979,-0.84,-0.53,-0.01
2189335980,-0.84,-0.53,-0.01
2189337979,-0.84,-0.53,-0.02
2189339979,-0.84,-0.53,-0.02
2189341977,-0.84,-0.53,-0.02
2189343984,-0.84,-0.53,-0.02
2189345975,-0.84,-0.53,-0.02
2189348027,-0.84,-0.53,-0.03
2189350026,-0.84,-0.53,-0.03
2189352154,-0.84,-0.53,-0.03
2189353997,-0.84,-0.53,-0.03
2189355978,-0.84,-0.53,-0.03
2189357979,-0.84,-0.53,-0.03
2189360027,-0.84,-0.53,-0.03
2189362005,-0.84,-0.53,-0.03
2189364007,-0.84,-0.53,-0.03
2189366006,-0.84,-0.53,-0.03
2189368005,-0.86,-0.53,-0.03
2189370008,-0.86,-0.53,-0.03
2189372009,-0.86,-0.53,-0.03
2189373980,-0.86,-0.53,-0.03
2189376083,-0.86,-0.53,-0.03
2189377987,-0.86,-0.52,-0.02
2189379979,-0.86,-0.52,-0.02
2189381980,-0.86,-0.52,-0.02
2189383980,-0.86,-0.52,-0.02
2189385980,-0.86,-0.52,-0.02
2189387978,-0.85,-0.53,-0.01
2189389983,-0.85,-0.53,-0.01
2189391988,-0.85,-0.53,-0.01
2189393979,-0.85,-0.53,-0.01
2189395993,-0.85,-0.53,-0.01
2189398111,-0.85,-0.53,-0.02
2189400041,-0.85,-0.53,-0.02
2189402122,-0.85,-0.53,-0.02
2189404005,-0.85,-0.53,-0.02
2189406009,-0.85,-0.53,-0.02
2189408006,-0.84,-0.53,-0.03
2189410009,-0.84,-0.53,-0.03
2189412007,-0.84,-0.53,-0.03
2189414005,-0.84,-0.53,-0.03
2189415978,-0.84,-0.53,-0.03
2189417982,-0.84,-0.52,-0.02
2189420008,-0.84,-0.52,-0.02
2189421978,-0.84,-0.52,-0.02
2189423976,-0.84,-0.52,-0.02
2189426088,-0.84,-0.52,-0.02
2189427989,-0.84,-0.52,-0.02
2189429976,-0.84,-0.52,-0.01
2189431979,-0.84,-0.52,-0.01
2189433979,-0.84,-0.52,-0.01
2189435979,-0.84,-0.52,-0.01
2189437975,-0.84,-0.52,-0.01
2189440019,-0.85,-0.54,-0.03
2189442007,-0.85,-0.54,-0.03
2189444064,-0.85,-0.54,-0.03
2189446045,-0.85,-0.54,-0.03
2189448010,-0.85,-0.54,-0.03
2189450030,-0.86,-0.53,-0.04
2189452162,-0.86,-0.53,-0.04
2189454004,-0.86,-0.53,-0.04
2189456015,-0.86,-0.53,-0.04
2189457974,-0.86,-0.53,-0.04
2189459979,-0.86,-0.53,-0.02
2189461978,-0.86,-0.53,-0.02
2189463980,-0.86,-0.53,-0.02
2189465979,-0.86,-0.53,-0.02
2189467980,-0.86,-0.53,-0.02
2189469983,-0.84,-0.54,-0.04
2189471993,-0.84,-0.54,-0.04
2189473976,-0.84,-0.54,-0.04
2189476078,-0.84,-0.54,-0.04
2189477990,-0.84,-0.54,-0.04
2189480014,-0.85,-0.54,-0.04
2189482009,-0.85,-0.54,-0.04
2189484010,-0.85,-0.54,-0.04
2189486008,-0.85,-0.54,-0.04
2189488005,-0.85,-0.54,-0.04
2189490066,-0.84,-0.55,-0.03
2189492049,-0.84,-0.55,-0.03
2189494012,-0.84,-0.55,-0.03
2189495999,-0.84,-0.55,-0.03
2189497976,-0.84,-0.55,-0.03
2189499977,-0.84,-0.54,-0.05
2189502091,-0.84,-0.54,-0.05
2189503976,-0.84,-0.54,-0.05
2189505979,-0.84,-0.54,-0.05
2189507977,-0.84,-0.54,-0.05
2189509978,-0.84,-0.52,-0.02
2189511974,-0.84,-0.52,-0.02
2189513975,-0.84,-0.52,-0.02
2189515978,-0.84,-0.52,-0.02
2189517983,-0.84,-0.52,-0.02
2189520047,-0.84,-0.53,-0.02
2189522008,-0.84,-0.53,-0.02
2189524007,-0.84,-0.53,-0.02
2189526109,-0.84,-0.53,-0.02
2189528011,-0.84,-0.53,-0.02
2189530002,-0.84,-0.54,-0.03
2189532007,-0.84,-0.54,-0.03
2189533977,-0.84,-0.54,-0.03
2189535976,-0.84,-0.54,-0.03
2189538139,-0.84,-0.54,-0.03
2189540014,-0.85,-0.55,-0.02
2189541977,-0.85,-0.55,-0.02
2189543977,-0.85,-0.55,-0.02
2189545974,-0.85,-0.55,-0.02
2189547979,-0.85,-0.55,-0.02
2189549976,-0.84,-0.54,-0.02
2189552095,-0.84,-0.54,-0.02
2189554019,-0.84,-0.54,-0.02
2189555975,-0.84,-0.54,-0.02
2189557983,-0.84,-0.54,-0.02
2189560028,-0.84,-0.54,-0.04
2189562007,-0.84,-0.54,-0.04
2189564003,-0.84,-0.54,-0.04
2189566005,-0.84,-0.54,-0.04
2189568010,-0.84,-0.54,-0.04
2189570006,-0.83,-0.55,-0.04
2189572006,-0.83,-0.55,-0.04
2189573979,-0.83,-0.55,-0.04
2189576087,-0.83,-0.55,-0.04
2189577988,-0.83,-0.55,-0.04
2189579979,-0.83,-0.54,-0.04
2189581990,-0.83,-0.54,-0.04
2189584096,-0.83,-0.54,-0.04
2189586016,-0.83,-0.54,-0.04
2189587977,-0.83,-0.54,-0.04
2189589981,-0.84,-0.54,-0.04
2189591988,-0.84,-0.54,-0.04
2189593980,-0.84,-0.54,-0.04
2189595987,-0.84,-0.54,-0.04
2189597975,-0.84,-0.54,-0.04
2189600025,-0.85,-0.53,-0.04
2189602121,-0.85,-0.53,-0.04
2189604004,-0.85,-0.53,-0.04
2189606011,-0.85,-0.53,-0.04
2189608003,-0.85,-0.53,-0.04
2189610008,-0.85,-0.54,-0.04
2189612005,-0.85,-0.54,-0.04
2189613976,-0.85,-0.54,-0.04
2189615979,-0.85,-0.54,-0.04
2189617980,-0.85,-0.54,-0.04
2189620011,-0.85,-0.54,-0.04
2189622057,-0.85,-0.54,-0.04
2189623982,-0.85,-0.54,-0.04
2189626084,-0.85,-0.54,-0.04
2189627990,-0.85,-0.54,-0.04
2189630009,-0.85,-0.54,-0.04
2189632050,-0.85,-0.54,-0.03
2189634012,-0.85,-0.54,-0.03
2189635979,-0.85,-0.54,-0.03
2189637977,-0.85,-0.54,-0.03
2189640022,-0.85,-0.54,-0.03
2189642007,-0.84,-0.54,-0.03
2189644003,-0.84,-0.54,-0.03
2189646006,-0.84,-0.54,-0.03
2189648009,-0.84,-0.54,-0.03
2189650007,-0.84,-0.54,-0.03
2189652120,-0.84,-0.53,-0.03
2189653985,-0.84,-0.53,-0.03
2189656028,-0.84,-0.53,-0.03
2189657975,-0.84,-0.53,-0.03
2189659974,-0.84,-0.53,-0.03
2189661975,-0.83,-0.54,-0.03
2189663977,-0.83,-0.54,-0.03
2189665977,-0.83,-0.54,-0.03
2189667977,-0.83,-0.54,-0.03
2189669979,-0.83,-0.54,-0.03
2189671974,-0.84,-0.54,-0.04
2189673976,-0.84,-0.54,-0.04
2189676069,-0.84,-0.54,-0.04
2189677987,-0.84,-0.54,-0.04
2189680020,-0.84,-0.54,-0.04
2189682006,-0.84,-0.55,-0.03
2189684005,-0.84,-0.55,-0.03
2189686007,-0.84,-0.55,-0.03
2189688004,-0.84,-0.55,-0.03
2189690049,-0.84,-0.55,-0.03
2189692037,-0.84,-0.55,-0.03
2189694017,-0.84,-0.55,-0.03
2189696013,-0.84,-0.55,-0.03
2189697979,-0.84,-0.55,-0.03
2189699980,-0.84,-0.55,-0.03
2189702090,-0.84,-0.54,-0.03
2189703981,-0.84,-0.54,-0.03
2189705977,-0.84,-0.54,-0.03
2189707977,-0.84,-0.54,-0.03
2189709980,-0.84,-0.54,-0.03
2189711979,-0.84,-0.55,-0.04
2189713979,-0.84,-0.55,-0.04
2189715976,-0.84,-0.55,-0.04
2189717981,-0.84,-0.55,-0.04
2189720049,-0.84,-0.55,-0.04
2189722012,-0.85,-0.54,-0.03
2189724008,-0.85,-0.54,-0.03
2189726106,-0.85,-0.54,-0.03
2189728015,-0.85,-0.54,-0.03
2189730003,-0.85,-0.54,-0.03
2189732009,-0.85,-0.52,-0.02
2189733980,-0.85,-0.52,-0.02
2189735981,-0.85,-0.52,-0.02
2189738067,-0.85,-0.52,-0.02
2189740022,-0.85,-0.52,-0.02
2189741978,-0.84,-0.52,-0.02
2189743978,-0.84,-0.52,-0.02
2189745975,-0.84,-0.52,-0.02
2189747975,-0.84,-0.52,-0.02
2189749979,-0.84,-0.52,-0.02
2189752095,-0.84,-0.52,-0.03
2189753977,-0.84,-0.52,-0.03
2189755979,-0.84,-0.52,-0.03
2189758011,-0.84,-0.52,-0.03
2189760025,-0.84,-0.52,-0.03
2189762010,-0.85,-0.52,-0.02
2189764008,-0.85,-0.52,-0.02
2189766006,-0.85,-0.52,-0.02
2189768006,-0.85,-0.52,-0.02
2189770009,-0.85,-0.52,-0.02
2189772007,-0.85,-0.52,-0.02
2189773980,-0.85,-0.52,-0.02
2189776085,-0.85,-0.52,-0.02
2189777987,-0.85,-0.52,-0.02
2189779977,-0.85,-0.52,-0.02
2189781979,-0.86,-0.52,-0.02
2189783981,-0.86,-0.52,-0.02
2189786094,-0.86,-0.52,-0.02
2189788013,-0.86,-0.52,-0.02
2189789977,-0.86,-0.52,-0.02
2189791990,-0.86,-0.53,-0.02
2189793980,-0.86,-0.53,-0.02
2189795987,-0.86,-0.53,-0.02
2189797977,-0.86,-0.53,-0.02
2189800020,-0.86,-0.53,-0.02
2189802122,-0.86,-0.52,-0.02
2189804004,-0.86,-0.52,-0.02
2189806012,-0.86,-0.52,-0.02
2189808008,-0.86,-0.52,-0.02
2189810005,-0.86,-0.52,-0.02
2189812009,-0.86,-0.52,-0.02
2189813979,-0.85,-0.53,-0.01
2189815980,-0.85,-0.53,-0.01
2189817981,-0.85,-0.53,-0.01
2189820009,-0.85,-0.53,-0.01
2189821980,-0.85,-0.53,-0.01
2189823979,-0.84,-0.53,-0.02
2189826084,-0.84,-0.53,-0.02
2189827988,-0.84,-0.53,-0.02
2189829977,-0.84,-0.53,-0.02
2189832129,-0.84,-0.53,-0.02
2189834018,-0.84,-0.54,-0.01
2189835975,-0.84,-0.54,-0.01
2189837981,-0.84,-0.54,-0.01
2189840026,-0.84,-0.54,-0.01
2189842004,-0.84,-0.54,-0.01
2189844007,-0.83,-0.53,-0.01
2189846004,-0.83,-0.53,-0.01
2189848005,-0.83,-0.53,-0.01
2189850008,-0.83,-0.53,-0.01
2189852125,-0.83,-0.53,-0.01
2189853984,-0.84,-0.53,-0.01
2189855981,-0.84,-0.53,-0.01
2189857980,-0.84,-0.53,-0.01
2189860024,-0.84,-0.53,-0.01
2189862001,-0.84,-0.53,-0.01
2189863979,-0.85,-0.54,0.00
2189865979,-0.85,-0.54,0.00
2189867973,-0.85,-0.54,0.00
2189869977,-0.85,-0.54,0.00
2189871979,-0.85,-0.54,0.00
2189873977,-0.85,-0.54,-0.00
2189876069,-0.85,-0.54,-0.00
2189878039,-0.85,-0.54,-0.00
2189880030,-0.85,-0.54,-0.00
2189882020,-0.85,-0.54,-0.00
2189884008,-0.88,-0.51,0.01
2189886008,-0.88,-0.51,0.01
2189888008,-0.88,-0.51,0.01
2189890007,-0.88,-0.51,0.01
2189892011,-0.88,-0.51,0.01
2189894006,-0.91,-0.58,-0.10
2189895991,-0.91,-0.58,-0.10
2189897975,-0.91,-0.58,-0.10
2189899977,-0.91,-0.58,-0.10
2189902096,-0.91,-0.58,-0.10
2189903976,-0.89,-0.53,-0.09
2189905976,-0.89,-0.53,-0.09
2189907976,-0.89,-0.53,-0.09
2189909976,-0.89,-0.53,-0.09
2189911976,-0.89,-0.53,-0.09
2189913976,-0.82,-0.51,0.03
2189915976,-0.82,-0.51,0.03
2189917979,-0.82,-0.51,0.03
2189920052,-0.82,-0.51,0.03
2189922005,-0.82,-0.51,0.03
2189924008,-0.88,-0.55,-0.14
2189926109,-0.88,-0.55,-0.14
2189928011,-0.88,-0.55,-0.14
2189930004,-0.88,-0.55,-0.14
2189932011,-0.88,-0.55,-0.14
2189933981,-0.90,-0.52,-0.03
2189935978,-0.90,-0.52,-0.03
2189937979,-0.90,-0.52,-0.03
2189939979,-0.90,-0.52,-0.03
2189941979,-0.90,-0.52,-0.03
2189943976,-0.91,-0.55,-0.08
2189945976,-0.91,-0.55,-0.08
2189947981,-0.91,-0.55,-0.08
2189949976,-0.91,-0.55,-0.08
2189952083,-0.91,-0.55,-0.08
2189953973,-0.97,-0.58,-0.07
2189955975,-0.97,-0.58,-0.07
2189957972,-0.97,-0.58,-0.07
2189960012,-0.97,-0.58,-0.07
2189962009,-0.97,-0.58,-0.07
2189964006,-0.91,-0.54,-0.15
2189966069,-0.91,-0.54,-0.15
2189968031,-0.91,-0.54,-0.15
2189970009,-0.91,-0.54,-0.15
2189972016,-0.91,-0.54,-0.15
2189974006,-0.89,-0.54,-0.11
2189976088,-0.89,-0.54,-0.11
2189978005,-0.89,-0.54,-0.11
2189980028,-0.89,-0.54,-0.11
2189981978,-0.89,-0.54,-0.11
2189983976,-0.88,-0.55,-0.29
2189985977,-0.88,-0.55,-0.29
2189987974,-0.88,-0.55,-0.29
2189989978,-0.88,-0.55,-0.29
2189991990,-0.88,-0.55,-0.29
2189993979,-0.88,-0.55,-0.29
2189995988,-0.95,-0.46,0.12
2189997976,-0.95,-0.46,0.12
2190000028,-0.95,-0.46,0.12
2190002119,-0.95,-0.46,0.12
2190004013,-0.95,-0.46,0.12
2190006008,-0.80,-0.54,-0.18
2190008008,-0.80,-0.54,-0.18
2190010011,-0.80,-0.54,-0.18
2190012013,-0.80,-0.54,-0.18
2190013979,-0.80,-0.54,-0.18
2190015975,-0.99,-0.54,-0.06
2190017988,-0.99,-0.54,-0.06
2190020010,-0.99,-0.54,-0.06
2190021976,-0.99,-0.54,-0.06
2190023978,-0.99,-0.54,-0.06
2190026083,-0.91,-0.54,-0.14
2190027989,-0.91,-0.54,-0.14
2190030012,-0.91,-0.54,-0.14
2190031977,-0.91,-0.54,-0.14
2190033977,-0.91,-0.54,-0.14
2190035979,-0.94,-0.54,0.09
2190037976,-0.94,-0.54,0.09
2190040032,-0.94,-0.54,0.09
2190042016,-0.94,-0.54,0.09
2190043956,-0.94,-0.54,0.09
2190045956,-0.91,-0.56,-0.10
2190047956,-0.91,-0.56,-0.10
2190049956,-0.91,-0.56,-0.10
2190052077,-0.91,-0.56,-0.10
2190053956,-0.91,-0.56,-0.10
2190055957,-1.00,-0.58,-0.05
2190057956,-1.00,-0.58,-0.05
2190059956,-1.00,-0.58,-0.05
2190061957,-1.00,-0.58,-0.05
2190063956,-1.00,-0.58,-0.05
2190065956,-0.93,-0.56,0.03
2190067957,-0.93,-0.56,0.03
2190069957,-0.93,-0.56,0.03
2190071956,-0.93,-0.56,0.03
2190073957,-0.93,-0.56,0.03
2190076030,-1.01,-0.59,0.01
2190077971,-1.01,-0.59,0.01
2190079969,-1.01,-0.59,0.01
2190082079,-1.01,-0.59,0.01
2190084047,-1.01,-0.59,0.01
2190086026,-0.97,-0.55,-0.05
2190088008,-0.97,-0.55,-0.05
2190094018,-0.97,-0.55,-0.05
2190096012,-1.03,-0.61,-0.05
2190098009,-1.03,-0.61,-0.05
2190100010,-1.03,-0.61,-0.05
2190102126,-1.03,-0.61,-0.05
2190104004,-1.03,-0.61,-0.05
2190106008,-0.95,-0.53,0.02
2190108007,-0.95,-0.53,0.02
2190109978,-0.95,-0.53,0.02
2190111981,-0.95,-0.53,0.02
2190113980,-0.95,-0.53,0.02
2190115979,-0.96,-0.56,-0.03
2190117982,-0.96,-0.56,-0.03
2190120016,-0.96,-0.56,-0.03
2190121980,-0.96,-0.56,-0.03
2190123977,-0.96,-0.56,-0.03
2190126085,-0.95,-0.52,-0.03
2190127989,-0.95,-0.52,-0.03
2190129979,-0.95,-0.52,-0.03
2190132032,-0.95,-0.52,-0.03
2190134033,-0.95,-0.52,-0.03
2190136041,-0.93,-0.51,-0.08
2190138004,-0.93,-0.51,-0.08
2190140005,-0.93,-0.51,-0.08
2190142005,-0.93,-0.51,-0.08
2190144009,-0.93,-0.51,-0.08
2190146008,-0.95,-0.48,0.00
2190148012,-0.95,-0.48,0.00
2190149984,-0.95,-0.48,0.00
2190152097,-0.95,-0.48,0.00
2190153980,-0.95,-0.48,0.00
2190155978,-0.91,-0.48,-0.08
2190157976,-0.91,-0.48,-0.08
2190159974,-0.91,-0.48,-0.08
2190161978,-0.91,-0.48,-0.08
2190163977,-0.91,-0.48,-0.08
2190165977,-0.91,-0.50,-0.05
2190167975,-0.91,-0.50,-0.05
2190169978,-0.91,-0.50,-0.05
2190171976,-0.91,-0.50,-0.05
2190173974,-0.91,-0.50,-0.05
2190176096,-0.91,-0.48,-0.02
2190178012,-0.91,-0.48,-0.02
2190180004,-0.91,-0.48,-0.02
2190182009,-0.91,-0.48,-0.02
2190184040,-0.91,-0.48,-0.02
2190186027,-0.91,-0.48,-0.02
2190188011,-0.95,-0.49,-0.01
2190190048,-0.95,-0.49,-0.01
2190192031,-0.95,-0.49,-0.01
2190193977,-0.95,-0.49,-0.01
2190195992,-0.95,-0.49,-0.01
2190197974,-0.94,-0.48,-0.05
2190199974,-0.94,-0.48,-0.05
2190202090,-0.94,-0.48,-0.05
2190203974,-0.94,-0.48,-0.05
2190205974,-0.94,-0.48,-0.05
2190207974,-0.91,-0.46,-0.02
2190209975,-0.91,-0.46,-0.02
2190211975,-0.91,-0.46,-0.02
2190213974,-0.91,-0.46,-0.02
2190216017,-0.91,-0.46,-0.02
2190218007,-0.88,-0.43,-0.01
2190220042,-0.88,-0.43,-0.01
2190222009,-0.88,-0.43,-0.01
2190224010,-0.88,-0.43,-0.01
2190226213,-0.88,-0.43,-0.01
2190228054,-0.88,-0.41,-0.02
2190230014,-0.88,-0.41,-0.02
2190231979,-0.88,-0.41,-0.02
2190233979,-0.88,-0.41,-0.02
2190235975,-0.88,-0.41,-0.02
2190237975,-0.88,-0.41,-0.07
2190239977,-0.88,-0.41,-0.07
2190241976,-0.88,-0.41,-0.07
2190243980,-0.88,-0.41,-0.07
2190245978,-0.88,-0.41,-0.07
2190247978,-0.88,-0.39,-0.04
2190249981,-0.88,-0.39,-0.04
2190252095,-0.88,-0.39,-0.04
2190253977,-0.88,-0.39,-0.04
2190256011,-0.88,-0.39,-0.04
2190258007,-0.88,-0.38,0.00
2190260007,-0.88,-0.38,0.00
2190262009,-0.88,-0.38,0.00
2190264005,-0.88,-0.38,0.00
2190266009,-0.88,-0.38,0.00
2190267986,-0.88,-0.39,0.00
2190269979,-0.88,-0.39,0.00
2190271978,-0.88,-0.39,0.00
2190273976,-0.88,-0.39,0.00
2190276077,-0.88,-0.39,0.00
2190277987,-0.90,-0.40,0.00
2190279986,-0.90,-0.40,0.00
2190281979,-0.90,-0.40,0.00
2190283979,-0.90,-0.40,0.00
2190285985,-0.90,-0.40,0.00
2190288057,-0.88,-0.39,0.04
2190290025,-0.88,-0.39,0.04
2190292005,-0.88,-0.39,0.04
2190293986,-0.88,-0.39,0.04
2190296025,-0.88,-0.39,0.04
2190298005,-0.87,-0.38,0.07
2190300008,-0.87,-0.38,0.07
2190302123,-0.87,-0.38,0.07
2190304008,-0.87,-0.38,0.07
2190306009,-0.87,-0.38,0.07
2190308010,-0.87,-0.38,0.04
2190309979,-0.87,-0.38,0.04
2190311981,-0.87,-0.38,0.04
2190313976,-0.87,-0.38,0.04
2190315975,-0.87,-0.38,0.04
2190317976,-0.87,-0.36,0.03
2190320005,-0.87,-0.36,0.03
2190321978,-0.87,-0.36,0.03
2190323977,-0.87,-0.36,0.03
2190326083,-0.87,-0.36,0.03
2190327988,-0.87,-0.33,0.05
2190329979,-0.87,-0.33,0.05
2190331977,-0.87,-0.33,0.05
2190333975,-0.87,-0.33,0.05
2190336018,-0.87,-0.33,0.05
2190338010,-0.88,-0.32,0.07
2190340009,-0.88,-0.32,0.07
2190342006,-0.88,-0.32,0.07
2190344006,-0.88,-0.32,0.07
2190346007,-0.88,-0.32,0.07
2190348012,-0.87,-0.32,0.04
2190349977,-0.87,-0.32,0.04
2190352084,-0.87,-0.32,0.04
2190353978,-0.87,-0.32,0.04
2190355975,-0.87,-0.32,0.04
2190357978,-0.88,-0.33,0.03
2190359977,-0.88,-0.33,0.03
2190361978,-0.88,-0.33,0.03
2190363979,-0.88,-0.33,0.03
2190365973,-0.88,-0.33,0.03
2190367977,-0.88,-0.33,0.03
2190369974,-0.89,-0.32,0.07
2190371979,-0.89,-0.32,0.07
2190373977,-0.89,-0.32,0.07
2190376099,-0.89,-0.32,0.07
2190378009,-0.89,-0.32,0.07
2190380005,-0.87,-0.32,0.07
2190382007,-0.87,-0.32,0.07
2190384038,-0.87,-0.32,0.07
2190386012,-0.87,-0.32,0.07
2190388009,-0.87,-0.32,0.07
2190390010,-0.91,-0.32,0.08
2190391990,-0.91,-0.32,0.08
2190393980,-0.91,-0.32,0.08
2190395990,-0.91,-0.32,0.08
2190397975,-0.91,-0.32,0.08
2190399980,-0.89,-0.31,0.07
2190402097,-0.89,-0.31,0.07
2190403980,-0.89,-0.31,0.07
2190405979,-0.89,-0.31,0.07
2190407977,-0.89,-0.31,0.07
2190409976,-0.89,-0.30,0.10
2190411977,-0.89,-0.30,0.10
2190413976,-0.89,-0.30,0.10
2190416018,-0.89,-0.30,0.10
2190418015,-0.89,-0.30,0.10
2190419999,-0.87,-0.30,0.09
2190421957,-0.87,-0.30,0.09
2190423957,-0.87,-0.30,0.09
2190426069,-0.87,-0.30,0.09
2190427968,-0.87,-0.30,0.09
2190429957,-0.86,-0.30,0.08
2190431955,-0.86,-0.30,0.08
2190433955,-0.86,-0.30,0.08
2190435958,-0.86,-0.30,0.08
2190437958,-0.86,-0.30,0.08
2190439955,-0.87,-0.29,0.07
2190441955,-0.87,-0.29,0.07
2190443958,-0.87,-0.29,0.07
2190445952,-0.87,-0.29,0.07
2190447955,-0.87,-0.29,0.07
2190449955,-0.88,-0.27,0.09
2190452038,-0.88,-0.27,0.09
2190453958,-0.88,-0.27,0.09
2190455955,-0.88,-0.27,0.09
2190457958,-0.88,-0.27,0.09
2190459958,-0.89,-0.27,0.10
2190461955,-0.89,-0.27,0.10
2190463958,-0.89,-0.27,0.10
2190500055,-0.89,-0.32,0.11
2190502122,-0.89,-0.32,0.11
2190504010,-0.89,-0.32,0.11
2190506009,-0.89,-0.32,0.11
2190508008,-0.89,-0.32,0.11
2190510009,-0.89,-0.34,0.09
2190512012,-0.89,-0.34,0.09
2190514008,-0.89,-0.34,0.09
2190516006,-0.89,-0.34,0.09
2190518006,-0.89,-0.34,0.09
2190520010,-0.88,-0.34,0.11
2190521980,-0.88,-0.34,0.11
2190523977,-0.88,-0.34,0.11
2190526085,-0.88,-0.34,0.11
2190527987,-0.88,-0.34,0.11
2190529977,-0.86,-0.34,0.10
2190531976,-0.86,-0.34,0.10
2190533976,-0.86,-0.34,0.10
2190535977,-0.86,-0.34,0.10
2190537977,-0.86,-0.34,0.10
2190540022,-0.88,-0.33,0.07
2190542009,-0.88,-0.33,0.07
2190544008,-0.88,-0.33,0.07
2190546007,-0.88,-0.33,0.07
2190548008,-0.88,-0.33,0.07
2190550007,-0.90,-0.32,0.10
2190552106,-0.90,-0.32,0.10
2190553976,-0.90,-0.32,0.10
2190555978,-0.90,-0.32,0.10
2190557975,-0.90,-0.32,0.10
2190559980,-0.90,-0.32,0.10
2190561980,-0.89,-0.34,0.12
2190563981,-0.89,-0.34,0.12
2190565978,-0.89,-0.34,0.12
2190567981,-0.89,-0.34,0.12
2190569979,-0.89,-0.34,0.12
2190571978,-0.90,-0.36,0.07
2190573979,-0.90,-0.36,0.07
2190576054,-0.90,-0.36,0.07
2190577987,-0.90,-0.36,0.07
2190580007,-0.90,-0.36,0.07
2190582060,-0.92,-0.38,0.11
2190584022,-0.92,-0.38,0.11
2190586004,-0.92,-0.38,0.11
2190588009,-0.92,-0.38,0.11
2190590009,-0.92,-0.38,0.11
2190592013,-0.90,-0.40,0.07
2190594044,-0.90,-0.40,0.07
2190596019,-0.90,-0.40,0.07
2190598005,-0.90,-0.40,0.07
2190599976,-0.90,-0.40,0.07
2190602094,-0.91,-0.38,0.08
2190603976,-0.91,-0.38,0.08
2190605976,-0.91,-0.38,0.08
2190607980,-0.91,-0.38,0.08
2190609974,-0.91,-0.38,0.08
2190611978,-0.89,-0.38,0.08
2190613976,-0.89,-0.38,0.08
2190615976,-0.89,-0.38,0.08
2190617979,-0.89,-0.38,0.08
2190620047,-0.89,-0.38,0.08
2190622080,-0.90,-0.38,0.05
2190624004,-0.90,-0.38,0.05
2190626102,-0.90,-0.38,0.05
2190628014,-0.90,-0.38,0.05
2190630006,-0.90,-0.38,0.05
2190632013,-0.87,-0.37,0.05
2190633980,-0.87,-0.37,0.05
2190635976,-0.87,-0.37,0.05
2190637979,-0.87,-0.37,0.05
2190639977,-0.87,-0.37,0.05
2190641980,-0.95,-0.37,0.07
2190643979,-0.95,-0.37,0.07
2190645979,-0.95,-0.37,0.07
2190648063,-0.95,-0.37,0.07
2190650014,-0.95,-0.37,0.07
2190652098,-0.89,-0.37,0.03
2190653976,-0.89,-0.37,0.03
2190655975,-0.89,-0.37,0.03
2190657977,-0.89,-0.37,0.03
2190660025,-0.89,-0.37,0.03
2190662007,-0.93,-0.39,0.12
2190664006,-0.93,-0.39,0.12
2190666010,-0.93,-0.39,0.12
2190668009,-0.93,-0.39,0.12
2190670008,-0.93,-0.39,0.12
2190672009,-0.98,-0.38,0.09
2190673980,-0.98,-0.38,0.09
2190676083,-0.98,-0.38,0.09
2190677987,-0.98,-0.38,0.09
2190679977,-0.98,-0.38,0.09
2190681980,-1.01,-0.45,0.07
2190683979,-1.01,-0.45,0.07
2190685977,-1.01,-0.45,0.07
2190687977,-1.01,-0.45,0.07
2190689984,-1.01,-0.45,0.07
2190691988,-1.00,-0.45,0.12
2190693985,-1.00,-0.45,0.12
2190696018,-1.00,-0.45,0.12
2190698022,-1.00,-0.45,0.12
2190700026,-1.00,-0.45,0.12
2190702119,-0.95,-0.45,0.12
2190704009,-0.95,-0.45,0.12
2190706005,-0.95,-0.45,0.12
2190708004,-0.95,-0.45,0.12
2190710004,-0.95,-0.45,0.12
2190712008,-0.97,-0.43,0.12
2190713980,-0.97,-0.43,0.12
2190715979,-0.97,-0.43,0.12
2190717980,-0.97,-0.43,0.12
2190720018,-0.97,-0.43,0.12
2190721986,-0.91,-0.41,0.07
2190723990,-0.91,-0.41,0.07
2190726085,-0.91,-0.41,0.07
2190727987,-0.91,-0.41,0.07
2190729976,-0.91,-0.41,0.07
2190731976,-0.91,-0.38,0.14
2190733977,-0.91,-0.38,0.14
2190735975,-0.91,-0.38,0.14
2190737978,-0.91,-0.38,0.14
2190740021,-0.91,-0.38,0.14
2190742008,-0.93,-0.41,-0.02
2190744006,-0.93,-0.41,-0.02
2190746018,-0.93,-0.41,-0.02
2190748052,-0.93,-0.41,-0.02
2190750042,-0.93,-0.41,-0.02
2190752125,-0.90,-0.36,0.10
2190754011,-0.90,-0.36,0.10
2190756013,-0.90,-0.36,0.10
2190757980,-0.90,-0.36,0.10
2190759980,-0.90,-0.36,0.10
2190761981,-0.90,-0.36,0.10
2190763975,-0.95,-0.41,0.12
2190765981,-0.95,-0.41,0.12
2190767984,-0.95,-0.41,0.12
2190769981,-0.95,-0.41,0.12
2190771979,-0.95,-0.41,0.12
2190773980,-0.88,-0.38,0.04
2190776077,-0.88,-0.38,0.04
2190777986,-0.88,-0.38,0.04
2190780032,-0.88,-0.38,0.04
2190782019,-0.88,-0.38,0.04
2190784008,-0.93,-0.42,0.05
2190786002,-0.93,-0.42,0.05
2190788010,-0.93,-0.42,0.05
2190790007,-0.93,-0.42,0.05
2190792015,-0.93,-0.42,0.05
2190794010,-0.90,-0.45,0.02
2190795991,-0.90,-0.45,0.02
2190797977,-0.90,-0.45,0.02
2190799975,-0.90,-0.45,0.02
2190802092,-0.90,-0.45,0.02
2190803991,-0.92,-0.41,0.10
2190805973,-0.92,-0.41,0.10
2190807975,-0.92,-0.41,0.10
2190809976,-0.92,-0.41,0.10
2190811972,-0.92,-0.41,0.10
2190813975,-0.88,-0.42,0.05
2190815974,-0.88,-0.42,0.05
2190817982,-0.88,-0.42,0.05
2190820052,-0.88,-0.42,0.05
2190822006,-0.88,-0.42,0.05
2190824007,-0.91,-0.41,0.07
2190826106,-0.91,-0.41,0.07
2190828013,-0.91,-0.41,0.07
2190830010,-0.91,-0.41,0.07
2190832014,-0.91,-0.41,0.07
2190833979,-0.91,-0.38,0.04
2190835980,-0.91,-0.38,0.04
2190837980,-0.91,-0.38,0.04
2190839976,-0.91,-0.38,0.04
2190841981,-0.91,-0.38,0.04
2190843974,-0.87,-0.37,0.10
2190845979,-0.87,-0.37,0.10
2190847977,-0.87,-0.37,0.10
2190849979,-0.87,-0.37,0.10
2190852080,-0.87,-0.37,0.10
2190853978,-0.93,-0.39,0.07
2190856064,-0.93,-0.39,0.07
2190858020,-0.93,-0.39,0.07
2190860023,-0.93,-0.39,0.07
2190862008,-0.93,-0.39,0.07
2190864008,-0.95,-0.41,0.07
2190866009,-0.95,-0.41,0.07
2190868007,-0.95,-0.41,0.07
2190870007,-0.95,-0.41,0.07
2190872005,-0.95,-0.41,0.07
2190873976,-0.98,-0.45,0.06
2190876093,-0.98,-0.45,0.06
2190877989,-0.98,-0.45,0.06
2190879981,-0.98,-0.45,0.06
2190881976,-0.98,-0.45,0.06
2190883979,-0.98,-0.48,0.03
2190885977,-0.98,-0.48,0.03
2190887976,-0.98,-0.48,0.03
2190889982,-0.98,-0.48,0.03
2190891991,-0.98,-0.48,0.03
2190893976,-0.98,-0.51,0.04
2190895991,-0.98,-0.51,0.04
2190897974,-0.98,-0.51,0.04
2190900012,-0.98,-0.51,0.04
2190902161,-0.98,-0.51,0.04
2190904010,-0.95,-0.55,0.00
2190906004,-0.95,-0.55,0.00
2190908006,-0.95,-0.55,0.00
2190910010,-0.95,-0.55,0.00
2190912007,-0.95,-0.55,0.00
2190913976,-0.95,-0.58,-0.03
2190915980,-0.95,-0.58,-0.03
2190917979,-0.95,-0.58,-0.03
2190920011,-0.95,-0.58,-0.03
2190921974,-0.95,-0.58,-0.03
2190923972,-0.92,-0.60,-0.08
2190926084,-0.92,-0.60,-0.08
2190927987,-0.92,-0.60,-0.08
2190929972,-0.92,-0.60,-0.08
2190931974,-0.92,-0.60,-0.08
2190933979,-0.92,-0.60,-0.08
2190935980,-0.91,-0.62,-0.09
2190937977,-0.91,-0.62,-0.09
2190940022,-0.91,-0.62,-0.09
2190942006,-0.91,-0.62,-0.09
2190944004,-0.91,-0.62,-0.09
2190946026,-0.86,-0.60,-0.12
2190948039,-0.86,-0.60,-0.12
2190950009,-0.86,-0.60,-0.12
2190952132,-0.86,-0.60,-0.12
2190953957,-0.86,-0.60,-0.12
2190956040,-0.82,-0.59,-0.14
2190958048,-0.82,-0.59,-0.14
2190960025,-0.82,-0.59,-0.14
2190962011,-0.82,-0.59,-0.14
2190963977,-0.82,-0.59,-0.14
2190965976,-0.80,-0.55,-0.17
2190967976,-0.80,-0.55,-0.17
2190969976,-0.80,-0.55,-0.17
2190971981,-0.80,-0.55,-0.17
2190973992,-0.80,-0.55,-0.17
2190976091,-0.79,-0.51,-0.18
2190977987,-0.79,-0.51,-0.18
2190980008,-0.79,-0.51,-0.18
2190982011,-0.79,-0.51,-0.18
2190984010,-0.79,-0.51,-0.18
2190986003,-0.79,-0.48,-0.18
2190988005,-0.79,-0.48,-0.18
2190990007,-0.79,-0.48,-0.18
2190992015,-0.79,-0.48,-0.18
2190993980,-0.79,-0.48,-0.18
2190995992,-0.77,-0.45,-0.18
2190997978,-0.77,-0.45,-0.18
2190999977,-0.77,-0.45,-0.18
2191002089,-0.77,-0.45,-0.18
2191004030,-0.77,-0.45,-0.18
2191006062,-0.79,-0.43,-0.19
2191008014,-0.79,-0.43,-0.19
2191009979,-0.79,-0.43,-0.19
2191011977,-0.79,-0.43,-0.19
2191013979,-0.79,-0.43,-0.19
2191015977,-0.80,-0.39,-0.16
2191017981,-0.80,-0.39,-0.16
2191020040,-0.80,-0.39,-0.16
2191022006,-0.80,-0.39,-0.16
2191024006,-0.80,-0.39,-0.16
2191026113,-0.82,-0.36,-0.10
2191028012,-0.82,-0.36,-0.10
2191030008,-0.82,-0.36,-0.10
2191032007,-0.82,-0.36,-0.10
2191033979,-0.82,-0.36,-0.10
2191035978,-0.83,-0.32,-0.09
2191037980,-0.83,-0.32,-0.09
2191039979,-0.83,-0.32,-0.09
2191041976,-0.83,-0.32,-0.09
2191043977,-0.83,-0.32,-0.09
2191045979,-0.85,-0.30,-0.07
2191047980,-0.85,-0.30,-0.07
2191049980,-0.85,-0.30,-0.07
2191052080,-0.85,-0.30,-0.07
2191053981,-0.85,-0.30,-0.07
2191055977,-0.86,-0.27,-0.04
2191057977,-0.86,-0.27,-0.04
2191060017,-0.86,-0.27,-0.04
2191062006,-0.86,-0.27,-0.04
2191064007,-0.86,-0.27,-0.04
2191066005,-0.86,-0.25,-0.02
2191068010,-0.86,-0.25,-0.02
2191070008,-0.86,-0.25,-0.02
2191072001,-0.86,-0.25,-0.02
2191073981,-0.86,-0.25,-0.02
2191076078,-0.89,-0.24,-0.01
2191077988,-0.89,-0.24,-0.01
2191079976,-0.89,-0.24,-0.01
2191081977,-0.89,-0.24,-0.01
2191083977,-0.89,-0.24,-0.01
2191085977,-0.91,-0.25,-0.03
2191087981,-0.91,-0.25,-0.03
2191089982,-0.91,-0.25,-0.03
2191091993,-0.91,-0.25,-0.03
2191093978,-0.91,-0.25,-0.03
2191095990,-0.90,-0.25,0.00
2191097978,-0.90,-0.25,0.00
2191100015,-0.90,-0.25,0.00
2191102113,-0.90,-0.25,0.00
2191104009,-0.90,-0.25,0.00
2191106063,-0.88,-0.25,-0.01
2191108041,-0.88,-0.25,-0.01
2191110037,-0.88,-0.25,-0.01
2191112011,-0.88,-0.25,-0.01
2191114006,-0.88,-0.25,-0.01
2191116013,-0.87,-0.25,-0.02
2191117987,-0.87,-0.25,-0.02
2191120008,-0.87,-0.25,-0.02
2191121976,-0.87,-0.25,-0.02
2191123975,-0.87,-0.25,-0.02
2191126093,-0.87,-0.25,-0.02
2191127988,-0.87,-0.25,-0.02
2191129980,-0.87,-0.25,-0.02
2191131986,-0.87,-0.25,-0.02
2191133977,-0.87,-0.25,-0.02
2191135975,-0.87,-0.25,-0.02
2191137974,-0.86,-0.26,-0.03
2191140021,-0.86,-0.26,-0.03
2191142007,-0.86,-0.26,-0.03
2191144007,-0.86,-0.26,-0.03
2191146007,-0.86,-0.26,-0.03
2191148009,-0.88,-0.29,-0.04
2191150007,-0.88,-0.29,-0.04
2191152107,-0.88,-0.29,-0.04
2191153975,-0.88,-0.29,-0.04
2191155980,-0.88,-0.29,-0.04
2191157980,-0.89,-0.31,-0.09
2191160064,-0.89,-0.31,-0.09
2191162014,-0.89,-0.31,-0.09
2191163977,-0.89,-0.31,-0.09
2191165979,-0.89,-0.31,-0.09
2191167976,-0.89,-0.36,-0.09
2191169973,-0.89,-0.36,-0.09
2191171975,-0.89,-0.36,-0.09
2191173976,-0.89,-0.36,-0.09
2191176088,-0.89,-0.36,-0.09
2191177987,-0.88,-0.39,-0.10
2191180019,-0.88,-0.39,-0.10
2191182009,-0.88,-0.39,-0.10
2191184010,-0.88,-0.39,-0.10
2191186009,-0.88,-0.39,-0.10
2191188005,-0.89,-0.41,-0.14
2191190006,-0.89,-0.41,-0.14
2191192016,-0.89,-0.41,-0.14
2191193981,-0.89,-0.41,-0.14
2191195993,-0.89,-0.41,-0.14
2191197985,-0.89,-0.43,-0.16
2191199977,-0.89,-0.43,-0.16
2191202088,-0.89,-0.43,-0.16
2191203979,-0.89,-0.43,-0.16
2191205979,-0.89,-0.43,-0.16
2191207978,-0.90,-0.45,-0.14
2191209975,-0.90,-0.45,-0.14
2191211978,-0.90,-0.45,-0.14
2191213977,-0.90,-0.45,-0.14
2191215975,-0.90,-0.45,-0.14
2191217981,-0.86,-0.47,-0.18
2191220043,-0.86,-0.47,-0.18
2191222006,-0.86,-0.47,-0.18
2191224012,-0.86,-0.47,-0.18
2191226107,-0.86,-0.47,-0.18
2191228012,-0.91,-0.49,-0.18
2191230004,-0.91,-0.49,-0.18
2191232012,-0.91,-0.49,-0.18
2191233978,-0.91,-0.49,-0.18
2191235979,-0.91,-0.49,-0.18
2191237980,-0.90,-0.50,-0.23
2191239980,-0.90,-0.50,-0.23
2191241979,-0.90,-0.50,-0.23
2191243980,-0.90,-0.50,-0.23
2191245978,-0.90,-0.50,-0.23
2191247976,-0.89,-0.48,-0.17
2191249981,-0.89,-0.48,-0.17
2191252080,-0.89,-0.48,-0.17
2191253977,-0.89,-0.48,-0.17
2191255978,-0.89,-0.48,-0.17
2191257994,-0.86,-0.46,-0.21
2191260068,-0.86,-0.46,-0.21
2191262033,-0.86,-0.46,-0.21
2191264014,-0.86,-0.46,-0.21
2191266006,-0.86,-0.46,-0.21
2191268008,-0.88,-0.43,-0.20
2191270008,-0.88,-0.43,-0.20
2191272004,-0.88,-0.43,-0.20
2191274008,-0.88,-0.43,-0.20
2191276114,-0.88,-0.43,-0.20
2191277991,-0.88,-0.42,-0.18
2191279981,-0.88,-0.42,-0.18
2191281980,-0.88,-0.42,-0.18
2191283978,-0.88,-0.42,-0.18
2191285979,-0.88,-0.42,-0.18
2191287980,-0.87,-0.38,-0.20
2191289982,-0.87,-0.38,-0.20
2191291989,-0.87,-0.38,-0.20
2191293979,-0.87,-0.38,-0.20
2191295992,-0.87,-0.38,-0.20
2191297978,-0.90,-0.38,-0.15
2191299978,-0.90,-0.38,-0.15
2191302119,-0.90,-0.38,-0.15
2191304005,-0.90,-0.38,-0.15
2191306004,-0.90,-0.38,-0.15
2191308009,-0.92,-0.36,-0.17
2191310038,-0.92,-0.36,-0.17
2191312049,-0.92,-0.36,-0.17
2191314009,-0.92,-0.36,-0.17
2191316055,-0.92,-0.36,-0.17
2191318034,-0.92,-0.36,-0.17
2191320007,-0.94,-0.35,-0.14
2191321977,-0.94,-0.35,-0.14
2191323979,-0.94,-0.35,-0.14
2191326096,-0.94,-0.35,-0.14
2191327993,-0.94,-0.35,-0.14
2191329981,-0.95,-0.34,-0.12
2191331978,-0.95,-0.34,-0.12
2191333979,-0.95,-0.34,-0.12
2191335978,-0.95,-0.34,-0.12
2191337976,-0.95,-0.34,-0.12
2191339981,-0.98,-0.35,-0.12
2191342023,-0.98,-0.35,-0.12
2191344004,-0.98,-0.35,-0.12
2191346006,-0.98,-0.35,-0.12
2191348005,-0.98,-0.35,-0.12
2191350008,-0.96,-0.33,-0.08
2191352103,-0.96,-0.33,-0.08
2191354013,-0.96,-0.33,-0.08
2191355979,-0.96,-0.33,-0.08
2191357979,-0.96,-0.33,-0.08
2191359976,-0.96,-0.34,-0.07
2191361976,-0.96,-0.34,-0.07
2191363977,-0.96,-0.34,-0.07
2191365975,-0.96,-0.34,-0.07
2191367979,-0.96,-0.34,-0.07
2191369976,-0.97,-0.35,-0.06
2191371979,-0.97,-0.35,-0.06
2191373979,-0.97,-0.35,-0.06
2191376078,-0.97,-0.35,-0.06
2191377987,-0.97,-0.35,-0.06
2191379981,-0.94,-0.36,-0.07
2191382014,-0.94,-0.36,-0.07
2191384008,-0.94,-0.36,-0.07
2191386007,-0.94,-0.36,-0.07
2191388003,-0.94,-0.36,-0.07
2191390006,-0.98,-0.38,-0.07
2191392013,-0.98,-0.38,-0.07
2191394008,-0.98,-0.38,-0.07
2191395993,-0.98,-0.38,-0.07
2191397973,-0.98,-0.38,-0.07
2191399975,-0.98,-0.36,-0.10
2191402083,-0.98,-0.36,-0.10
2191403975,-0.98,-0.36,-0.10
2191405974,-0.98,-0.36,-0.10
2191407980,-0.98,-0.36,-0.10
2191409978,-1.00,-0.38,-0.11
2191411974,-1.00,-0.38,-0.11
2191414036,-1.00,-0.38,-0.11
2191416053,-1.00,-0.38,-0.11
2191418014,-1.00,-0.38,-0.11
2191420009,-1.00,-0.36,-0.12
2191422020,-1.00,-0.36,-0.12
2191424007,-1.00,-0.36,-0.12
2191426118,-1.00,-0.36,-0.12
2191428017,-1.00,-0.36,-0.12
2191430008,-0.99,-0.38,-0.14
2191432010,-0.99,-0.38,-0.14
2191434007,-0.99,-0.38,-0.14
2191435993,-0.99,-0.38,-0.14
2191437979,-0.99,-0.38,-0.14
2191439979,-0.98,-0.41,-0.17
2191441977,-0.98,-0.41,-0.17
2191443975,-0.98,-0.41,-0.17
2191445979,-0.98,-0.41,-0.17
2191447976,-0.98,-0.41,-0.17
2191449975,-0.96,-0.40,-0.11
2191452078,-0.96,-0.40,-0.11
2191453978,-0.96,-0.40,-0.11
2191455975,-0.96,-0.40,-0.11
2191457976,-0.96,-0.40,-0.11
2191459986,-0.95,-0.42,-0.12
2191462019,-0.95,-0.42,-0.12
2191464005,-0.95,-0.42,-0.12
2191466007,-0.95,-0.42,-0.12
2191468007,-0.95,-0.42,-0.12
2191470006,-0.94,-0.42,-0.16
2191472041,-0.94,-0.42,-0.16
2191474084,-0.94,-0.42,-0.16
2191476120,-0.94,-0.42,-0.16
2191478008,-0.94,-0.42,-0.16
2191479979,-0.95,-0.42,-0.13
2191481980,-0.95,-0.42,-0.13
2191483977,-0.95,-0.42,-0.13
2191485978,-0.95,-0.42,-0.13
2191487976,-0.95,-0.42,-0.13
2191489977,-0.93,-0.41,-0.12
2191491993,-0.93,-0.41,-0.12
2191493978,-0.93,-0.41,-0.12
2191495992,-0.93,-0.41,-0.12
2191497975,-0.93,-0.41,-0.12
2191499975,-0.93,-0.41,-0.12
2191502119,-0.95,-0.41,-0.14
2191504009,-0.95,-0.41,-0.14
2191506006,-0.95,-0.41,-0.14
2191508010,-0.95,-0.41,-0.14
2191510007,-0.95,-0.41,-0.14
2191512007,-0.95,-0.41,-0.15
2191514009,-0.95,-0.41,-0.15
2191515988,-0.95,-0.41,-0.15
2191518026,-0.95,-0.41,-0.15
2191520016,-0.95,-0.41,-0.15
2191521975,-0.94,-0.41,-0.14
2191523979,-0.94,-0.41,-0.14
2191526096,-0.94,-0.41,-0.14
2191527987,-0.94,-0.41,-0.14
2191529977,-0.94,-0.41,-0.14
2191531980,-0.93,-0.42,-0.13
2191533979,-0.93,-0.42,-0.13
2191535978,-0.93,-0.42,-0.13
2191537979,-0.93,-0.42,-0.13
2191539978,-0.93,-0.42,-0.13
2191542020,-0.93,-0.44,-0.11
2191544004,-0.93,-0.44,-0.11
2191546006,-0.93,-0.44,-0.11
2191548002,-0.93,-0.44,-0.11
2191550008,-0.93,-0.44,-0.11
2191552105,-0.94,-0.45,-0.09
2191554007,-0.94,-0.45,-0.09
2191555979,-0.94,-0.45,-0.09
2191557981,-0.94,-0.45,-0.09
2191559980,-0.94,-0.45,-0.09
2191561981,-0.96,-0.46,-0.07
2191563977,-0.96,-0.46,-0.07
2191565987,-0.96,-0.46,-0.07
2191568065,-0.96,-0.46,-0.07
2191570020,-0.96,-0.46,-0.07
2191571977,-0.97,-0.46,-0.04
2191573978,-0.97,-0.46,-0.04
2191576089,-0.97,-0.46,-0.04
2191577988,-0.97,-0.46,-0.04
2191579976,-0.97,-0.46,-0.04
2191582022,-0.96,-0.45,-0.01
2191584005,-0.96,-0.45,-0.01
2191586003,-0.96,-0.45,-0.01
2191588008,-0.96,-0.45,-0.01
2191590011,-0.96,-0.45,-0.01
2191592014,-0.95,-0.44,0.02
2191594011,-0.95,-0.44,0.02
2191595991,-0.95,-0.44,0.02
2191597978,-0.95,-0.44,0.02
2191599976,-0.95,-0.44,0.02
2191602083,-0.94,-0.45,0.03
2191603974,-0.94,-0.45,0.03
2191605976,-0.94,-0.45,0.03
2191607978,-0.94,-0.45,0.03
2191609974,-0.94,-0.45,0.03
2191611977,-0.92,-0.45,0.02
2191613976,-0.92,-0.45,0.02
2191615979,-0.92,-0.45,0.02
2191617977,-0.92,-0.45,0.02
2191620009,-0.92,-0.45,0.02
2191622088,-0.91,-0.46,0.02
2191624008,-0.91,-0.46,0.02
2191626108,-0.91,-0.46,0.02
2191628009,-0.91,-0.46,0.02
2191630008,-0.91,-0.46,0.02
2191632008,-0.91,-0.45,0.00
2191634009,-0.91,-0.45,0.00
2191635977,-0.91,-0.45,0.00
2191637979,-0.91,-0.45,0.00
2191639979,-0.91,-0.45,0.00
2191641976,-0.91,-0.45,0.00
2191643976,-0.91,-0.45,0.00
2191645979,-0.91,-0.45,0.00
2191647974,-0.91,-0.45,0.00
2191649975,-0.91,-0.45,0.00
2191652075,-0.93,-0.44,-0.00
2191653979,-0.93,-0.44,-0.00
2191655981,-0.93,-0.44,-0.00
2191657978,-0.93,-0.44,-0.00
2191659980,-0.93,-0.44,-0.00
2191662016,-0.94,-0.43,0.00
2191664010,-0.94,-0.43,0.00
2191666009,-0.94,-0.43,0.00
2191668032,-0.94,-0.43,0.00
2191670035,-0.94,-0.43,0.00
2191672009,-0.95,-0.44,-0.01
2191674095,-0.95,-0.44,-0.01
2191676116,-0.95,-0.44,-0.01
2191678018,-0.95,-0.44,-0.01
2191679975,-0.95,-0.44,-0.01
2191681976,-0.94,-0.46,0.00
2191683980,-0.94,-0.46,0.00
2191685978,-0.94,-0.46,0.00
2191687974,-0.94,-0.46,0.00
2191689982,-0.94,-0.46,0.00
2191691990,-0.94,-0.46,0.00
2191693980,-0.91,-0.48,0.00
2191695994,-0.91,-0.48,0.00
2191697975,-0.91,-0.48,0.00
2191699976,-0.91,-0.48,0.00
2191702114,-0.91,-0.48,0.00
2191704004,-0.89,-0.50,0.01
2191706007,-0.89,-0.50,0.01
2191708006,-0.89,-0.50,0.01
2191710007,-0.89,-0.50,0.01
2191712006,-0.89,-0.50,0.01
2191713979,-0.89,-0.50,0.01
2191715978,-0.89,-0.50,0.01
2191717977,-0.89,-0.50,0.01
2191720008,-0.89,-0.50,0.01
2191722034,-0.89,-0.50,0.01
2191724055,-0.90,-0.51,0.00
2191726120,-0.90,-0.51,0.00
2191727989,-0.90,-0.51,0.00
2191729977,-0.90,-0.51,0.00
2191731977,-0.90,-0.51,0.00
2191733977,-0.91,-0.50,0.00
2191735979,-0.91,-0.50,0.00
2191737977,-0.91,-0.50,0.00
2191739974,-0.91,-0.50,0.00
2191742024,-0.91,-0.50,0.00
2191744006,-0.91,-0.49,0.00
2191746004,-0.91,-0.49,0.00
2191748006,-0.91,-0.49,0.00
2191750009,-0.91,-0.49,0.00
2191752109,-0.91,-0.49,0.00
2191754006,-0.91,-0.47,0.02
2191755975,-0.91,-0.47,0.02
2191757981,-0.91,-0.47,0.02
2191759979,-0.91,-0.47,0.02
2191761981,-0.91,-0.47,0.02
2191763975,-0.89,-0.46,0.00
2191765978,-0.89,-0.46,0.00
2191767977,-0.89,-0.46,0.00
2191769979,-0.89,-0.46,0.00
2191771975,-0.89,-0.46,0.00
2191773975,-0.88,-0.47,-0.01
2191776080,-0.88,-0.47,-0.01
2191777988,-0.88,-0.47,-0.01
2191780036,-0.88,-0.47,-0.01
2191782026,-0.88,-0.47,-0.01
2191784015,-0.88,-0.46,-0.01
2191786022,-0.88,-0.46,-0.01
2191788006,-0.88,-0.46,-0.01
2191790008,-0.88,-0.46,-0.01
2191792013,-0.88,-0.46,-0.01
2191794010,-0.88,-0.47,-0.02
2191796014,-0.88,-0.47,-0.02
2191797979,-0.88,-0.47,-0.02
2191799978,-0.88,-0.47,-0.02
2191802096,-0.88,-0.47,-0.02
2191803973,-0.88,-0.45,-0.02
2191805977,-0.88,-0.45,-0.02
2191807980,-0.88,-0.45,-0.02
2191809977,-0.88,-0.45,-0.02
2191811979,-0.88,-0.45,-0.02
2191813975,-0.89,-0.43,-0.04
2191815980,-0.89,-0.43,-0.04
2191817977,-0.89,-0.43,-0.04
2191820011,-0.89,-0.43,-0.04
2191822018,-0.89,-0.43,-0.04
2191824051,-0.89,-0.42,-0.04
2191826117,-0.89,-0.42,-0.04
2191828008,-0.89,-0.42,-0.04
2191830006,-0.89,-0.42,-0.04
2191832007,-0.89,-0.42,-0.04
2191834006,-0.88,-0.41,-0.04
2191836010,-0.88,-0.41,-0.04
2191837979,-0.88,-0.41,-0.04
2191839979,-0.88,-0.41,-0.04
2191841979,-0.88,-0.41,-0.04
2191843979,-0.88,-0.42,-0.04
2191845979,-0.88,-0.42,-0.04
2191847976,-0.88,-0.42,-0.04
2191849976,-0.88,-0.42,-0.04
2191852089,-0.88,-0.42,-0.04
2191853980,-0.88,-0.43,-0.03
2191855977,-0.88,-0.43,-0.03
2191857976,-0.88,-0.43,-0.03
2191859976,-0.88,-0.43,-0.03
2191862009,-0.88,-0.43,-0.03
2191864007,-0.88,-0.46,-0.04
2191866005,-0.88,-0.46,-0.04
2191868064,-0.88,-0.46,-0.04
2191870026,-0.88,-0.46,-0.04
2191872007,-0.88,-0.46,-0.04
2191874004,-0.87,-0.46,-0.04
2191876112,-0.87,-0.46,-0.04
2191878040,-0.87,-0.46,-0.04
2191879974,-0.87,-0.46,-0.04
2191881975,-0.87,-0.46,-0.04
2191883981,-0.87,-0.46,-0.04
2191885976,-0.89,-0.47,-0.05
2191887975,-0.89,-0.47,-0.05
2191889978,-0.89,-0.47,-0.05
2191891991,-0.89,-0.47,-0.05
2191893980,-0.89,-0.47,-0.05
2191895991,-0.91,-0.46,-0.06
2191897975,-0.91,-0.46,-0.06
2191899974,-0.91,-0.46,-0.06
2191902135,-0.91,-0.46,-0.06
2191904013,-0.91,-0.46,-0.06
2191906008,-0.92,-0.45,-0.07
2191908008,-0.92,-0.45,-0.07
2191910006,-0.92,-0.45,-0.07
2191912009,-0.92,-0.45,-0.07
2191914007,-0.92,-0.45,-0.07
2191915984,-0.95,-0.44,-0.05
2191917979,-0.95,-0.44,-0.05
2191920011,-0.95,-0.44,-0.05
2191921979,-0.95,-0.44,-0.05
2191923979,-0.95,-0.44,-0.05
2191926087,-0.95,-0.42,-0.03
2191928032,-0.95,-0.42,-0.03
2191929977,-0.95,-0.42,-0.03
2191931977,-0.95,-0.42,-0.03
2191933989,-0.95,-0.42,-0.03
2191936090,-0.98,-0.44,-0.01
2191938014,-0.98,-0.44,-0.01
2191939981,-0.98,-0.44,-0.01
2191942025,-0.98,-0.44,-0.01
2191944007,-0.98,-0.44,-0.01
2191946007,-1.00,-0.45,-0.01
2191948010,-1.00,-0.45,-0.01
2191950005,-1.00,-0.45,-0.01
2191952125,-1.00,-0.45,-0.01
2191954006,-1.00,-0.45,-0.01
2191955979,-1.00,-0.46,-0.01
2191957980,-1.00,-0.46,-0.01
2191959978,-1.00,-0.46,-0.01
2191961980,-1.00,-0.46,-0.01
2191963980,-1.00,-0.46,-0.01
2191965984,-0.98,-0.46,-0.02
2191967984,-0.98,-0.46,-0.02
2191969979,-0.98,-0.46,-0.02
2191971980,-0.98,-0.46,-0.02
2191973992,-0.98,-0.46,-0.02
2191976075,-0.96,-0.46,-0.04
2191977987,-0.96,-0.46,-0.04
2191979976,-0.96,-0.46,-0.04
2191982012,-0.96,-0.46,-0.04
2191984009,-0.96,-0.46,-0.04
2191986003,-0.93,-0.45,-0.07
2191988005,-0.93,-0.45,-0.07
2191990006,-0.93,-0.45,-0.07
2191992016,-0.93,-0.45,-0.07
2191994005,-0.93,-0.45,-0.07
2191995989,-0.92,-0.43,-0.12
2191997979,-0.92,-0.43,-0.12
2191999979,-0.92,-0.43,-0.12
2192002084,-0.92,-0.43,-0.12
2192003976,-0.92,-0.43,-0.12
2192005977,-0.91,-0.40,-0.16
2192007973,-0.91,-0.40,-0.16
2192009978,-0.91,-0.40,-0.16
2192011976,-0.91,-0.40,-0.16
2192013979,-0.91,-0.40,-0.16
2192015976,-0.85,-0.40,-0.18
2192017980,-0.85,-0.40,-0.18
2192020007,-0.85,-0.40,-0.18
2192022022,-0.85,-0.40,-0.18
2192024010,-0.85,-0.40,-0.18
2192026109,-0.80,-0.40,-0.23
2192028036,-0.80,-0.40,-0.23
2192030036,-0.80,-0.40,-0.23
2192032010,-0.80,-0.40,-0.23
2192034005,-0.80,-0.40,-0.23
2192036013,-0.79,-0.41,-0.27
2192037984,-0.79,-0.41,-0.27
2192039980,-0.79,-0.41,-0.27
2192041981,-0.79,-0.41,-0.27
2192043981,-0.79,-0.41,-0.27
2192045979,-0.77,-0.41,-0.27
2192047980,-0.77,-0.41,-0.27
2192049984,-0.77,-0.41,-0.27
2192052095,-0.77,-0.41,-0.27
2192053979,-0.77,-0.41,-0.27
2192055979,-0.76,-0.42,-0.26
2192057979,-0.76,-0.42,-0.26
2192059976,-0.76,-0.42,-0.26
2192062017,-0.76,-0.42,-0.26
2192064009,-0.76,-0.42,-0.26
2192066005,-0.73,-0.43,-0.32
2192068024,-0.73,-0.43,-0.32
2192070003,-0.73,-0.43,-0.32
2192071956,-0.73,-0.43,-0.32
2192073957,-0.73,-0.43,-0.32
2192076071,-0.73,-0.43,-0.32
2192077970,-0.77,-0.41,-0.29
2192079956,-0.77,-0.41,-0.29
2192081956,-0.77,-0.41,-0.29
2192083957,-0.77,-0.41,-0.29
2192085957,-0.77,-0.41,-0.29
2192087957,-0.78,-0.42,-0.31
2192089959,-0.78,-0.42,-0.31
2192091975,-0.78,-0.42,-0.31
2192093960,-0.78,-0.42,-0.31
2192095977,-0.78,-0.42,-0.31
2192097957,-0.79,-0.43,-0.27
2192099958,-0.79,-0.43,-0.27
2192102048,-0.79,-0.43,-0.27
2192103958,-0.79,-0.43,-0.27
2192105957,-0.79,-0.43,-0.27
2192107958,-0.77,-0.42,-0.29
2192109958,-0.77,-0.42,-0.29
2192240047,-0.91,-0.45,-0.21
2192242045,-0.91,-0.45,-0.21
2192244007,-0.91,-0.45,-0.21
2192246005,-0.91,-0.45,-0.21
2192248008,-0.89,-0.46,-0.22
2192250005,-0.89,-0.46,-0.22
2192252114,-0.89,-0.46,-0.22
2192254012,-0.89,-0.46,-0.22
2192255979,-0.89,-0.46,-0.22
2192257980,-0.89,-0.46,-0.22
2192259979,-0.90,-0.46,-0.23
2192261980,-0.90,-0.46,-0.23
2192263977,-0.90,-0.46,-0.23
2192265978,-0.90,-0.46,-0.23
2192267980,-0.90,-0.46,-0.23
2192269979,-0.88,-0.49,-0.22
2192271978,-0.88,-0.49,-0.22
2192273978,-0.88,-0.49,-0.22
2192276074,-0.88,-0.49,-0.22
2192277986,-0.88,-0.49,-0.22
2192280011,-0.87,-0.48,-0.22
2192282006,-0.87,-0.48,-0.22
2192284005,-0.87,-0.48,-0.22
2192286003,-0.87,-0.48,-0.22
2192288006,-0.87,-0.48,-0.22
2192290042,-0.86,-0.49,-0.24
2192292030,-0.86,-0.49,-0.24
2192294012,-0.86,-0.49,-0.24
2192295988,-0.86,-0.49,-0.24
2192297975,-0.86,-0.49,-0.24
2192299974,-0.87,-0.46,-0.25
2192302095,-0.87,-0.46,-0.25
2192303977,-0.87,-0.46,-0.25
2192305975,-0.87,-0.46,-0.25
2192307973,-0.87,-0.46,-0.25
2192309972,-0.86,-0.46,-0.26
2192311980,-0.86,-0.46,-0.26
2192313975,-0.86,-0.46,-0.26
2192315975,-0.86,-0.46,-0.26
2192317976,-0.86,-0.46,-0.26
2192320043,-0.86,-0.45,-0.27
2192322006,-0.86,-0.45,-0.27
2192324010,-0.86,-0.45,-0.27
2192326108,-0.86,-0.45,-0.27
2192328013,-0.86,-0.45,-0.27
2192330008,-0.87,-0.44,-0.28
2192332009,-0.87,-0.44,-0.28
2192333977,-0.87,-0.44,-0.28
2192335981,-0.87,-0.44,-0.28
2192338029,-0.87,-0.44,-0.28
2192339977,-0.88,-0.42,-0.27
2192341976,-0.88,-0.42,-0.27
2192343975,-0.88,-0.42,-0.27
2192345974,-0.88,-0.42,-0.27
2192347976,-0.88,-0.42,-0.27
2192349979,-0.86,-0.41,-0.25
2192352085,-0.86,-0.41,-0.25
2192353976,-0.86,-0.41,-0.25
2192355974,-0.86,-0.41,-0.25
2192357976,-0.86,-0.41,-0.25
2192360019,-0.87,-0.41,-0.26
2192362007,-0.87,-0.41,-0.26
2192364027,-0.87,-0.41,-0.26
2192365958,-0.87,-0.41,-0.26
2192367957,-0.87,-0.41,-0.26
2192369955,-0.85,-0.39,-0.23
2192371955,-0.85,-0.39,-0.23
2192373957,-0.85,-0.39,-0.23
2192376072,-0.85,-0.39,-0.23
2192377967,-0.85,-0.39,-0.23
2192379957,-0.84,-0.38,-0.21
2192381958,-0.84,-0.38,-0.21
2192383958,-0.84,-0.38,-0.21
2192385955,-0.84,-0.38,-0.21
2192387953,-0.84,-0.38,-0.21
2192389957,-0.85,-0.38,-0.21
2192391975,-0.85,-0.38,-0.21
2192393961,-0.85,-0.38,-0.21
2192395980,-0.85,-0.38,-0.21
2192397960,-0.85,-0.38,-0.21
2192399957,-0.86,-0.36,-0.19
2192402048,-0.86,-0.36,-0.19
2192403955,-0.86,-0.36,-0.19
2192405957,-0.86,-0.36,-0.19
2192407957,-0.86,-0.36,-0.19
2192552169,-0.91,-0.43,-0.24
2192554004,-0.91,-0.43,-0.24
2192556006,-0.91,-0.43,-0.24
2192558004,-0.91,-0.43,-0.24
2192560011,-0.91,-0.43,-0.24
2192562009,-0.90,-0.42,-0.22
2192564003,-0.90,-0.42,-0.22
2192566003,-0.90,-0.42,-0.22
2192568013,-0.90,-0.42,-0.22
2192569984,-0.90,-0.42,-0.22
2192571984,-0.89,-0.43,-0.21
2192573986,-0.89,-0.43,-0.21
2192576084,-0.89,-0.43,-0.21
2192577989,-0.89,-0.43,-0.21
2192579981,-0.89,-0.43,-0.21
2192581984,-0.88,-0.45,-0.22
2192583979,-0.88,-0.45,-0.22
2192585980,-0.88,-0.45,-0.22
2192587977,-0.88,-0.45,-0.22
2192589982,-0.88,-0.45,-0.22
2192592009,-0.88,-0.45,-0.20
2192594007,-0.88,-0.45,-0.20
2192596010,-0.88,-0.45,-0.20
2192598007,-0.88,-0.45,-0.20
2192600003,-0.88,-0.45,-0.20
2192602111,-0.88,-0.43,-0.20
2192604032,-0.88,-0.43,-0.20
2192606011,-0.88,-0.43,-0.20
2192607979,-0.88,-0.43,-0.20
2192609980,-0.88,-0.43,-0.20
2192611977,-0.89,-0.42,-0.20
2192613980,-0.89,-0.42,-0.20
2192615979,-0.89,-0.42,-0.20
2192617983,-0.89,-0.42,-0.20
2192620009,-0.89,-0.42,-0.20
2192622053,-0.89,-0.40,-0.19
2192623980,-0.89,-0.40,-0.19
2192626092,-0.89,-0.40,-0.19
2192627989,-0.89,-0.40,-0.19
2192629978,-0.89,-0.40,-0.19
2192632020,-0.89,-0.40,-0.18
2192634002,-0.89,-0.40,-0.18
2192636005,-0.89,-0.40,-0.18
2192638020,-0.89,-0.40,-0.18
2192640008,-0.89,-0.40,-0.18
2192642005,-0.89,-0.40,-0.18
2192644011,-0.90,-0.41,-0.19
2192646036,-0.90,-0.41,-0.19
2192647993,-0.90,-0.41,-0.19
2192650085,-0.90,-0.41,-0.19
2192652130,-0.90,-0.41,-0.19
2192653978,-0.91,-0.42,-0.19
2192655975,-0.91,-0.42,-0.19
2192657979,-0.91,-0.42,-0.19
2192659977,-0.91,-0.42,-0.19
2192661975,-0.91,-0.42,-0.19
2192663981,-0.92,-0.43,-0.18
2192665980,-0.92,-0.43,-0.18
2192667981,-0.92,-0.43,-0.18
2192669976,-0.92,-0.43,-0.18
2192672023,-0.92,-0.43,-0.18
2192674007,-0.93,-0.42,-0.18
2192676104,-0.93,-0.42,-0.18
2192678012,-0.93,-0.42,-0.18
2192680004,-0.93,-0.42,-0.18
2192682006,-0.93,-0.42,-0.18
2192684006,-0.93,-0.39,-0.17
2192685978,-0.93,-0.39,-0.17
2192687979,-0.93,-0.39,-0.17
2192689981,-0.93,-0.39,-0.17
2192691991,-0.93,-0.39,-0.17
2192693985,-0.95,-0.38,-0.16
2192695990,-0.95,-0.38,-0.16
2192697978,-0.95,-0.38,-0.16
2192700102,-0.95,-0.38,-0.16
2192702130,-0.95,-0.38,-0.16
2192703981,-0.95,-0.39,-0.16
2192705984,-0.95,-0.39,-0.16
2192707978,-0.95,-0.39,-0.16
2192709976,-0.95,-0.39,-0.16
2192712027,-0.95,-0.39,-0.16
2192714005,-0.93,-0.41,-0.15
2192716004,-0.93,-0.41,-0.15
2192718005,-0.93,-0.41,-0.15
2192720042,-0.93,-0.41,-0.15
2192722003,-0.93,-0.41,-0.15
2192724013,-0.92,-0.44,-0.14
2192726104,-0.92,-0.44,-0.14
2192727986,-0.92,-0.44,-0.14
2192729979,-0.92,-0.44,-0.14
2192731975,-0.92,-0.44,-0.14
2192733979,-0.91,-0.47,-0.13
2192735981,-0.91,-0.47,-0.13
2192737975,-0.91,-0.47,-0.13
2192739981,-0.91,-0.47,-0.13
2192741976,-0.91,-0.47,-0.13
2192743977,-0.92,-0.49,-0.13
2192745975,-0.92,-0.49,-0.13
2192748032,-0.92,-0.49,-0.13
2192749977,-0.92,-0.49,-0.13
2192752133,-0.92,-0.49,-0.13
2192754007,-0.95,-0.51,-0.12
2192756006,-0.95,-0.51,-0.12
2192758006,-0.95,-0.51,-0.12
2192760008,-0.95,-0.51,-0.12
2192762005,-0.95,-0.51,-0.12
2192764012,-1.00,-0.52,-0.12
2192765979,-1.00,-0.52,-0.12
2192767981,-1.00,-0.52,-0.12
2192769990,-1.00,-0.52,-0.12
2192771981,-1.00,-0.52,-0.12
2192773975,-1.02,-0.51,-0.11
2192776081,-1.02,-0.51,-0.11
2192777987,-1.02,-0.51,-0.11
2192779976,-1.02,-0.51,-0.11
2192781975,-1.02,-0.51,-0.11
2192783984,-1.00,-0.50,-0.11
2192785975,-1.00,-0.50,-0.11
2192787979,-1.00,-0.50,-0.11
2192789983,-1.00,-0.50,-0.11
2192792013,-1.00,-0.50,-0.11
2192794008,-0.98,-0.47,-0.09
2192796010,-0.98,-0.47,-0.09
2192798038,-0.98,-0.47,-0.09
2192800039,-0.98,-0.47,-0.09
2192802122,-0.98,-0.47,-0.09
2192804005,-0.93,-0.48,-0.07
2192806013,-0.93,-0.48,-0.07
2192807979,-0.93,-0.48,-0.07
2192809980,-0.93,-0.48,-0.07
2192811979,-0.93,-0.48,-0.07
2192813979,-0.89,-0.47,-0.08
2192815980,-0.89,-0.47,-0.08
2192817978,-0.89,-0.47,-0.08
2192820011,-0.89,-0.47,-0.08
2192821980,-0.89,-0.47,-0.08
2192823979,-0.89,-0.47,-0.08
2192826086,-0.86,-0.48,-0.07
2192827989,-0.86,-0.48,-0.07
2192829976,-0.86,-0.48,-0.07
2192832021,-0.86,-0.48,-0.07
2192834006,-0.86,-0.48,-0.07
2192836004,-0.87,-0.46,-0.09
2192838002,-0.87,-0.46,-0.09
2192840002,-0.87,-0.46,-0.09
2192842006,-0.87,-0.46,-0.09
2192844012,-0.87,-0.46,-0.09
2192845980,-0.88,-0.45,-0.08
2192847976,-0.88,-0.45,-0.08
2192849979,-0.88,-0.45,-0.08
2192852084,-0.88,-0.45,-0.08
2192853977,-0.88,-0.45,-0.08
2192855979,-0.87,-0.41,-0.09
2192857975,-0.87,-0.41,-0.09
2192859978,-0.87,-0.41,-0.09
2192861978,-0.87,-0.41,-0.09
2192863976,-0.87,-0.41,-0.09
2192865979,-0.88,-0.40,-0.09
2192867980,-0.88,-0.40,-0.09
2192869980,-0.88,-0.40,-0.09
2192872036,-0.88,-0.40,-0.09
2192873980,-0.88,-0.40,-0.09
2192876068,-0.88,-0.41,-0.11
2192877968,-0.88,-0.41,-0.11
2192879958,-0.88,-0.41,-0.11
2192881955,-0.88,-0.41,-0.11
2192883958,-0.88,-0.41,-0.11
2192885958,-0.89,-0.45,-0.11
2192887958,-0.89,-0.45,-0.11
2192889957,-0.89,-0.45,-0.11
2192891974,-0.89,-0.45,-0.11
2192893962,-0.89,-0.45,-0.11
2192895976,-0.91,-0.49,-0.10
2192897958,-0.91,-0.49,-0.10
2192899957,-0.91,-0.49,-0.10
2192902052,-0.91,-0.49,-0.10
2192903960,-0.91,-0.49,-0.10
2192905957,-0.92,-0.50,-0.09
2192907957,-0.92,-0.50,-0.09
2192909958,-0.92,-0.50,-0.09
2192911957,-0.92,-0.50,-0.09
2192913957,-0.92,-0.50,-0.09
2192915958,-0.93,-0.50,-0.08
2192917960,-0.93,-0.50,-0.08
2192920005,-0.93,-0.50,-0.08
2192960052,-0.86,-0.48,-0.08
2192962002,-0.86,-0.48,-0.08
2192963957,-0.86,-0.48,-0.08
2192965959,-0.86,-0.48,-0.08
2192967958,-0.86,-0.48,-0.08
2192969957,-0.86,-0.48,-0.08
2192971957,-0.86,-0.48,-0.08
2192973960,-0.86,-0.48,-0.08
2192976101,-0.85,-0.46,-0.09
2192977970,-0.85,-0.46,-0.09
2192979958,-0.85,-0.46,-0.09
2192981958,-0.85,-0.46,-0.09
2192983958,-0.85,-0.46,-0.09
2192985957,-0.84,-0.46,-0.11
2192987955,-0.84,-0.46,-0.11
2192989961,-0.84,-0.46,-0.11
2192991972,-0.84,-0.46,-0.11
2192993960,-0.84,-0.46,-0.11
2192995976,-0.83,-0.47,-0.12
2192997960,-0.83,-0.47,-0.12
2192999958,-0.83,-0.47,-0.12
2193002049,-0.83,-0.47,-0.12
2193003958,-0.83,-0.47,-0.12
2193005958,-0.83,-0.47,-0.12
2193007957,-0.84,-0.47,-0.13
2193884052,-0.90,-0.47,0.02
2193886005,-0.89,-0.47,0.05
2193888008,-0.89,-0.47,0.05
2193890005,-0.89,-0.47,0.05
2193892015,-0.89,-0.47,0.05
2193894005,-0.89,-0.47,0.05
2193896007,-0.89,-0.45,0.04
2193898006,-0.89,-0.45,0.04
2193900009,-0.89,-0.45,0.04
2193902086,-0.89,-0.45,0.04
2193903986,-0.89,-0.45,0.04
2193905978,-0.88,-0.44,0.03
2193907976,-0.88,-0.44,0.03
2193909977,-0.88,-0.44,0.03
2193911979,-0.88,-0.44,0.03
2193913980,-0.88,-0.44,0.03
2193915981,-0.89,-0.43,0.04
2193917982,-0.89,-0.43,0.04
2193920003,-0.89,-0.43,0.04
2193921977,-0.89,-0.43,0.04
2193924037,-0.89,-0.43,0.04
2193926119,-0.88,-0.42,0.05
2193927970,-0.88,-0.42,0.05
2193929957,-0.88,-0.42,0.05
2193931953,-0.88,-0.42,0.05
2193933957,-0.88,-0.42,0.05
2193935956,-0.88,-0.44,0.04
2193937957,-0.88,-0.44,0.04
2193939956,-0.88,-0.44,0.04
2193941957,-0.88,-0.44,0.04
2193943952,-0.88,-0.44,0.04
2193945957,-0.88,-0.45,0.03
2193947956,-0.88,-0.45,0.03
2193949961,-0.88,-0.45,0.03
2193952038,-0.88,-0.45,0.03
2193953957,-0.88,-0.45,0.03
2193955956,-0.88,-0.45,0.03
2193957957,-0.88,-0.44,0.04
2193959957,-0.88,-0.44,0.04
2193961952,-0.88,-0.44,0.04
2193963957,-0.88,-0.44,0.04
2193965956,-0.88,-0.44,0.04
2193967956,-0.88,-0.44,0.04
2193969957,-0.88,-0.44,0.04
2193971957,-0.88,-0.44,0.04
2195432053,-0.82,-0.36,-0.25
2195434008,-0.82,-0.36,-0.25
2195436005,-0.82,-0.36,-0.25
2195438009,-0.82,-0.36,-0.25
2195440006,-0.82,-0.36,-0.25
2195442003,-0.85,-0.37,-0.23
2195444008,-0.85,-0.37,-0.23
2195446004,-0.85,-0.37,-0.23
2195447998,-0.85,-0.37,-0.23
2195449979,-0.85,-0.37,-0.23
2195452092,-0.88,-0.37,-0.24
2195453981,-0.88,-0.37,-0.24
2195455976,-0.88,-0.37,-0.24
2195457981,-0.88,-0.37,-0.24
2195459978,-0.88,-0.37,-0.24
2195461977,-0.91,-0.38,-0.23
2195463979,-0.91,-0.38,-0.23
2195465979,-0.91,-0.38,-0.23
2195467974,-0.91,-0.38,-0.23
2195469977,-0.91,-0.38,-0.23
2195472010,-0.90,-0.38,-0.21
2195474006,-0.90,-0.38,-0.21
2195476095,-0.90,-0.38,-0.21
2195478007,-0.90,-0.38,-0.21
2195480007,-0.90,-0.38,-0.21
2195482008,-0.90,-0.38,-0.21
2195484022,-0.88,-0.38,-0.20
2195486013,-0.88,-0.38,-0.20
2195487979,-0.88,-0.38,-0.20
2195489983,-0.88,-0.38,-0.20
2195491988,-0.88,-0.38,-0.20
2195493980,-0.90,-0.40,-0.22
2195495990,-0.90,-0.40,-0.22
2195497975,-0.90,-0.40,-0.22
2195499977,-0.90,-0.40,-0.22
2195502089,-0.90,-0.40,-0.22
2195503976,-0.91,-0.39,-0.21
2195505978,-0.91,-0.39,-0.21
2195507976,-0.91,-0.39,-0.21
2195509976,-0.91,-0.39,-0.21
2195512014,-0.91,-0.39,-0.21
2195514009,-0.92,-0.39,-0.20
2195516005,-0.92,-0.39,-0.20
2195518008,-0.92,-0.39,-0.20
2195520039,-0.92,-0.39,-0.20
2195522007,-0.92,-0.39,-0.20
2195524014,-0.91,-0.37,-0.18
2195526089,-0.91,-0.37,-0.18
2195527989,-0.91,-0.37,-0.18
2195529984,-0.91,-0.37,-0.18
2195532030,-0.91,-0.37,-0.18
2195533974,-0.90,-0.39,-0.14
2195535980,-0.90,-0.39,-0.14
2195537978,-0.90,-0.39,-0.14
2195539979,-0.90,-0.39,-0.14
2195541977,-0.90,-0.39,-0.14
2195543978,-0.89,-0.39,-0.13
2195545977,-0.89,-0.39,-0.13
2195547977,-0.89,-0.39,-0.13
2195549977,-0.89,-0.39,-0.13
2195552132,-0.89,-0.39,-0.13
2195554006,-0.92,-0.40,-0.12
2195556005,-0.92,-0.40,-0.12
2195558010,-0.92,-0.40,-0.12
2195560004,-0.92,-0.40,-0.12
2195562003,-0.92,-0.40,-0.12
2195564030,-0.94,-0.41,-0.12
2195565987,-0.94,-0.41,-0.12
2195567956,-0.94,-0.41,-0.12
2195569956,-0.94,-0.41,-0.12
2195571956,-0.94,-0.41,-0.12
2195573956,-0.96,-0.40,-0.12
2195576068,-0.96,-0.40,-0.12
2195577967,-0.96,-0.40,-0.12
2195579957,-0.96,-0.40,-0.12
2195582001,-0.96,-0.40,-0.12
2195584029,-0.94,-0.40,-0.12
2195585981,-0.94,-0.40,-0.12
2195587980,-0.94,-0.40,-0.12
2195589982,-0.94,-0.40,-0.12
2195592022,-0.94,-0.40,-0.12
2195594004,-0.92,-0.42,-0.13
2195596007,-0.92,-0.42,-0.13
2195598008,-0.92,-0.42,-0.13
2195600011,-0.92,-0.42,-0.13
2195602123,-0.92,-0.42,-0.13
2195604016,-0.91,-0.43,-0.15
2195605979,-0.91,-0.43,-0.15
2195607981,-0.91,-0.43,-0.15
2195609973,-0.91,-0.43,-0.15
2195611980,-0.91,-0.43,-0.15
2195613976,-0.91,-0.42,-0.16
2195615981,-0.91,-0.42,-0.16
2195617982,-0.91,-0.42,-0.16
2195620010,-0.91,-0.42,-0.16
2195622056,-0.91,-0.42,-0.16
2195623980,-0.93,-0.41,-0.16
2195626089,-0.93,-0.41,-0.16
2195627990,-0.93,-0.41,-0.16
2195629977,-0.93,-0.41,-0.16
2195632018,-0.93,-0.41,-0.16
2195634003,-0.93,-0.40,-0.15
2195636006,-0.93,-0.40,-0.15
2195638006,-0.93,-0.40,-0.15
2195640004,-0.93,-0.40,-0.15
2195642004,-0.93,-0.40,-0.15
2195644009,-0.90,-0.40,-0.14
2195645979,-0.90,-0.40,-0.14
2195647981,-0.90,-0.40,-0.14
2195649981,-0.90,-0.40,-0.14
2195652080,-0.90,-0.40,-0.14
2195653986,-0.88,-0.39,-0.14
2195655975,-0.88,-0.39,-0.14
2195657981,-0.88,-0.39,-0.14
2195659979,-0.88,-0.39,-0.14
2195661979,-0.88,-0.39,-0.14
2195663978,-0.88,-0.39,-0.14
2195665978,-0.86,-0.40,-0.13
2195667973,-0.86,-0.40,-0.13
2195669979,-0.86,-0.40,-0.13
2195672016,-0.86,-0.40,-0.13
2195674005,-0.86,-0.40,-0.13
2195676099,-0.91,-0.45,-0.16
2195678049,-0.91,-0.45,-0.16
2195680026,-0.91,-0.45,-0.16
2195682012,-0.91,-0.45,-0.16
2195684017,-0.91,-0.45,-0.16
2195686009,-0.88,-0.44,-0.11
2195687959,-0.88,-0.44,-0.11
2195689959,-0.88,-0.44,-0.11
2195691973,-0.88,-0.44,-0.11
2195693960,-0.88,-0.44,-0.11
2195696003,-0.90,-0.43,-0.14
2195698025,-0.90,-0.43,-0.14
2195699958,-0.90,-0.43,-0.14
2195702083,-0.90,-0.43,-0.14
2195703959,-0.90,-0.43,-0.14
2195705957,-0.86,-0.42,-0.13
2195707957,-0.86,-0.42,-0.13
2195709958,-0.86,-0.42,-0.13
2195711957,-0.86,-0.42,-0.13
2195713957,-0.86,-0.42,-0.13
2195715958,-0.84,-0.41,-0.12
2195717959,-0.84,-0.41,-0.12
2195720010,-0.84,-0.41,-0.12
2195858052,-0.94,-0.45,-0.20
2195860006,-0.94,-0.45,-0.20
2195862005,-0.94,-0.45,-0.20
2195864006,-0.94,-0.45,-0.20
2195866006,-0.94,-0.45,-0.20
2195868008,-0.93,-0.40,-0.15
2195870009,-0.93,-0.40,-0.15
2195872009,-0.93,-0.40,-0.15
2195873979,-0.93,-0.40,-0.15
2195876096,-0.93,-0.40,-0.15
2195877987,-0.92,-0.36,-0.09
2195879981,-0.92,-0.36,-0.09
2195881977,-0.92,-0.36,-0.09
2195883977,-0.92,-0.36,-0.09
2195885975,-0.92,-0.36,-0.09
2195887974,-0.92,-0.34,-0.06
2195889983,-0.92,-0.34,-0.06
2195891990,-0.92,-0.34,-0.06
2195893979,-0.92,-0.34,-0.06
2195895989,-0.92,-0.34,-0.06
2195898012,-0.95,-0.34,-0.07
2195900008,-0.95,-0.34,-0.07
2195902104,-0.95,-0.34,-0.07
2195904007,-0.95,-0.34,-0.07
2195906008,-0.95,-0.34,-0.07
2195908044,-0.98,-0.33,-0.02
2195910017,-0.98,-0.33,-0.02
2195911977,-0.98,-0.33,-0.02
2195913976,-0.98,-0.33,-0.02
2195915986,-0.98,-0.33,-0.02
2195917978,-0.98,-0.35,-0.01
2195920014,-0.98,-0.35,-0.01
2195921974,-0.98,-0.35,-0.01
2195923978,-0.98,-0.35,-0.01
2195926092,-0.98,-0.35,-0.01
