timestamp,accX,accY,accZ
2426716047,-0.84,-0.55,-0.10
2426718007,-0.84,-0.55,-0.10
2426719986,-0.84,-0.55,-0.10
2426721991,-0.84,-0.55,-0.10
2426723990,-0.84,-0.55,-0.10
2426726104,-0.84,-0.54,-0.10
2426727995,-0.84,-0.54,-0.10
2426729991,-0.84,-0.54,-0.10
2426731991,-0.84,-0.54,-0.10
2426733994,-0.84,-0.54,-0.10
2426735990,-0.84,-0.54,-0.10
2426737987,-0.84,-0.54,-0.10
2426739991,-0.84,-0.54,-0.10
2426741990,-0.84,-0.54,-0.10
2426743990,-0.84,-0.54,-0.10
2426745991,-0.84,-0.54,-0.09
2426747992,-0.84,-0.54,-0.09
2426749995,-0.84,-0.54,-0.09
2426752066,-0.84,-0.54,-0.09
2426753990,-0.84,-0.54,-0.09
2426756073,-0.84,-0.55,-0.09
2426758030,-0.84,-0.55,-0.09
2426760010,-0.84,-0.55,-0.09
2426762007,-0.84,-0.55,-0.09
2426764005,-0.84,-0.55,-0.09
2426766008,-0.84,-0.55,-0.09
2426768005,-0.84,-0.55,-0.09
2426770004,-0.84,-0.55,-0.09
2426771991,-0.84,-0.55,-0.09
2426773990,-0.84,-0.55,-0.09
2426776099,-0.84,-0.54,-0.09
2426777996,-0.84,-0.54,-0.09
2426779987,-0.84,-0.54,-0.09
2426781987,-0.84,-0.54,-0.09
2426783991,-0.84,-0.54,-0.09
2426785990,-0.85,-0.53,-0.11
2426787991,-0.85,-0.53,-0.11
2426789991,-0.85,-0.53,-0.11
2426791991,-0.85,-0.53,-0.11
2426793994,-0.85,-0.53,-0.11
2426796018,-0.85,-0.53,-0.09
2426798010,-0.85,-0.53,-0.09
2426800012,-0.85,-0.53,-0.09
2426802118,-0.85,-0.53,-0.09
2426804012,-0.85,-0.53,-0.09
2426806011,-0.84,-0.53,-0.09
2426808009,-0.84,-0.53,-0.09
2426809990,-0.84,-0.53,-0.09
2426811991,-0.84,-0.53,-0.09
2426814033,-0.84,-0.53,-0.09
2426815992,-0.84,-0.53,-0.10
2426818009,-0.84,-0.53,-0.10
2426819986,-0.84,-0.53,-0.10
2426821990,-0.84,-0.53,-0.10
2426823992,-0.84,-0.53,-0.10
2426826102,-0.84,-0.53,-0.09
2426827998,-0.84,-0.53,-0.09
2426829991,-0.84,-0.53,-0.09
2426831987,-0.84,-0.53,-0.09
2426833990,-0.84,-0.53,-0.09
2426836023,-0.84,-0.54,-0.10
2426838009,-0.84,-0.54,-0.10
2426840009,-0.84,-0.54,-0.10
2426842022,-0.84,-0.54,-0.10
2426844044,-0.84,-0.54,-0.10
2426846015,-0.84,-0.54,-0.09
2426848063,-0.84,-0.54,-0.09
2426850050,-0.84,-0.54,-0.09
2426852134,-0.84,-0.54,-0.09
2426854014,-0.84,-0.54,-0.09
2426855990,-0.85,-0.53,-0.09
2426857987,-0.85,-0.53,-0.09
2426859986,-0.85,-0.53,-0.09
2426861987,-0.85,-0.53,-0.09
2426863998,-0.85,-0.53,-0.09
2426865991,-0.84,-0.53,-0.09
2426867989,-0.84,-0.53,-0.09
2426869991,-0.84,-0.53,-0.09
2426871991,-0.84,-0.53,-0.09
2426873992,-0.84,-0.53,-0.09
2426876109,-0.84,-0.54,-0.10
2426878016,-0.84,-0.54,-0.10
2426880015,-0.84,-0.54,-0.10
2426882016,-0.84,-0.54,-0.10
2426884013,-0.84,-0.54,-0.10
2426886017,-0.84,-0.55,-0.10
2426888009,-0.84,-0.55,-0.10
2426889990,-0.84,-0.55,-0.10
2426891992,-0.84,-0.55,-0.10
2426893989,-0.84,-0.55,-0.10
2426895995,-0.84,-0.55,-0.10
2426897990,-0.84,-0.55,-0.11
2426899993,-0.84,-0.55,-0.11
2426902097,-0.84,-0.55,-0.11
2426903984,-0.84,-0.55,-0.11
2426905990,-0.84,-0.55,-0.11
2426907986,-0.84,-0.54,-0.06
2426909985,-0.84,-0.54,-0.06
2426911987,-0.84,-0.54,-0.06
2426913986,-0.84,-0.54,-0.06
2426916017,-0.84,-0.54,-0.06
2426918054,-0.84,-0.55,-0.07
2426920047,-0.84,-0.55,-0.07
2426922051,-0.84,-0.55,-0.07
2426924009,-0.84,-0.55,-0.07
2426926125,-0.84,-0.55,-0.07
2426928016,-0.84,-0.55,-0.09
2426930013,-0.84,-0.55,-0.09
2426932015,-0.84,-0.55,-0.09
2426933987,-0.84,-0.55,-0.09
2426935986,-0.84,-0.55,-0.09
2426937987,-0.84,-0.55,-0.09
2426939992,-0.84,-0.55,-0.09
2426941992,-0.84,-0.55,-0.09
2426943987,-0.84,-0.55,-0.09
2426945985,-0.84,-0.55,-0.09
2426947990,-0.84,-0.54,-0.10
2426949987,-0.84,-0.54,-0.10
2426952081,-0.84,-0.54,-0.10
2426953991,-0.84,-0.54,-0.10
2426956021,-0.84,-0.54,-0.10
2426958016,-0.84,-0.54,-0.09
2426960016,-0.84,-0.54,-0.09
2426962012,-0.84,-0.54,-0.09
2426964014,-0.84,-0.54,-0.09
2426966009,-0.84,-0.54,-0.09
2426967999,-0.83,-0.54,-0.10
2426969989,-0.83,-0.54,-0.10
2426971987,-0.83,-0.54,-0.10
2426973992,-0.83,-0.54,-0.10
2426976088,-0.83,-0.54,-0.10
2426977993,-0.83,-0.54,-0.09
2426979985,-0.83,-0.54,-0.09
2426981990,-0.83,-0.54,-0.09
2426983991,-0.83,-0.54,-0.09
2426985986,-0.83,-0.54,-0.09
2426987991,-0.84,-0.54,-0.10
2426989990,-0.84,-0.54,-0.10
2426991991,-0.84,-0.54,-0.10
2426993991,-0.84,-0.54,-0.10
2426996026,-0.84,-0.54,-0.10
2426998014,-0.84,-0.53,-0.10
2427000019,-0.84,-0.53,-0.10
2427002116,-0.84,-0.53,-0.10
2427004043,-0.84,-0.53,-0.10
2427006061,-0.84,-0.53,-0.10
2427008069,-0.84,-0.54,-0.09
2427010020,-0.84,-0.54,-0.09
2427012011,-0.84,-0.54,-0.09
2427013990,-0.84,-0.54,-0.09
2427015990,-0.84,-0.54,-0.09
2427017991,-0.84,-0.53,-0.10
2427020027,-0.84,-0.53,-0.10
2427022012,-0.84,-0.53,-0.10
2427023987,-0.84,-0.53,-0.10
2427026101,-0.84,-0.53,-0.10
2427027995,-0.84,-0.53,-0.10
2427029991,-0.84,-0.53,-0.10
2427031989,-0.84,-0.53,-0.10
2427033990,-0.84,-0.53,-0.10
2427036028,-0.84,-0.53,-0.10
2427038011,-0.84,-0.54,-0.11
2427040014,-0.84,-0.54,-0.11
2427042015,-0.84,-0.54,-0.11
2427044008,-0.84,-0.54,-0.11
2427046008,-0.84,-0.54,-0.11
2427048007,-0.84,-0.54,-0.10
2427049991,-0.84,-0.54,-0.10
2427052088,-0.84,-0.54,-0.10
2427053991,-0.84,-0.54,-0.10
2427055986,-0.84,-0.54,-0.10
2427057991,-0.84,-0.54,-0.11
2427059989,-0.84,-0.54,-0.11
2427061992,-0.84,-0.54,-0.11
2427063992,-0.84,-0.54,-0.11
2427065986,-0.84,-0.54,-0.11
2427067991,-0.84,-0.54,-0.10
2427069987,-0.84,-0.54,-0.10
2427071991,-0.84,-0.54,-0.10
2427073991,-0.84,-0.54,-0.10
2427076108,-0.84,-0.54,-0.10
2427078012,-0.84,-0.54,-0.09
2427080014,-0.84,-0.54,-0.09
2427082014,-0.84,-0.54,-0.09
2427084010,-0.84,-0.54,-0.09
2427086009,-0.84,-0.54,-0.09
2427088009,-0.84,-0.54,-0.09
2427089991,-0.84,-0.54,-0.10
2427091991,-0.84,-0.54,-0.10
2427093992,-0.84,-0.54,-0.10
2427095998,-0.84,-0.54,-0.10
2427097989,-0.84,-0.54,-0.10
2427099993,-0.83,-0.55,-0.10
2427102105,-0.83,-0.55,-0.10
2427103991,-0.83,-0.55,-0.10
2427105987,-0.83,-0.55,-0.10
2427107986,-0.83,-0.55,-0.10
2427109990,-0.84,-0.54,-0.09
2427111992,-0.84,-0.54,-0.09
2427113990,-0.84,-0.54,-0.09
2427116029,-0.84,-0.54,-0.09
2427118033,-0.84,-0.54,-0.09
2427119974,-0.84,-0.54,-0.09
2427122079,-0.84,-0.54,-0.09
2427124043,-0.84,-0.54,-0.09
2427126129,-0.84,-0.54,-0.09
2427128014,-0.84,-0.54,-0.09
2427130015,-0.84,-0.55,-0.09
2427132010,-0.84,-0.55,-0.09
2427134001,-0.84,-0.55,-0.09
2427135992,-0.84,-0.55,-0.09
2427137990,-0.84,-0.55,-0.09
2427139987,-0.83,-0.55,-0.10
2427141991,-0.83,-0.55,-0.10
2427143987,-0.83,-0.55,-0.10
2427145989,-0.83,-0.55,-0.10
2427147987,-0.83,-0.55,-0.10
2427149991,-0.84,-0.55,-0.10
2427152084,-0.84,-0.55,-0.10
2427153986,-0.84,-0.55,-0.10
2427156018,-0.84,-0.55,-0.10
2427158013,-0.84,-0.55,-0.10
2427160010,-0.84,-0.55,-0.09
2427162013,-0.84,-0.55,-0.09
2427164011,-0.84,-0.55,-0.09
2427166011,-0.84,-0.55,-0.09
2427168006,-0.84,-0.55,-0.09
2427169992,-0.84,-0.55,-0.09
2427171992,-0.84,-0.55,-0.09
2427173992,-0.84,-0.55,-0.09
2427176089,-0.84,-0.55,-0.09
2427177996,-0.84,-0.55,-0.09
2427179992,-0.84,-0.54,-0.10
2427181990,-0.84,-0.54,-0.10
2427183987,-0.84,-0.54,-0.10
2427185992,-0.84,-0.54,-0.10
2427187992,-0.84,-0.54,-0.10
2427189991,-0.84,-0.54,-0.09
2427191993,-0.84,-0.54,-0.09
2427193994,-0.84,-0.54,-0.09
2427196023,-0.84,-0.54,-0.09
2427198016,-0.84,-0.54,-0.09
2427200013,-0.83,-0.54,-0.09
2427202123,-0.83,-0.54,-0.09
2427204041,-0.83,-0.54,-0.09
2427206023,-0.83,-0.54,-0.09
2427207968,-0.83,-0.54,-0.09
2427210059,-0.84,-0.54,-0.10
2427212012,-0.84,-0.54,-0.10
2427214010,-0.84,-0.54,-0.10
2427215984,-0.84,-0.54,-0.10
2427217992,-0.84,-0.54,-0.10
2427219990,-0.84,-0.54,-0.10
2427222046,-0.84,-0.54,-0.10
2427224036,-0.84,-0.54,-0.10
2427226105,-0.84,-0.54,-0.10
2427227996,-0.84,-0.54,-0.10
2427229988,-0.84,-0.54,-0.10
2427231986,-0.84,-0.54,-0.10
2427233990,-0.84,-0.54,-0.10
2427236029,-0.84,-0.54,-0.10
2427238010,-0.84,-0.54,-0.10
2427240008,-0.84,-0.54,-0.10
2427242006,-0.84,-0.54,-0.10
2427244009,-0.84,-0.54,-0.10
2427246012,-0.84,-0.54,-0.10
2427248012,-0.84,-0.54,-0.10
2427249996,-0.84,-0.54,-0.09
2427252087,-0.84,-0.54,-0.09
2427253992,-0.84,-0.54,-0.09
2427255988,-0.84,-0.54,-0.09
2427257991,-0.84,-0.54,-0.09
2427259988,-0.84,-0.54,-0.09
2427261991,-0.84,-0.54,-0.09
2427263986,-0.84,-0.54,-0.09
2427265991,-0.84,-0.54,-0.09
2427267991,-0.84,-0.54,-0.09
2427269990,-0.84,-0.54,-0.09
2427271985,-0.84,-0.54,-0.10
2427273991,-0.84,-0.54,-0.10
2427276106,-0.84,-0.54,-0.10
2427278018,-0.84,-0.54,-0.10
2427280010,-0.84,-0.54,-0.10
2427282015,-0.84,-0.54,-0.09
2427284013,-0.84,-0.54,-0.09
2427286012,-0.84,-0.54,-0.09
2427288009,-0.84,-0.54,-0.09
2427289992,-0.84,-0.54,-0.09
2427291988,-0.84,-0.54,-0.09
2427293993,-0.84,-0.54,-0.09
2427295998,-0.84,-0.54,-0.09
2427297985,-0.84,-0.54,-0.09
2427299993,-0.84,-0.54,-0.09
2427302091,-0.84,-0.54,-0.11
2427303992,-0.84,-0.54,-0.11
2427305987,-0.84,-0.54,-0.11
2427307991,-0.84,-0.54,-0.11
2427309986,-0.84,-0.54,-0.11
2427311986,-0.84,-0.54,-0.10
2427313985,-0.84,-0.54,-0.10
2427316019,-0.84,-0.54,-0.10
2427318039,-0.84,-0.54,-0.10
2427320062,-0.84,-0.54,-0.10
2427322031,-0.84,-0.54,-0.09
2427324048,-0.84,-0.54,-0.09
2427326127,-0.84,-0.54,-0.09
2427328022,-0.84,-0.54,-0.09
2427330014,-0.84,-0.54,-0.09
2427332011,-0.84,-0.54,-0.09
2427334017,-0.84,-0.54,-0.09
2427335987,-0.84,-0.54,-0.09
2427337990,-0.84,-0.54,-0.09
2427339987,-0.84,-0.54,-0.09
2427341986,-0.83,-0.54,-0.09
2427343991,-0.83,-0.54,-0.09
2427345985,-0.83,-0.54,-0.09
2427347991,-0.83,-0.54,-0.09
2427349989,-0.83,-0.54,-0.09
2427352086,-0.83,-0.55,-0.10
2427353987,-0.83,-0.55,-0.10
2427356022,-0.83,-0.55,-0.10
2427358017,-0.83,-0.55,-0.10
2427360013,-0.83,-0.55,-0.10
2427362034,-0.83,-0.54,-0.11
2427364068,-0.83,-0.54,-0.11
2427366050,-0.83,-0.54,-0.11
2427368014,-0.83,-0.54,-0.11
2427370019,-0.83,-0.54,-0.11
2427371987,-0.83,-0.54,-0.10
2427373982,-0.83,-0.54,-0.10
2427376106,-0.83,-0.54,-0.10
2427377995,-0.83,-0.54,-0.10
2427379989,-0.83,-0.54,-0.10
2427381985,-0.84,-0.55,-0.10
2427383987,-0.84,-0.55,-0.10
2427385986,-0.84,-0.55,-0.10
2427387988,-0.84,-0.55,-0.10
2427389991,-0.84,-0.55,-0.10
2427391991,-0.84,-0.54,-0.10
2427393992,-0.84,-0.54,-0.10
2427396029,-0.84,-0.54,-0.10
2427398017,-0.84,-0.54,-0.10
2427400013,-0.84,-0.54,-0.10
2427402121,-0.84,-0.54,-0.09
2427404016,-0.84,-0.54,-0.09
2427406014,-0.84,-0.54,-0.09
2427408009,-0.84,-0.54,-0.09
2427409991,-0.84,-0.54,-0.09
2427411991,-0.84,-0.55,-0.10
2427413991,-0.84,-0.55,-0.10
2427415992,-0.84,-0.55,-0.10
2427417989,-0.84,-0.55,-0.10
2427419985,-0.84,-0.55,-0.10
2427421994,-0.84,-0.55,-0.11
2427424011,-0.84,-0.55,-0.11
2427426098,-0.84,-0.55,-0.11
2427428038,-0.84,-0.55,-0.11
2427430063,-0.84,-0.55,-0.11
2427432031,-0.83,-0.55,-0.11
2427433987,-0.83,-0.55,-0.11
2427436031,-0.83,-0.55,-0.11
2427438010,-0.83,-0.55,-0.11
2427440012,-0.83,-0.55,-0.11
2427442017,-0.84,-0.54,-0.10
2427444010,-0.84,-0.54,-0.10
2427446014,-0.84,-0.54,-0.10
2427448008,-0.84,-0.54,-0.10
2427449987,-0.84,-0.54,-0.10
2427452099,-0.84,-0.54,-0.10
2427453995,-0.84,-0.54,-0.10
2427455992,-0.84,-0.54,-0.10
2427457989,-0.84,-0.54,-0.10
2427459987,-0.84,-0.54,-0.10
2427461991,-0.84,-0.54,-0.10
2427463991,-0.84,-0.54,-0.09
2427465991,-0.84,-0.54,-0.09
2427467989,-0.84,-0.54,-0.09
2427469986,-0.84,-0.54,-0.09
2427471986,-0.84,-0.54,-0.09
2427473990,-0.84,-0.55,-0.09
2427476104,-0.84,-0.55,-0.09
2427478014,-0.84,-0.55,-0.09
2427480014,-0.84,-0.55,-0.09
2427482015,-0.84,-0.55,-0.09
2427484015,-0.84,-0.54,-0.09
2427486012,-0.84,-0.54,-0.09
2427488009,-0.84,-0.54,-0.09
2427489991,-0.84,-0.54,-0.09
2427491991,-0.84,-0.54,-0.09
2427493991,-0.84,-0.55,-0.10
2427495995,-0.84,-0.55,-0.10
2427497992,-0.84,-0.55,-0.10
2427500000,-0.84,-0.55,-0.10
2427502108,-0.84,-0.55,-0.10
2427503990,-0.84,-0.54,-0.10
2427505989,-0.84,-0.54,-0.10
2427507991,-0.84,-0.54,-0.10
2427509990,-0.84,-0.54,-0.10
2427511990,-0.84,-0.54,-0.10
2427513991,-0.84,-0.54,-0.11
2427516016,-0.84,-0.54,-0.11
2427518017,-0.84,-0.54,-0.11
2427520022,-0.84,-0.54,-0.11
2427522042,-0.84,-0.54,-0.11
2427524065,-0.84,-0.54,-0.11
2427526123,-0.84,-0.54,-0.11
2427528040,-0.84,-0.54,-0.11
2427530017,-0.84,-0.54,-0.11
2427532046,-0.84,-0.54,-0.11
2427534016,-0.84,-0.54,-0.10
2427535991,-0.84,-0.54,-0.10
2427537991,-0.84,-0.54,-0.10
2427539986,-0.84,-0.54,-0.10
2427541991,-0.84,-0.54,-0.10
2427543985,-0.85,-0.54,-0.10
2427545987,-0.85,-0.54,-0.10
2427547990,-0.85,-0.54,-0.10
2427549985,-0.85,-0.54,-0.10
2427552106,-0.85,-0.54,-0.10
2427553983,-0.84,-0.54,-0.10
2427556016,-0.84,-0.54,-0.10
2427558013,-0.84,-0.54,-0.10
2427560012,-0.84,-0.54,-0.10
2427562010,-0.84,-0.54,-0.10
2427564008,-0.83,-0.55,-0.10
2427566010,-0.83,-0.55,-0.10
2427567999,-0.83,-0.55,-0.10
2427569991,-0.83,-0.55,-0.10
2427571990,-0.83,-0.55,-0.10
2427573991,-0.83,-0.55,-0.10
2427576091,-0.83,-0.55,-0.10
2427577999,-0.83,-0.55,-0.10
2427579991,-0.83,-0.55,-0.10
2427581979,-0.83,-0.55,-0.10
2427583972,-0.84,-0.55,-0.10
2427585976,-0.84,-0.55,-0.10
2427587976,-0.84,-0.55,-0.10
2427589974,-0.84,-0.55,-0.10
2427591980,-0.84,-0.55,-0.10
2427593981,-0.84,-0.54,-0.10
2427596015,-0.84,-0.54,-0.10
2427598005,-0.84,-0.54,-0.10
2427600002,-0.84,-0.54,-0.10
2427602115,-0.84,-0.54,-0.10
2427604003,-0.84,-0.54,-0.10
2427606004,-0.84,-0.54,-0.10
2427608007,-0.84,-0.54,-0.10
2427609974,-0.84,-0.54,-0.10
2427611977,-0.84,-0.54,-0.10
2427613976,-0.84,-0.54,-0.10
2427615978,-0.84,-0.54,-0.10
2427617979,-0.84,-0.54,-0.10
2427619979,-0.84,-0.54,-0.10
2427622054,-0.84,-0.54,-0.10
2427624027,-0.84,-0.54,-0.10
2427626084,-0.84,-0.54,-0.10
2427627986,-0.84,-0.54,-0.10
2427629977,-0.84,-0.54,-0.10
2427631977,-0.84,-0.54,-0.10
2427634050,-0.84,-0.54,-0.11
2427636026,-0.84,-0.54,-0.11
2427638019,-0.84,-0.54,-0.11
2427640003,-0.84,-0.54,-0.11
2427641998,-0.84,-0.54,-0.11
2427644008,-0.84,-0.55,-0.10
2427646001,-0.84,-0.55,-0.10
2427648002,-0.84,-0.55,-0.10
2427650006,-0.84,-0.55,-0.10
2427652003,-0.84,-0.55,-0.10
2427653978,-0.84,-0.55,-0.10
2427655978,-0.83,-0.55,-0.10
2427657975,-0.83,-0.55,-0.10
2427659975,-0.83,-0.55,-0.10
2427661979,-0.83,-0.55,-0.10
2427663979,-0.83,-0.55,-0.10
2427665978,-0.83,-0.54,-0.10
2427667977,-0.83,-0.54,-0.10
2427669975,-0.83,-0.54,-0.10
2427671981,-0.83,-0.54,-0.10
2427673980,-0.83,-0.54,-0.10
2427675989,-0.84,-0.54,-0.09
2427678011,-0.84,-0.54,-0.09
2427680004,-0.84,-0.54,-0.09
2427682002,-0.84,-0.54,-0.09
2427684005,-0.84,-0.54,-0.09
2427686004,-0.84,-0.54,-0.09
2427688003,-0.84,-0.54,-0.09
2427689986,-0.84,-0.54,-0.09
2427691981,-0.84,-0.54,-0.09
2427693979,-0.84,-0.54,-0.09
2427695992,-0.84,-0.55,-0.09
2427697976,-0.84,-0.55,-0.09
2427699979,-0.84,-0.55,-0.09
2427702007,-0.84,-0.55,-0.09
2427703979,-0.84,-0.55,-0.09
2427705977,-0.84,-0.55,-0.09
2427707979,-0.84,-0.55,-0.09
2427709976,-0.84,-0.55,-0.09
2427711977,-0.84,-0.55,-0.09
2427713979,-0.84,-0.55,-0.09
2427715978,-0.84,-0.54,-0.10
2427718017,-0.84,-0.54,-0.10
2427720006,-0.84,-0.54,-0.10
2427722006,-0.84,-0.54,-0.10
2427724125,-0.84,-0.54,-0.10
2427726054,-0.83,-0.55,-0.09
2427728025,-0.83,-0.55,-0.09
2427730006,-0.83,-0.55,-0.09
2427732004,-0.83,-0.55,-0.09
2427734039,-0.83,-0.55,-0.09
2427736020,-0.84,-0.54,-0.10
2427737978,-0.84,-0.54,-0.10
2427739976,-0.84,-0.54,-0.10
2427741975,-0.84,-0.54,-0.10
2427743975,-0.84,-0.54,-0.10
2427745976,-0.84,-0.54,-0.09
2427747980,-0.84,-0.54,-0.09
2427749993,-0.84,-0.54,-0.09
2427752001,-0.84,-0.54,-0.09
2427753979,-0.84,-0.54,-0.09
2427755980,-0.84,-0.54,-0.10
2427758018,-0.84,-0.54,-0.10
2427760003,-0.84,-0.54,-0.10
2427762004,-0.84,-0.54,-0.10
2427764006,-0.84,-0.54,-0.10
2427766008,-0.84,-0.54,-0.09
2427768002,-0.84,-0.54,-0.09
2427770006,-0.84,-0.54,-0.09
2427771978,-0.84,-0.54,-0.09
2427773980,-0.84,-0.54,-0.09
2427775996,-0.84,-0.54,-0.09
2427777980,-0.84,-0.54,-0.09
2427779981,-0.84,-0.54,-0.09
2427781978,-0.84,-0.54,-0.09
2427783981,-0.84,-0.54,-0.09
2427785978,-0.84,-0.53,-0.09
2427787974,-0.84,-0.53,-0.09
2427789980,-0.84,-0.53,-0.09
2427791979,-0.84,-0.53,-0.09
2427793981,-0.84,-0.53,-0.09
2427795992,-0.83,-0.54,-0.09
2427798008,-0.83,-0.54,-0.09
2427800003,-0.83,-0.54,-0.09
2427802035,-0.83,-0.54,-0.09
2427804004,-0.83,-0.54,-0.09
2427806003,-0.84,-0.53,-0.08
2427808005,-0.84,-0.53,-0.08
2427810033,-0.84,-0.53,-0.08
2427812039,-0.84,-0.53,-0.08
2427813977,-0.84,-0.53,-0.08
2427815978,-0.84,-0.53,-0.07
2427817974,-0.84,-0.53,-0.07
2427819978,-0.84,-0.53,-0.07
2427821979,-0.84,-0.53,-0.07
2427824000,-0.84,-0.53,-0.07
2427826003,-0.84,-0.54,-0.08
2427827985,-0.84,-0.54,-0.08
2427829975,-0.84,-0.54,-0.08
2427831980,-0.84,-0.54,-0.08
2427833979,-0.84,-0.54,-0.08
2427835979,-0.84,-0.54,-0.08
2427838052,-0.84,-0.54,-0.07
2427840007,-0.84,-0.54,-0.07
2427842009,-0.84,-0.54,-0.07
2427844004,-0.84,-0.54,-0.07
2427846006,-0.84,-0.54,-0.07
2427848006,-0.84,-0.54,-0.08
2427850013,-0.84,-0.54,-0.08
2427852000,-0.84,-0.54,-0.08
2427853978,-0.84,-0.54,-0.08
2427855980,-0.84,-0.54,-0.08
2427857978,-0.84,-0.54,-0.09
2427859976,-0.84,-0.54,-0.09
2427861979,-0.84,-0.54,-0.09
2427863977,-0.84,-0.54,-0.09
2427865977,-0.84,-0.54,-0.09
2427867978,-0.84,-0.55,-0.09
2427869977,-0.84,-0.55,-0.09
2427871978,-0.84,-0.55,-0.09
2427873975,-0.84,-0.55,-0.09
2427875988,-0.84,-0.55,-0.09
2427878017,-0.84,-0.54,-0.09
2427880009,-0.84,-0.54,-0.09
2427882004,-0.84,-0.54,-0.09
2427884003,-0.84,-0.54,-0.09
2427886006,-0.84,-0.54,-0.09
2427888010,-0.84,-0.55,-0.10
2427889979,-0.84,-0.55,-0.10
2427891979,-0.84,-0.55,-0.10
2427893984,-0.84,-0.55,-0.10
2427895991,-0.84,-0.55,-0.10
2427897975,-0.84,-0.55,-0.10
2427899978,-0.84,-0.55,-0.10
2427902003,-0.84,-0.55,-0.10
2427903976,-0.84,-0.55,-0.10
2427905977,-0.84,-0.55,-0.10
2427907979,-0.84,-0.54,-0.10
2427909975,-0.84,-0.54,-0.10
2427911977,-0.84,-0.54,-0.10
2427913977,-0.84,-0.54,-0.10
2427915978,-0.84,-0.54,-0.10
2427918011,-0.84,-0.54,-0.11
2427920007,-0.84,-0.54,-0.11
2427922010,-0.84,-0.54,-0.11
2427924056,-0.84,-0.54,-0.11
2427926026,-0.84,-0.54,-0.11
2427928050,-0.84,-0.54,-0.10
2427930008,-0.84,-0.54,-0.10
2427932009,-0.84,-0.54,-0.10
2427934014,-0.84,-0.54,-0.10
2427935978,-0.84,-0.54,-0.10
2427937979,-0.83,-0.54,-0.10
2427939990,-0.83,-0.54,-0.10
2427942008,-0.83,-0.54,-0.10
2427943978,-0.83,-0.54,-0.10
2427945979,-0.83,-0.54,-0.10
2427947974,-0.84,-0.53,-0.09
2427949976,-0.84,-0.53,-0.09
2427951996,-0.84,-0.53,-0.09
2427953977,-0.84,-0.53,-0.09
2427955975,-0.84,-0.53,-0.09
2427958028,-0.84,-0.53,-0.09
2427960010,-0.84,-0.53,-0.09
2427962008,-0.84,-0.53,-0.09
2427964007,-0.84,-0.53,-0.09
2427966006,-0.84,-0.53,-0.09
2427968005,-0.84,-0.54,-0.09
2427969977,-0.84,-0.54,-0.09
2427971977,-0.84,-0.54,-0.09
2427973978,-0.84,-0.54,-0.09
2427975997,-0.84,-0.54,-0.09
2427977982,-0.84,-0.54,-0.09
2427979980,-0.84,-0.54,-0.09
2427981979,-0.84,-0.54,-0.09
2427983977,-0.84,-0.54,-0.09
2427985979,-0.84,-0.54,-0.09
2427987980,-0.84,-0.54,-0.10
2427989974,-0.84,-0.54,-0.10
2427991979,-0.84,-0.54,-0.10
2427993981,-0.84,-0.54,-0.10
2427995990,-0.84,-0.54,-0.10
2427998014,-0.84,-0.54,-0.09
2428000016,-0.84,-0.54,-0.09
2428002039,-0.84,-0.54,-0.09
2428004007,-0.84,-0.54,-0.09
2428006008,-0.84,-0.54,-0.09
2428008009,-0.84,-0.54,-0.09
2428010011,-0.84,-0.54,-0.09
2428011977,-0.84,-0.54,-0.09
2428013984,-0.84,-0.54,-0.09
2428015985,-0.84,-0.54,-0.09
2428017979,-0.84,-0.54,-0.09
2428019981,-0.84,-0.54,-0.09
2428021981,-0.84,-0.54,-0.09
2428024009,-0.84,-0.54,-0.09
2428026003,-0.84,-0.54,-0.09
2428027986,-0.84,-0.54,-0.09
2428029976,-0.85,-0.54,-0.10
2428031975,-0.85,-0.54,-0.10
2428033974,-0.85,-0.54,-0.10
2428035976,-0.85,-0.54,-0.10
2428038086,-0.85,-0.54,-0.10
2428040056,-0.84,-0.54,-0.10
2428042021,-0.84,-0.54,-0.10
2428044046,-0.84,-0.54,-0.10
2428046008,-0.84,-0.54,-0.10
2428048002,-0.84,-0.54,-0.10
2428050002,-0.84,-0.54,-0.08
2428052039,-0.84,-0.54,-0.08
2428054008,-0.84,-0.54,-0.08
2428055976,-0.84,-0.54,-0.08
2428057977,-0.84,-0.54,-0.08
2428059979,-0.84,-0.54,-0.09
2428061979,-0.84,-0.54,-0.09
2428063976,-0.84,-0.54,-0.09
2428065981,-0.84,-0.54,-0.09
2428067978,-0.84,-0.54,-0.09
2428069979,-0.84,-0.53,-0.08
2428071982,-0.84,-0.53,-0.08
2428073979,-0.84,-0.53,-0.08
2428075998,-0.84,-0.53,-0.08
2428078013,-0.84,-0.53,-0.08
2428080003,-0.84,-0.54,-0.10
2428082004,-0.84,-0.54,-0.10
2428084005,-0.84,-0.54,-0.10
2428086009,-0.84,-0.54,-0.10
2428088006,-0.84,-0.54,-0.10
2428089992,-0.84,-0.54,-0.09
2428091979,-0.84,-0.54,-0.09
2428093980,-0.84,-0.54,-0.09
2428095992,-0.84,-0.54,-0.09
2428097975,-0.84,-0.54,-0.09
2428099979,-0.84,-0.53,-0.09
2428102007,-0.84,-0.53,-0.09
2428103979,-0.84,-0.53,-0.09
2428105978,-0.84,-0.53,-0.09
2428107978,-0.84,-0.53,-0.09
2428109985,-0.84,-0.53,-0.09
2428111979,-0.84,-0.53,-0.09
2428113975,-0.84,-0.53,-0.09
2428115975,-0.84,-0.53,-0.09
2428118013,-0.84,-0.53,-0.09
2428120008,-0.84,-0.54,-0.09
2428122006,-0.84,-0.54,-0.09
2428124064,-0.84,-0.54,-0.09
2428126026,-0.84,-0.54,-0.09
2428128055,-0.84,-0.54,-0.09
2428130003,-0.84,-0.53,-0.09
2428132004,-0.84,-0.53,-0.09
2428134013,-0.84,-0.53,-0.09
2428135978,-0.84,-0.53,-0.09
2428137977,-0.84,-0.53,-0.09
2428139976,-0.84,-0.54,-0.08
2428141980,-0.84,-0.54,-0.08
2428143980,-0.84,-0.54,-0.08
2428146018,-0.84,-0.54,-0.08
2428147976,-0.84,-0.54,-0.08
2428149975,-0.85,-0.53,-0.09
2428151998,-0.85,-0.53,-0.09
2428153975,-0.85,-0.53,-0.09
2428155979,-0.85,-0.53,-0.09
2428158021,-0.85,-0.53,-0.09
2428160009,-0.84,-0.54,-0.09
2428162001,-0.84,-0.54,-0.09
2428164008,-0.84,-0.54,-0.09
2428166004,-0.84,-0.54,-0.09
2428168003,-0.84,-0.54,-0.09
2428170006,-0.84,-0.54,-0.09
2428171979,-0.84,-0.54,-0.09
2428173980,-0.84,-0.54,-0.09
2428176000,-0.84,-0.54,-0.09
2428177985,-0.84,-0.54,-0.09
2428179976,-0.84,-0.55,-0.09
2428181975,-0.84,-0.55,-0.09
2428183980,-0.84,-0.55,-0.09
2428185976,-0.84,-0.55,-0.09
2428187980,-0.84,-0.55,-0.09
2428189977,-0.84,-0.55,-0.10
2428191981,-0.84,-0.55,-0.10
2428193979,-0.84,-0.55,-0.10
2428195992,-0.84,-0.55,-0.10
2428198008,-0.84,-0.55,-0.10
2428200008,-0.83,-0.55,-0.11
2428202036,-0.83,-0.55,-0.11
2428204007,-0.83,-0.55,-0.11
2428206003,-0.83,-0.55,-0.11
2428208007,-0.83,-0.55,-0.11
2428210006,-0.84,-0.55,-0.11
2428211981,-0.84,-0.55,-0.11
2428213981,-0.84,-0.55,-0.11
2428215979,-0.84,-0.55,-0.11
2428217979,-0.84,-0.55,-0.11
2428219977,-0.84,-0.55,-0.11
2428221984,-0.83,-0.55,-0.12
2428224009,-0.83,-0.55,-0.12
2428226160,-0.83,-0.55,-0.12
2428228046,-0.83,-0.55,-0.12
2428230060,-0.83,-0.55,-0.12
2428232063,-0.84,-0.55,-0.11
2428234005,-0.84,-0.55,-0.11
2428235975,-0.84,-0.55,-0.11
2428238023,-0.84,-0.55,-0.11
2428240004,-0.84,-0.55,-0.11
2428242005,-0.83,-0.55,-0.10
2428244008,-0.83,-0.55,-0.10
2428246030,-0.83,-0.55,-0.10
2428248055,-0.83,-0.55,-0.10
2428250009,-0.83,-0.55,-0.10
2428252029,-0.83,-0.55,-0.11
2428253975,-0.83,-0.55,-0.11
2428255977,-0.83,-0.55,-0.11
2428257981,-0.83,-0.55,-0.11
2428259977,-0.83,-0.55,-0.11
2428261976,-0.83,-0.55,-0.11
2428263977,-0.83,-0.55,-0.11
2428265980,-0.83,-0.55,-0.11
2428267980,-0.83,-0.55,-0.11
2428269976,-0.83,-0.55,-0.11
2428271979,-0.84,-0.55,-0.11
2428273974,-0.84,-0.55,-0.11
2428275989,-0.84,-0.55,-0.11
2428278017,-0.84,-0.55,-0.11
2428280067,-0.84,-0.55,-0.11
2428282042,-0.84,-0.54,-0.11
2428284005,-0.84,-0.54,-0.11
2428286005,-0.84,-0.54,-0.11
2428288007,-0.84,-0.54,-0.11
2428290005,-0.84,-0.54,-0.11
2428292009,-0.85,-0.54,-0.11
2428293981,-0.85,-0.54,-0.11
2428295990,-0.85,-0.54,-0.11
2428297977,-0.85,-0.54,-0.11
2428299979,-0.85,-0.54,-0.11
2428302012,-0.84,-0.54,-0.09
2428303979,-0.84,-0.54,-0.09
2428305982,-0.84,-0.54,-0.09
2428307981,-0.84,-0.54,-0.09
2428309975,-0.84,-0.54,-0.09
2428311975,-0.84,-0.54,-0.10
2428313977,-0.84,-0.54,-0.10
2428315976,-0.84,-0.54,-0.10
2428318013,-0.84,-0.54,-0.10
2428320007,-0.84,-0.54,-0.10
2428322006,-0.84,-0.54,-0.10
2428324035,-0.84,-0.54,-0.10
2428326021,-0.84,-0.54,-0.10
2428328009,-0.84,-0.54,-0.10
2428330008,-0.84,-0.54,-0.10
2428331975,-0.84,-0.54,-0.10
2428333978,-0.84,-0.54,-0.10
2428335984,-0.84,-0.54,-0.10
2428338006,-0.84,-0.54,-0.10
2428340069,-0.84,-0.54,-0.10
2428342024,-0.84,-0.54,-0.09
2428343979,-0.84,-0.54,-0.09
2428345980,-0.84,-0.54,-0.09
2428347976,-0.84,-0.54,-0.09
2428350017,-0.84,-0.54,-0.09
2428352098,-0.84,-0.55,-0.09
2428353977,-0.84,-0.55,-0.09
2428355977,-0.84,-0.55,-0.09
2428358023,-0.84,-0.55,-0.09
2428360001,-0.84,-0.55,-0.09
2428362002,-0.84,-0.55,-0.09
2428364006,-0.84,-0.55,-0.09
2428366002,-0.84,-0.55,-0.09
2428368005,-0.84,-0.55,-0.09
2428370006,-0.84,-0.55,-0.09
2428371992,-0.84,-0.54,-0.09
2428373976,-0.84,-0.54,-0.09
2428376002,-0.84,-0.54,-0.09
2428377982,-0.84,-0.54,-0.09
2428379975,-0.84,-0.54,-0.09
2428381981,-0.84,-0.54,-0.10
2428383979,-0.84,-0.54,-0.10
2428386052,-0.84,-0.54,-0.10
2428388025,-0.84,-0.54,-0.10
2428389979,-0.84,-0.54,-0.10
2428391975,-0.84,-0.54,-0.09
2428393985,-0.84,-0.54,-0.09
2428395990,-0.84,-0.54,-0.09
2428398021,-0.84,-0.54,-0.09
2428400004,-0.84,-0.54,-0.09
2428402124,-0.84,-0.54,-0.09
2428404006,-0.84,-0.54,-0.09
2428406006,-0.84,-0.54,-0.09
2428408006,-0.84,-0.54,-0.09
2428410008,-0.84,-0.54,-0.09
2428411979,-0.84,-0.54,-0.09
2428413980,-0.84,-0.54,-0.08
2428415978,-0.84,-0.54,-0.08
2428417979,-0.84,-0.54,-0.08
2428419980,-0.84,-0.54,-0.08
2428421980,-0.84,-0.54,-0.08
2428424008,-0.84,-0.54,-0.09
2428425997,-0.84,-0.54,-0.09
2428427982,-0.84,-0.54,-0.09
2428429973,-0.84,-0.54,-0.09
2428431973,-0.84,-0.54,-0.09
2428434068,-0.84,-0.53,-0.09
2428436027,-0.84,-0.53,-0.09
2428438020,-0.84,-0.53,-0.09
2428440004,-0.84,-0.53,-0.09
2428442001,-0.84,-0.53,-0.09
2428444006,-0.84,-0.55,-0.09
2428445999,-0.84,-0.55,-0.09
2428448003,-0.84,-0.55,-0.09
2428450007,-0.84,-0.55,-0.09
2428452025,-0.84,-0.55,-0.09
2428454010,-0.84,-0.54,-0.10
2428455974,-0.84,-0.54,-0.10
2428457974,-0.84,-0.54,-0.10
2428459981,-0.84,-0.54,-0.10
2428461980,-0.84,-0.54,-0.10
2428463977,-0.84,-0.54,-0.10
2428465977,-0.84,-0.54,-0.10
2428467972,-0.84,-0.54,-0.10
2428469972,-0.84,-0.54,-0.10
2428471975,-0.84,-0.54,-0.10
2428473975,-0.83,-0.54,-0.10
2428475993,-0.83,-0.54,-0.10
2428478021,-0.83,-0.54,-0.10
2428480005,-0.83,-0.54,-0.10
2428482005,-0.83,-0.54,-0.10
2428484005,-0.85,-0.54,-0.09
2428486004,-0.85,-0.54,-0.09
2428488001,-0.85,-0.54,-0.09
2428490004,-0.85,-0.54,-0.09
2428491984,-0.85,-0.54,-0.09
2428494051,-0.84,-0.54,-0.10
2428496005,-0.84,-0.54,-0.10
2428498010,-0.84,-0.54,-0.10
2428499996,-0.84,-0.54,-0.10
2428502013,-0.84,-0.54,-0.10
2428503980,-0.84,-0.55,-0.11
2428505979,-0.84,-0.55,-0.11
2428507977,-0.84,-0.55,-0.11
2428509976,-0.84,-0.55,-0.11
2428511978,-0.84,-0.55,-0.11
2428513973,-0.84,-0.54,-0.10
2428515976,-0.84,-0.54,-0.10
2428518022,-0.84,-0.54,-0.10
2428520005,-0.84,-0.54,-0.10
2428522003,-0.84,-0.54,-0.10
2428524039,-0.84,-0.54,-0.09
2428526018,-0.84,-0.54,-0.09
2428528010,-0.84,-0.54,-0.09
2428530002,-0.84,-0.54,-0.09
2428531985,-0.84,-0.54,-0.09
2428533976,-0.84,-0.54,-0.09
2428535976,-0.84,-0.54,-0.09
2428537980,-0.84,-0.54,-0.09
2428540007,-0.84,-0.54,-0.09
2428542049,-0.84,-0.54,-0.09
2428544009,-0.83,-0.55,-0.09
2428545976,-0.83,-0.55,-0.09
2428547978,-0.83,-0.55,-0.09
2428549984,-0.83,-0.55,-0.09
2428552000,-0.83,-0.55,-0.09
2428553984,-0.83,-0.55,-0.09
2428556021,-0.83,-0.55,-0.09
2428558023,-0.83,-0.55,-0.09
2428560001,-0.83,-0.55,-0.09
2428562000,-0.83,-0.55,-0.09
2428564002,-0.83,-0.55,-0.11
2428566007,-0.83,-0.55,-0.11
2428568005,-0.83,-0.55,-0.11
2428570007,-0.83,-0.55,-0.11
2428571981,-0.83,-0.55,-0.11
2428573976,-0.84,-0.55,-0.11
2428576007,-0.84,-0.55,-0.11
2428577986,-0.84,-0.55,-0.11
2428579980,-0.84,-0.55,-0.11
2428581975,-0.84,-0.55,-0.11
2428583981,-0.84,-0.54,-0.11
2428586022,-0.84,-0.54,-0.11
2428588036,-0.84,-0.54,-0.11
2428589993,-0.84,-0.54,-0.11
2428591974,-0.84,-0.54,-0.11
2428593979,-0.84,-0.54,-0.11
2428595990,-0.83,-0.55,-0.10
2428598024,-0.83,-0.55,-0.10
2428600005,-0.83,-0.55,-0.10
2428602036,-0.83,-0.55,-0.10
2428604006,-0.83,-0.55,-0.10
2428606003,-0.84,-0.54,-0.11
2428608004,-0.84,-0.54,-0.11
2428610008,-0.84,-0.54,-0.11
2428611977,-0.84,-0.54,-0.11
2428613981,-0.84,-0.54,-0.11
2428615979,-0.84,-0.54,-0.10
2428617979,-0.84,-0.54,-0.10
2428619980,-0.84,-0.54,-0.10
2428622048,-0.84,-0.54,-0.10
2428624017,-0.84,-0.54,-0.10
2428625998,-0.83,-0.54,-0.11
2428627985,-0.83,-0.54,-0.11
2428629977,-0.83,-0.54,-0.11
2428631976,-0.83,-0.54,-0.11
2428634037,-0.83,-0.54,-0.11
2428636028,-0.84,-0.54,-0.11
2428638030,-0.84,-0.54,-0.11
2428640006,-0.84,-0.54,-0.11
2428642003,-0.84,-0.54,-0.11
2428644003,-0.84,-0.54,-0.11
2428646006,-0.84,-0.54,-0.10
2428648001,-0.84,-0.54,-0.10
2428650007,-0.84,-0.54,-0.10
2428652004,-0.84,-0.54,-0.10
2428653980,-0.84,-0.54,-0.10
2428655979,-0.84,-0.54,-0.10
2428658021,-0.84,-0.54,-0.10
2428659977,-0.84,-0.54,-0.10
2428661979,-0.84,-0.54,-0.10
2428663979,-0.84,-0.54,-0.10
2428665979,-0.84,-0.54,-0.09
2428667978,-0.84,-0.54,-0.09
2428669975,-0.84,-0.54,-0.09
2428671975,-0.84,-0.54,-0.09
2428673980,-0.84,-0.54,-0.09
2428675994,-0.84,-0.54,-0.09
2428678019,-0.84,-0.54,-0.09
2428680005,-0.84,-0.54,-0.09
2428682003,-0.84,-0.54,-0.09
2428684004,-0.84,-0.54,-0.09
2428686003,-0.84,-0.54,-0.10
2428688004,-0.84,-0.54,-0.10
2428690002,-0.84,-0.54,-0.10
2428691979,-0.84,-0.54,-0.10
2428693981,-0.84,-0.54,-0.10
2428696046,-0.84,-0.54,-0.09
2428698031,-0.84,-0.54,-0.09
2428699983,-0.84,-0.54,-0.09
2428702014,-0.84,-0.54,-0.09
2428703976,-0.84,-0.54,-0.09
2428705975,-0.84,-0.55,-0.10
2428707978,-0.84,-0.55,-0.10
2428709974,-0.84,-0.55,-0.10
2428711974,-0.84,-0.55,-0.10
2428713978,-0.84,-0.55,-0.10
2428715976,-0.84,-0.55,-0.10
2428718017,-0.84,-0.55,-0.10
2428720001,-0.84,-0.55,-0.10
2428722002,-0.84,-0.55,-0.10
2428724034,-0.84,-0.55,-0.10
2428726019,-0.84,-0.55,-0.10
2428728007,-0.84,-0.55,-0.10
2428730007,-0.84,-0.55,-0.10
2428731980,-0.84,-0.55,-0.10
2428733981,-0.84,-0.55,-0.10
2428735976,-0.84,-0.54,-0.09
2428737981,-0.84,-0.54,-0.09
2428739979,-0.84,-0.54,-0.09
2428741979,-0.84,-0.54,-0.09
2428743974,-0.84,-0.54,-0.09
2428745976,-0.83,-0.55,-0.09
2428747981,-0.83,-0.55,-0.09
2428749990,-0.83,-0.55,-0.09
2428752091,-0.83,-0.55,-0.09
2428753979,-0.83,-0.55,-0.09
2428755978,-0.84,-0.54,-0.09
2428758036,-0.84,-0.54,-0.09
2428760068,-0.84,-0.54,-0.09
2428762035,-0.84,-0.54,-0.09
2428764009,-0.84,-0.54,-0.09
2428766009,-0.84,-0.54,-0.10
2428768005,-0.84,-0.54,-0.10
2428770001,-0.84,-0.54,-0.10
2428772000,-0.84,-0.54,-0.10
2428774004,-0.84,-0.54,-0.10
2428776006,-0.84,-0.54,-0.09
2428777976,-0.84,-0.54,-0.09
2428779981,-0.84,-0.54,-0.09
2428781977,-0.84,-0.54,-0.09
2428783980,-0.84,-0.54,-0.09
2428785980,-0.84,-0.54,-0.09
2428787980,-0.84,-0.54,-0.09
2428789978,-0.84,-0.54,-0.09
2428791979,-0.84,-0.54,-0.09
2428793984,-0.84,-0.54,-0.09
2428795993,-0.84,-0.54,-0.09
2428798007,-0.84,-0.54,-0.09
2428800005,-0.84,-0.54,-0.09
2428802124,-0.84,-0.54,-0.09
2428804008,-0.84,-0.54,-0.09
2428806005,-0.84,-0.54,-0.09
2428808000,-0.84,-0.54,-0.09
2428810005,-0.84,-0.54,-0.09
2428811976,-0.84,-0.54,-0.09
2428813975,-0.84,-0.54,-0.09
2428815980,-0.84,-0.54,-0.09
2428817979,-0.84,-0.54,-0.09
2428819996,-0.84,-0.54,-0.09
2428822063,-0.84,-0.54,-0.09
2428824038,-0.84,-0.54,-0.09
2428825999,-0.84,-0.54,-0.09
2428827981,-0.84,-0.54,-0.09
2428829981,-0.84,-0.54,-0.09
2428831980,-0.84,-0.54,-0.09
2428833974,-0.84,-0.54,-0.09
2428835975,-0.84,-0.54,-0.09
2428838019,-0.83,-0.54,-0.09
2428840005,-0.83,-0.54,-0.09
2428842000,-0.83,-0.54,-0.09
2428844005,-0.83,-0.54,-0.09
2428846003,-0.83,-0.54,-0.09
2428848005,-0.84,-0.54,-0.09
2428850005,-0.84,-0.54,-0.09
2428851992,-0.84,-0.54,-0.09
2428853975,-0.84,-0.54,-0.09
2428855977,-0.84,-0.54,-0.09
2428857979,-0.85,-0.53,-0.09
2428859977,-0.85,-0.53,-0.09
2428862030,-0.85,-0.53,-0.09
2428863975,-0.85,-0.53,-0.09
2428865975,-0.85,-0.53,-0.09
2428867977,-0.84,-0.54,-0.09
2428869978,-0.84,-0.54,-0.09
2428871975,-0.84,-0.54,-0.09
2428873976,-0.84,-0.54,-0.09
2428875995,-0.84,-0.54,-0.09
2428878023,-0.84,-0.54,-0.10
2428880007,-0.84,-0.54,-0.10
2428882006,-0.84,-0.54,-0.10
2428884004,-0.84,-0.54,-0.10
2428886062,-0.84,-0.54,-0.10
2428888046,-0.84,-0.54,-0.10
2428890011,-0.84,-0.54,-0.10
2428892007,-0.84,-0.54,-0.10
2428894014,-0.84,-0.54,-0.10
2428895995,-0.84,-0.54,-0.10
2428897985,-0.84,-0.54,-0.10
2428899980,-0.84,-0.54,-0.10
2428902012,-0.84,-0.54,-0.10
2428903977,-0.84,-0.54,-0.10
2428905979,-0.84,-0.54,-0.10
2428907977,-0.84,-0.54,-0.10
2428909979,-0.84,-0.54,-0.10
2428911976,-0.84,-0.54,-0.10
2428913978,-0.84,-0.54,-0.10
2428915977,-0.84,-0.54,-0.10
2428918017,-0.84,-0.54,-0.10
2428920007,-0.84,-0.54,-0.10
2428922008,-0.84,-0.54,-0.10
2428924043,-0.84,-0.54,-0.10
2428926021,-0.84,-0.54,-0.10
2428928013,-0.84,-0.54,-0.10
2428930012,-0.84,-0.54,-0.10
2428931981,-0.84,-0.54,-0.10
2428933978,-0.84,-0.54,-0.10
2428935979,-0.84,-0.54,-0.10
2428937980,-0.84,-0.55,-0.10
2428939981,-0.84,-0.55,-0.10
2428941977,-0.84,-0.55,-0.10
2428943981,-0.84,-0.55,-0.10
2428945981,-0.84,-0.55,-0.10
2428947980,-0.84,-0.54,-0.09
2428949980,-0.84,-0.54,-0.09
2428951996,-0.84,-0.54,-0.09
2428953974,-0.84,-0.54,-0.09
2428955979,-0.84,-0.54,-0.09
2428958014,-0.84,-0.54,-0.09
2428960006,-0.84,-0.54,-0.09
2428962006,-0.84,-0.54,-0.09
2428964005,-0.84,-0.54,-0.09
2428966035,-0.84,-0.54,-0.09
2428968058,-0.84,-0.55,-0.09
2428970042,-0.84,-0.55,-0.09
2428972035,-0.84,-0.55,-0.09
2428974015,-0.84,-0.55,-0.09
2428976006,-0.84,-0.55,-0.09
2428977985,-0.84,-0.55,-0.09
2428979976,-0.84,-0.55,-0.10
2428981979,-0.84,-0.55,-0.10
2428983977,-0.84,-0.55,-0.10
2428985976,-0.84,-0.55,-0.10
2428987976,-0.84,-0.55,-0.10
2428989980,-0.83,-0.55,-0.11
2428991976,-0.83,-0.55,-0.11
2428993985,-0.83,-0.55,-0.11
2428995990,-0.83,-0.55,-0.11
2428998009,-0.83,-0.55,-0.11
2429000012,-0.83,-0.55,-0.11
2429002033,-0.83,-0.55,-0.11
2429004005,-0.83,-0.55,-0.11
2429006008,-0.83,-0.55,-0.11
2429008009,-0.83,-0.55,-0.11
2429009998,-0.84,-0.54,-0.11
2429011979,-0.84,-0.54,-0.11
2429013980,-0.84,-0.54,-0.11
2429015976,-0.84,-0.54,-0.11
2429017977,-0.84,-0.54,-0.11
2429019981,-0.84,-0.54,-0.11
2429021978,-0.84,-0.54,-0.11
2429024009,-0.84,-0.54,-0.11
2429026015,-0.84,-0.54,-0.11
2429028068,-0.84,-0.54,-0.11
2429030018,-0.84,-0.53,-0.10
2429031977,-0.84,-0.53,-0.10
2429033977,-0.84,-0.53,-0.10
2429035980,-0.84,-0.53,-0.10
2429038023,-0.84,-0.53,-0.10
2429040001,-0.84,-0.54,-0.09
2429042006,-0.84,-0.54,-0.09
2429044006,-0.84,-0.54,-0.09
2429046007,-0.84,-0.54,-0.09
2429048005,-0.84,-0.54,-0.09
2429050007,-0.84,-0.54,-0.09
2429052002,-0.84,-0.54,-0.09
2429053981,-0.84,-0.54,-0.09
2429055974,-0.84,-0.54,-0.09
2429057976,-0.84,-0.54,-0.09
2429059975,-0.84,-0.54,-0.09
2429061981,-0.84,-0.54,-0.09
2429063979,-0.84,-0.54,-0.09
2429065980,-0.84,-0.54,-0.09
2429068023,-0.84,-0.54,-0.09
2429069996,-0.84,-0.54,-0.10
2429071976,-0.84,-0.54,-0.10
2429073978,-0.84,-0.54,-0.10
2429075995,-0.84,-0.54,-0.10
2429078021,-0.84,-0.54,-0.10
2429080006,-0.84,-0.54,-0.09
2429082004,-0.84,-0.54,-0.09
2429084005,-0.84,-0.54,-0.09
2429086002,-0.84,-0.54,-0.09
2429088002,-0.84,-0.54,-0.09
2429090054,-0.84,-0.54,-0.10
2429092028,-0.84,-0.54,-0.10
2429093984,-0.84,-0.54,-0.10
2429095989,-0.84,-0.54,-0.10
2429097977,-0.84,-0.54,-0.10
2429099979,-0.84,-0.55,-0.10
2429102012,-0.84,-0.55,-0.10
2429103975,-0.84,-0.55,-0.10
2429105975,-0.84,-0.55,-0.10
2429107977,-0.84,-0.55,-0.10
2429109981,-0.84,-0.54,-0.09
2429111979,-0.84,-0.54,-0.09
2429113979,-0.84,-0.54,-0.09
2429115974,-0.84,-0.54,-0.09
2429118021,-0.84,-0.54,-0.09
2429120003,-0.84,-0.55,-0.09
2429122003,-0.84,-0.55,-0.09
2429124034,-0.84,-0.55,-0.09
2429126020,-0.84,-0.55,-0.09
2429128009,-0.84,-0.55,-0.09
2429130006,-0.83,-0.55,-0.09
2429131977,-0.83,-0.55,-0.09
2429133979,-0.83,-0.55,-0.09
2429136001,-0.83,-0.55,-0.09
2429138122,-0.83,-0.55,-0.09
2429140013,-0.83,-0.55,-0.09
2429141975,-0.83,-0.55,-0.09
2429143976,-0.83,-0.55,-0.09
2429145979,-0.83,-0.55,-0.09
2429147974,-0.83,-0.55,-0.09
2429149978,-0.84,-0.54,-0.09
2429152100,-0.84,-0.54,-0.09
2429153977,-0.84,-0.54,-0.09
2429155974,-0.84,-0.54,-0.09
2429158024,-0.84,-0.54,-0.09
2429160005,-0.84,-0.54,-0.09
2429162003,-0.84,-0.54,-0.09
2429164004,-0.84,-0.54,-0.09
2429166003,-0.84,-0.54,-0.09
2429168005,-0.84,-0.54,-0.09
2429170045,-0.84,-0.54,-0.09
2429171979,-0.84,-0.55,-0.09
2429173979,-0.84,-0.55,-0.09
2429176003,-0.84,-0.55,-0.09
2429177982,-0.84,-0.55,-0.09
2429179981,-0.84,-0.55,-0.09
2429181995,-0.84,-0.55,-0.09
2429184086,-0.84,-0.55,-0.09
2429186015,-0.84,-0.55,-0.09
2429187976,-0.84,-0.55,-0.09
2429189979,-0.84,-0.55,-0.09
2429191976,-0.84,-0.54,-0.09
2429193979,-0.84,-0.54,-0.09
2429195991,-0.84,-0.54,-0.09
2429198026,-0.84,-0.54,-0.09
2429200003,-0.84,-0.54,-0.09
2429202128,-0.83,-0.54,-0.11
2429204007,-0.83,-0.54,-0.11
2429206002,-0.83,-0.54,-0.11
2429208006,-0.83,-0.54,-0.11
2429210006,-0.83,-0.54,-0.11
2429211984,-0.83,-0.54,-0.11
2429213979,-0.83,-0.54,-0.11
2429215976,-0.83,-0.54,-0.11
2429217977,-0.83,-0.54,-0.11
2429219979,-0.83,-0.54,-0.11
2429221982,-0.84,-0.54,-0.10
2429224010,-0.84,-0.54,-0.10
2429225997,-0.84,-0.54,-0.10
2429227985,-0.84,-0.54,-0.10
2429229974,-0.84,-0.54,-0.10
2429231979,-0.84,-0.53,-0.10
2429233978,-0.84,-0.53,-0.10
2429235974,-0.84,-0.53,-0.10
2429238019,-0.84,-0.53,-0.10
2429240065,-0.84,-0.53,-0.10
2429242038,-0.84,-0.54,-0.10
2429244007,-0.84,-0.54,-0.10
2429246002,-0.84,-0.54,-0.10
2429248004,-0.84,-0.54,-0.10
2429250011,-0.84,-0.54,-0.10
2429252029,-0.84,-0.54,-0.11
2429253994,-0.84,-0.54,-0.11
2429255979,-0.84,-0.54,-0.11
2429257981,-0.84,-0.54,-0.11
2429259976,-0.84,-0.54,-0.11
2429261981,-0.84,-0.54,-0.11
2429263981,-0.84,-0.54,-0.11
2429265976,-0.84,-0.54,-0.11
2429267977,-0.84,-0.54,-0.11
2429269981,-0.84,-0.54,-0.11
2429272019,-0.84,-0.54,-0.11
2429273974,-0.84,-0.54,-0.11
2429275995,-0.84,-0.54,-0.11
2429278022,-0.84,-0.54,-0.11
2429280004,-0.84,-0.54,-0.11
2429282004,-0.83,-0.54,-0.11
2429284006,-0.83,-0.54,-0.11
2429286002,-0.83,-0.54,-0.11
2429288000,-0.83,-0.54,-0.11
2429290006,-0.83,-0.54,-0.11
2429292063,-0.83,-0.55,-0.11
2429294025,-0.83,-0.55,-0.11
2429295993,-0.83,-0.55,-0.11
2429297977,-0.83,-0.55,-0.11
2429299982,-0.83,-0.55,-0.11
2429302014,-0.84,-0.55,-0.11
2429303984,-0.84,-0.55,-0.11
2429305979,-0.84,-0.55,-0.11
2429307976,-0.84,-0.55,-0.11
2429309978,-0.84,-0.55,-0.11
2429311979,-0.84,-0.55,-0.09
2429313975,-0.84,-0.55,-0.09
2429315976,-0.84,-0.55,-0.09
2429318021,-0.84,-0.55,-0.09
2429320004,-0.84,-0.55,-0.09
2429322002,-0.84,-0.55,-0.09
2429324039,-0.84,-0.55,-0.09
2429326021,-0.84,-0.55,-0.09
2429328006,-0.84,-0.55,-0.09
2429330012,-0.84,-0.55,-0.09
2429331984,-0.84,-0.55,-0.10
2429333984,-0.84,-0.55,-0.10
2429335981,-0.84,-0.55,-0.10
2429337981,-0.84,-0.55,-0.10
2429339981,-0.84,-0.55,-0.10
2429341980,-0.84,-0.54,-0.09
2429344152,-0.84,-0.54,-0.09
2429346009,-0.84,-0.54,-0.09
2429347975,-0.84,-0.54,-0.09
2429349976,-0.84,-0.54,-0.09
2429352000,-0.84,-0.54,-0.09
2429353977,-0.84,-0.54,-0.09
2429355977,-0.84,-0.54,-0.09
2429358024,-0.84,-0.54,-0.09
2429360004,-0.84,-0.54,-0.09
2429362000,-0.84,-0.54,-0.09
2429364007,-0.84,-0.54,-0.09
2429366001,-0.84,-0.54,-0.09
2429368005,-0.84,-0.54,-0.09
2429370005,-0.84,-0.54,-0.09
2429371979,-0.84,-0.54,-0.09
2429374024,-0.83,-0.55,-0.09
2429376001,-0.83,-0.55,-0.09
2429377978,-0.83,-0.55,-0.09
2429379977,-0.83,-0.55,-0.09
2429381979,-0.83,-0.55,-0.09
2429383977,-0.84,-0.54,-0.10
2429385975,-0.84,-0.54,-0.10
2429387976,-0.84,-0.54,-0.10
2429389975,-0.84,-0.54,-0.10
2429391977,-0.84,-0.54,-0.10
2429393980,-0.84,-0.55,-0.09
2429395991,-0.84,-0.55,-0.09
2429398019,-0.84,-0.55,-0.09
2429400052,-0.84,-0.55,-0.09
2429402057,-0.84,-0.55,-0.09
2429404009,-0.84,-0.54,-0.09
2429406007,-0.84,-0.54,-0.09
2429408003,-0.84,-0.54,-0.09
2429410002,-0.84,-0.54,-0.09
2429412003,-0.84,-0.54,-0.09
2429413986,-0.84,-0.54,-0.09
2429415975,-0.84,-0.54,-0.09
2429417976,-0.84,-0.54,-0.09
2429419989,-0.84,-0.54,-0.09
2429421983,-0.84,-0.54,-0.09
2429424014,-0.84,-0.54,-0.09
2429426001,-0.84,-0.54,-0.09
2429427981,-0.84,-0.54,-0.09
2429429976,-0.84,-0.54,-0.09
2429431978,-0.84,-0.54,-0.09
2429433977,-0.84,-0.53,-0.08
2429435979,-0.84,-0.53,-0.08
2429438019,-0.84,-0.53,-0.08
2429440005,-0.84,-0.53,-0.08
2429442004,-0.84,-0.53,-0.08
2429444006,-0.84,-0.54,-0.09
2429446002,-0.84,-0.54,-0.09
2429448003,-0.84,-0.54,-0.09
2429450007,-0.84,-0.54,-0.09
2429451995,-0.84,-0.54,-0.09
2429453979,-0.84,-0.54,-0.10
2429455979,-0.84,-0.54,-0.10
2429457980,-0.84,-0.54,-0.10
2429459979,-0.84,-0.54,-0.10
2429461991,-0.84,-0.54,-0.10
2429464068,-0.84,-0.54,-0.09
2429466019,-0.84,-0.54,-0.09
2429467973,-0.84,-0.54,-0.09
2429469978,-0.84,-0.54,-0.09
2429471979,-0.84,-0.54,-0.09
2429473978,-0.84,-0.54,-0.09
2429476019,-0.84,-0.54,-0.09
2429478048,-0.84,-0.54,-0.09
2429480005,-0.84,-0.54,-0.09
2429482001,-0.84,-0.54,-0.09
2429484006,-0.84,-0.55,-0.09
2429486005,-0.84,-0.55,-0.09
2429488003,-0.84,-0.55,-0.09
2429490010,-0.84,-0.55,-0.09
2429491979,-0.84,-0.55,-0.09
2429493980,-0.84,-0.54,-0.09
2429495992,-0.84,-0.54,-0.09
2429497977,-0.84,-0.54,-0.09
2429499993,-0.84,-0.54,-0.09
2429502009,-0.84,-0.54,-0.09
2429503977,-0.83,-0.54,-0.09
2429505977,-0.83,-0.54,-0.09
2429507979,-0.83,-0.54,-0.09
2429510064,-0.83,-0.54,-0.09
2429512021,-0.83,-0.54,-0.09
2429513973,-0.84,-0.54,-0.09
2429515977,-0.84,-0.54,-0.09
2429518021,-0.84,-0.54,-0.09
2429520004,-0.84,-0.54,-0.09
2429522003,-0.84,-0.54,-0.09
2429524037,-0.84,-0.54,-0.10
2429526023,-0.84,-0.54,-0.10
2429528008,-0.84,-0.54,-0.10
2429530009,-0.84,-0.54,-0.10
2429531978,-0.84,-0.54,-0.10
2429533979,-0.84,-0.54,-0.09
2429535977,-0.84,-0.54,-0.09
2429537975,-0.84,-0.54,-0.09
2429539978,-0.84,-0.54,-0.09
2429541977,-0.84,-0.54,-0.09
2429543977,-0.84,-0.54,-0.09
2429545978,-0.84,-0.55,-0.10
2429547976,-0.84,-0.55,-0.10
2429549977,-0.84,-0.55,-0.10
2429552093,-0.84,-0.55,-0.10
2429553980,-0.84,-0.55,-0.10
2429555979,-0.84,-0.55,-0.10
2429558134,-0.84,-0.55,-0.10
2429560042,-0.84,-0.55,-0.10
2429562005,-0.84,-0.55,-0.10
2429564006,-0.84,-0.55,-0.10
2429566007,-0.83,-0.55,-0.10
2429568003,-0.83,-0.55,-0.10
2429570002,-0.83,-0.55,-0.10
2429572006,-0.83,-0.55,-0.10
2429574005,-0.83,-0.55,-0.10
2429576006,-0.83,-0.55,-0.10
2429577990,-0.83,-0.55,-0.10
2429580020,-0.83,-0.55,-0.10
2429581978,-0.83,-0.55,-0.10
2429583979,-0.83,-0.55,-0.10
2429585977,-0.83,-0.55,-0.11
2429587977,-0.83,-0.55,-0.11
2429589973,-0.83,-0.55,-0.11
2429591978,-0.83,-0.55,-0.11
2429593980,-0.83,-0.55,-0.11
2429595992,-0.83,-0.54,-0.10
2429597977,-0.83,-0.54,-0.10
2429600027,-0.83,-0.54,-0.10
2429602124,-0.83,-0.54,-0.10
2429604054,-0.83,-0.54,-0.10
2429606029,-0.84,-0.54,-0.10
2429608007,-0.84,-0.54,-0.10
2429610001,-0.84,-0.54,-0.10
2429612007,-0.84,-0.54,-0.10
2429614005,-0.84,-0.54,-0.10
2429616005,-0.84,-0.54,-0.10
2429617986,-0.84,-0.54,-0.10
2429619980,-0.84,-0.54,-0.10
2429622053,-0.84,-0.54,-0.10
2429624009,-0.84,-0.54,-0.10
2429626006,-0.84,-0.54,-0.11
2429627985,-0.84,-0.54,-0.11
2429629979,-0.84,-0.54,-0.11
2429631977,-0.84,-0.54,-0.11
2429633976,-0.84,-0.54,-0.11
2429635979,-0.84,-0.54,-0.11
2429637979,-0.84,-0.54,-0.11
2429640019,-0.84,-0.54,-0.11
2429642006,-0.84,-0.54,-0.11
2429644003,-0.84,-0.54,-0.11
2429646008,-0.83,-0.54,-0.10
2429648005,-0.83,-0.54,-0.10
2429650006,-0.83,-0.54,-0.10
2429652023,-0.83,-0.54,-0.10
2429653978,-0.83,-0.54,-0.10
2429655979,-0.83,-0.54,-0.11
2429657977,-0.83,-0.54,-0.11
2429659979,-0.83,-0.54,-0.11
2429661980,-0.83,-0.54,-0.11
2429663980,-0.83,-0.54,-0.11
2429665980,-0.84,-0.55,-0.12
2429667980,-0.84,-0.55,-0.12
2429669980,-0.84,-0.55,-0.12
2429671980,-0.84,-0.55,-0.12
2429673977,-0.84,-0.55,-0.12
2429675987,-0.84,-0.55,-0.11
2429678007,-0.84,-0.55,-0.11
2429680048,-0.84,-0.55,-0.11
2429682006,-0.84,-0.55,-0.11
2429684005,-0.84,-0.55,-0.11
2429686004,-0.83,-0.55,-0.11
2429688007,-0.83,-0.55,-0.11
2429690040,-0.83,-0.55,-0.11
2429692040,-0.83,-0.55,-0.11
2429694028,-0.83,-0.55,-0.11
2429696029,-0.84,-0.55,-0.11
2429698012,-0.84,-0.55,-0.11
2429699978,-0.84,-0.55,-0.11
2429702014,-0.84,-0.55,-0.11
2429703978,-0.84,-0.55,-0.11
2429705973,-0.84,-0.55,-0.11
2429707977,-0.84,-0.55,-0.11
2429709976,-0.84,-0.55,-0.11
2429711976,-0.84,-0.55,-0.11
2429713978,-0.84,-0.55,-0.11
2429715977,-0.84,-0.55,-0.11
2429717976,-0.84,-0.55,-0.11
2429720008,-0.84,-0.55,-0.11
2429722005,-0.84,-0.55,-0.11
2429724038,-0.84,-0.55,-0.11
2429726019,-0.84,-0.53,-0.07
2429728008,-0.84,-0.53,-0.07
2429730005,-0.84,-0.53,-0.07
2429732008,-0.84,-0.53,-0.07
2429733976,-0.84,-0.53,-0.07
2429735984,-0.84,-0.53,-0.07
2429737976,-0.85,-0.55,-0.12
2429739981,-0.85,-0.55,-0.12
2429741976,-0.85,-0.55,-0.12
2429743979,-0.85,-0.55,-0.12
2429745979,-0.85,-0.55,-0.12
2429747976,-0.84,-0.53,-0.07
2429749992,-0.84,-0.53,-0.07
2429751997,-0.84,-0.53,-0.07
2429753975,-0.84,-0.53,-0.07
2429755976,-0.84,-0.53,-0.07
2429757980,-0.82,-0.57,-0.14
2429760009,-0.82,-0.57,-0.14
2429762000,-0.82,-0.57,-0.14
2429764005,-0.82,-0.57,-0.14
2429766005,-0.82,-0.57,-0.14
2429768002,-0.82,-0.54,-0.12
2429770000,-0.82,-0.54,-0.12
2429771990,-0.82,-0.54,-0.12
2429773981,-0.82,-0.54,-0.12
2429776000,-0.82,-0.54,-0.12
2429777985,-0.83,-0.53,-0.06
2429779979,-0.83,-0.53,-0.06
2429781975,-0.83,-0.53,-0.06
2429784027,-0.83,-0.53,-0.06
2429785977,-0.83,-0.53,-0.06
2429787978,-0.86,-0.50,-0.02
2429789975,-0.86,-0.50,-0.02
2429791976,-0.86,-0.50,-0.02
2429793985,-0.86,-0.50,-0.02
2429795990,-0.86,-0.50,-0.02
2429797978,-0.86,-0.54,-0.10
2429800019,-0.86,-0.54,-0.10
2429802039,-0.86,-0.54,-0.10
2429804015,-0.86,-0.54,-0.10
2429806058,-0.86,-0.54,-0.10
2429807992,-0.85,-0.55,-0.16
2429809958,-0.85,-0.55,-0.16
2429811957,-0.85,-0.55,-0.16
2429813961,-0.85,-0.55,-0.16
2429815957,-0.85,-0.55,-0.16
2429817957,-0.83,-0.51,-0.05
2429819958,-0.83,-0.51,-0.05
2429821960,-0.83,-0.51,-0.05
2429824012,-0.83,-0.51,-0.05
2429825980,-0.83,-0.51,-0.05
2429827964,-0.82,-0.58,-0.18
2429829958,-0.82,-0.58,-0.18
2429831958,-0.82,-0.58,-0.18
2429833955,-0.82,-0.58,-0.18
2429835955,-0.82,-0.58,-0.18
2429837958,-0.82,-0.53,-0.10
2429839952,-0.82,-0.53,-0.10
2429841957,-0.82,-0.53,-0.10
2429843955,-0.82,-0.53,-0.10
2429845957,-0.82,-0.53,-0.10
2429847955,-0.82,-0.55,-0.06
2429922045,-0.76,-0.55,-0.04
2429924031,-0.76,-0.55,-0.04
2429926020,-0.76,-0.55,-0.04
2429928001,-0.76,-0.55,-0.04
2429930005,-0.81,-0.52,-0.06
2429931999,-0.81,-0.52,-0.06
2429934001,-0.81,-0.52,-0.06
2429935997,-0.81,-0.52,-0.06
2429938007,-0.81,-0.52,-0.06
2429939980,-0.80,-0.50,0.11
2429941980,-0.80,-0.50,0.11
2429943982,-0.80,-0.50,0.11
2429945979,-0.80,-0.50,0.11
2429947978,-0.80,-0.50,0.11
2429949976,-0.95,-0.60,-0.15
2429952091,-0.95,-0.60,-0.15
2429953977,-0.95,-0.60,-0.15
2429955980,-0.95,-0.60,-0.15
2429957978,-0.95,-0.60,-0.15
2429959980,-0.88,-0.59,-0.16
2429962006,-0.88,-0.59,-0.16
2429964004,-0.88,-0.59,-0.16
2429966001,-0.88,-0.59,-0.16
2429968006,-0.88,-0.59,-0.16
2429970053,-0.82,-0.47,-0.03
2429972019,-0.82,-0.47,-0.03
2429974004,-0.82,-0.47,-0.03
2429976017,-0.82,-0.47,-0.03
2429977979,-0.82,-0.47,-0.03
2429979978,-0.83,-0.61,-0.29
2429981977,-0.83,-0.61,-0.29
2429983980,-0.83,-0.61,-0.29
2429985979,-0.83,-0.61,-0.29
2429987990,-0.83,-0.61,-0.29
2429990020,-0.80,-0.49,-0.08
2429992079,-0.80,-0.49,-0.08
2429994009,-0.80,-0.49,-0.08
2429995987,-0.80,-0.49,-0.08
2429997982,-0.80,-0.49,-0.08
2429999994,-0.84,-0.51,-0.05
2430002145,-0.84,-0.51,-0.05
2430004003,-0.84,-0.51,-0.05
2430006003,-0.84,-0.51,-0.05
2430008008,-0.84,-0.51,-0.05
2430010010,-0.82,-0.54,-0.23
2430012008,-0.82,-0.54,-0.23
2430014006,-0.82,-0.54,-0.23
2430015976,-0.82,-0.54,-0.23
2430017976,-0.82,-0.54,-0.23
2430019981,-0.86,-0.55,-0.18
2430021980,-0.86,-0.55,-0.18
2430024012,-0.86,-0.55,-0.18
2430025997,-0.86,-0.55,-0.18
2430027982,-0.86,-0.55,-0.18
2430029975,-0.86,-0.53,-0.11
2430031975,-0.86,-0.53,-0.11
2430033979,-0.86,-0.53,-0.11
2430035977,-0.86,-0.53,-0.11
2430037975,-0.86,-0.53,-0.11
2430040038,-0.81,-0.55,-0.18
2430042023,-0.81,-0.55,-0.18
2430044018,-0.81,-0.55,-0.18
2430046002,-0.81,-0.55,-0.18
2430048003,-0.81,-0.55,-0.18
2430050004,-0.83,-0.61,-0.20
2430052034,-0.83,-0.61,-0.20
2430054007,-0.83,-0.61,-0.20
2430056009,-0.83,-0.61,-0.20
2430057981,-0.83,-0.61,-0.20
2430059980,-0.80,-0.54,-0.11
2430061979,-0.80,-0.54,-0.11
2430063980,-0.80,-0.54,-0.11
2430065978,-0.80,-0.54,-0.11
2430067979,-0.80,-0.54,-0.11
2430069979,-0.82,-0.58,-0.18
2430071975,-0.82,-0.58,-0.18
2430073977,-0.82,-0.58,-0.18
2430076000,-0.82,-0.58,-0.18
2430077987,-0.82,-0.58,-0.18
2430079977,-0.82,-0.59,-0.18
2430081978,-0.82,-0.59,-0.18
2430084014,-0.82,-0.59,-0.18
2430086007,-0.82,-0.59,-0.18
2430088004,-0.82,-0.59,-0.18
2430090006,-0.81,-0.60,-0.17
2430092050,-0.81,-0.60,-0.17
2430094007,-0.81,-0.60,-0.17
2430096013,-0.81,-0.60,-0.17
2430097976,-0.81,-0.60,-0.17
2430099977,-0.81,-0.57,-0.17
2430102074,-0.81,-0.57,-0.17
2430104021,-0.81,-0.57,-0.17
2430105974,-0.81,-0.57,-0.17
2430107977,-0.81,-0.57,-0.17
2430109978,-0.82,-0.60,-0.16
2430111976,-0.82,-0.60,-0.16
2430113977,-0.82,-0.60,-0.16
2430115977,-0.82,-0.60,-0.16
2430117979,-0.82,-0.60,-0.16
2430119979,-0.82,-0.60,-0.16
2430121982,-0.83,-0.59,-0.18
2430124049,-0.83,-0.59,-0.18
2430126021,-0.83,-0.59,-0.18
2430128005,-0.83,-0.59,-0.18
2430130005,-0.83,-0.59,-0.18
2430132003,-0.82,-0.57,-0.15
2430134002,-0.82,-0.57,-0.15
2430136005,-0.82,-0.57,-0.15
2430137976,-0.82,-0.57,-0.15
2430139976,-0.82,-0.57,-0.15
2430141985,-0.82,-0.55,-0.14
2430143981,-0.82,-0.55,-0.14
2430145977,-0.82,-0.55,-0.14
2430147981,-0.82,-0.55,-0.14
2430150000,-0.82,-0.55,-0.14
2430152090,-0.85,-0.54,-0.12
2430154016,-0.85,-0.54,-0.12
2430155979,-0.85,-0.54,-0.12
2430157978,-0.85,-0.54,-0.12
2430159978,-0.85,-0.54,-0.12
2430161977,-0.84,-0.55,-0.11
2430164023,-0.84,-0.55,-0.11
2430166003,-0.84,-0.55,-0.11
2430168006,-0.84,-0.55,-0.11
2430170006,-0.84,-0.55,-0.11
2430172011,-0.85,-0.53,-0.11
2430174007,-0.85,-0.53,-0.11
2430176023,-0.85,-0.53,-0.11
2430177986,-0.85,-0.53,-0.11
2430179979,-0.85,-0.53,-0.11
2430181975,-0.85,-0.52,-0.10
2430183976,-0.85,-0.52,-0.10
2430185980,-0.85,-0.52,-0.10
2430187980,-0.85,-0.52,-0.10
2430189978,-0.85,-0.52,-0.10
2430191988,-0.84,-0.54,-0.09
2430194021,-0.84,-0.54,-0.09
2430195992,-0.84,-0.54,-0.09
2430197980,-0.84,-0.54,-0.09
2430199981,-0.84,-0.54,-0.09
2430202004,-0.83,-0.54,-0.09
2430204023,-0.83,-0.54,-0.09
2430206024,-0.83,-0.54,-0.09
2430208005,-0.83,-0.54,-0.09
2430210005,-0.83,-0.54,-0.09
2430212014,-0.83,-0.53,-0.07
2430214061,-0.83,-0.53,-0.07
2430216038,-0.83,-0.53,-0.07
2430218001,-0.83,-0.53,-0.07
2430219984,-0.83,-0.53,-0.07
2430221981,-0.83,-0.54,-0.07
2430224009,-0.83,-0.54,-0.07
2430226157,-0.83,-0.54,-0.07
2430228071,-0.83,-0.54,-0.07
2430230023,-0.83,-0.54,-0.07
2430231979,-0.84,-0.54,-0.07
2430233976,-0.84,-0.54,-0.07
2430235977,-0.84,-0.54,-0.07
2430237979,-0.84,-0.54,-0.07
2430239975,-0.84,-0.54,-0.07
2430241974,-0.86,-0.53,-0.05
2430244017,-0.86,-0.53,-0.05
2430246005,-0.86,-0.53,-0.05
2430248004,-0.86,-0.53,-0.05
2430250011,-0.86,-0.53,-0.05
2430252033,-0.85,-0.52,-0.04
2430254008,-0.85,-0.52,-0.04
2430256008,-0.85,-0.52,-0.04
2430257979,-0.85,-0.52,-0.04
2430259980,-0.85,-0.52,-0.04
2430261979,-0.85,-0.54,-0.06
2430263977,-0.85,-0.54,-0.06
2430265981,-0.85,-0.54,-0.06
2430267976,-0.85,-0.54,-0.06
2430269980,-0.85,-0.54,-0.06
2430271984,-0.84,-0.52,-0.05
2430273989,-0.84,-0.52,-0.05
2430276066,-0.84,-0.52,-0.05
2430278023,-0.84,-0.52,-0.05
2430279973,-0.84,-0.52,-0.05
2430281974,-0.84,-0.52,-0.02
2430284020,-0.84,-0.52,-0.02
2430286002,-0.84,-0.52,-0.02
2430288005,-0.84,-0.52,-0.02
2430290005,-0.84,-0.52,-0.02
2430292005,-0.85,-0.52,-0.03
2430294033,-0.85,-0.52,-0.03
2430296043,-0.85,-0.52,-0.03
2430298005,-0.85,-0.52,-0.03
2430299983,-0.85,-0.52,-0.03
2430302014,-0.85,-0.52,-0.03
2430303975,-0.85,-0.52,-0.03
2430305979,-0.85,-0.52,-0.03
2430307978,-0.85,-0.52,-0.03
2430309977,-0.85,-0.52,-0.03
2430311975,-0.85,-0.52,-0.03
2430313976,-0.86,-0.50,-0.01
2430315975,-0.86,-0.50,-0.01
2430317979,-0.86,-0.50,-0.01
2430319976,-0.86,-0.50,-0.01
2430321979,-0.86,-0.50,-0.01
2430324043,-0.86,-0.55,-0.07
2430326023,-0.86,-0.55,-0.07
2430328011,-0.86,-0.55,-0.07
2430330002,-0.86,-0.55,-0.07
2430332007,-0.86,-0.55,-0.07
2430334008,-0.85,-0.53,-0.07
2430336006,-0.85,-0.53,-0.07
2430337976,-0.85,-0.53,-0.07
2430339980,-0.85,-0.53,-0.07
2430341977,-0.85,-0.53,-0.07
2430343980,-0.84,-0.52,-0.02
2430345976,-0.84,-0.52,-0.02
2430347977,-0.84,-0.52,-0.02
2430349980,-0.84,-0.52,-0.02
2430351995,-0.84,-0.52,-0.02
2430353985,-0.85,-0.51,-0.05
2430356062,-0.85,-0.51,-0.05
2430358023,-0.85,-0.51,-0.05
2430359976,-0.85,-0.51,-0.05
2430361978,-0.85,-0.51,-0.05
2430364017,-0.85,-0.53,-0.08
2430366001,-0.85,-0.53,-0.08
2430368001,-0.85,-0.53,-0.08
2430370005,-0.85,-0.53,-0.08
2430372004,-0.85,-0.53,-0.08
2430374006,-0.86,-0.52,-0.06
2430376021,-0.86,-0.52,-0.06
2430377981,-0.86,-0.52,-0.06
2430379976,-0.86,-0.52,-0.06
2430381980,-0.86,-0.52,-0.06
2430383977,-0.84,-0.52,-0.09
2430385979,-0.84,-0.52,-0.09
2430387976,-0.84,-0.52,-0.09
2430389978,-0.84,-0.52,-0.09
2430391980,-0.84,-0.52,-0.09
2430393978,-0.85,-0.55,-0.12
2430395993,-0.85,-0.55,-0.12
2430398026,-0.85,-0.55,-0.12
2430399975,-0.85,-0.55,-0.12
2430402004,-0.85,-0.55,-0.12
2430404015,-0.84,-0.54,-0.11
2430406003,-0.84,-0.54,-0.11
2430408004,-0.84,-0.54,-0.11
2430410006,-0.84,-0.54,-0.11
2430412005,-0.84,-0.54,-0.11
2430414016,-0.82,-0.55,-0.12
2430416087,-0.82,-0.55,-0.12
2430418043,-0.82,-0.55,-0.12
2430420006,-0.82,-0.55,-0.12
2430421981,-0.82,-0.55,-0.12
2430424008,-0.82,-0.56,-0.14
2430426000,-0.82,-0.56,-0.14
2430427980,-0.82,-0.56,-0.14
2430429976,-0.82,-0.56,-0.14
2430431977,-0.82,-0.56,-0.14
2430433978,-0.82,-0.57,-0.14
2430435976,-0.82,-0.57,-0.14
2430437980,-0.82,-0.57,-0.14
2430439979,-0.82,-0.57,-0.14
2430441979,-0.82,-0.57,-0.14
2430444019,-0.82,-0.57,-0.15
2430446006,-0.82,-0.57,-0.15
2430448002,-0.82,-0.57,-0.15
2430450003,-0.82,-0.57,-0.15
2430452022,-0.82,-0.57,-0.15
2430454005,-0.82,-0.57,-0.16
2430456006,-0.82,-0.57,-0.16
2430457978,-0.82,-0.57,-0.16
2430459981,-0.82,-0.57,-0.16
2430461976,-0.82,-0.57,-0.16
2430463974,-0.82,-0.57,-0.16
2430465979,-0.82,-0.57,-0.16
2430467977,-0.82,-0.57,-0.16
2430469984,-0.82,-0.57,-0.16
2430471980,-0.82,-0.57,-0.16
2430473981,-0.82,-0.57,-0.16
2430476033,-0.82,-0.57,-0.16
2430478038,-0.82,-0.57,-0.16
2430479994,-0.82,-0.57,-0.16
2430481977,-0.82,-0.57,-0.16
2430484018,-0.83,-0.58,-0.17
2430486004,-0.83,-0.58,-0.17
2430488005,-0.83,-0.58,-0.17
2430490006,-0.83,-0.58,-0.17
2430492002,-0.83,-0.58,-0.17
2430494007,-0.82,-0.57,-0.17
2430496016,-0.82,-0.57,-0.17
2430497983,-0.82,-0.57,-0.17
2430500003,-0.82,-0.57,-0.17
2430502047,-0.82,-0.57,-0.17
2430503979,-0.82,-0.57,-0.17
2430505977,-0.82,-0.58,-0.17
2430507977,-0.82,-0.58,-0.17
2430509978,-0.82,-0.58,-0.17
2430511976,-0.82,-0.58,-0.17
2430513974,-0.82,-0.58,-0.17
2430515981,-0.82,-0.57,-0.18
2430517980,-0.82,-0.57,-0.18
2430519979,-0.82,-0.57,-0.18
2430521979,-0.82,-0.57,-0.18
2430524045,-0.82,-0.57,-0.18
2430526022,-0.82,-0.57,-0.16
2430528007,-0.82,-0.57,-0.16
2430530002,-0.82,-0.57,-0.16
2430532004,-0.82,-0.57,-0.16
2430534008,-0.82,-0.57,-0.16
2430536027,-0.82,-0.57,-0.15
2430538066,-0.82,-0.57,-0.15
2430540023,-0.82,-0.57,-0.15
2430541979,-0.82,-0.57,-0.15
2430543976,-0.82,-0.57,-0.15
2430545977,-0.82,-0.56,-0.15
2430547972,-0.82,-0.56,-0.15
2430549976,-0.82,-0.56,-0.15
2430551996,-0.82,-0.56,-0.15
2430553976,-0.82,-0.56,-0.15
2430555974,-0.83,-0.56,-0.12
2430557977,-0.83,-0.56,-0.12
2430559977,-0.83,-0.56,-0.12
2430561978,-0.83,-0.56,-0.12
2430564021,-0.83,-0.56,-0.12
2430566003,-0.83,-0.55,-0.12
2430568004,-0.83,-0.55,-0.12
2430570002,-0.83,-0.55,-0.12
2430572005,-0.83,-0.55,-0.12
2430574006,-0.83,-0.55,-0.12
2430576019,-0.84,-0.55,-0.11
2430577979,-0.84,-0.55,-0.11
2430579975,-0.84,-0.55,-0.11
2430581980,-0.84,-0.55,-0.11
2430583975,-0.84,-0.55,-0.11
2430585984,-0.83,-0.55,-0.11
2430587978,-0.83,-0.55,-0.11
2430589975,-0.83,-0.55,-0.11
2430591977,-0.83,-0.55,-0.11
2430593985,-0.83,-0.55,-0.11
2430595992,-0.83,-0.54,-0.09
2430597979,-0.83,-0.54,-0.09
2430599984,-0.83,-0.54,-0.09
2430602047,-0.83,-0.54,-0.09
2430604059,-0.83,-0.54,-0.09
2430606036,-0.84,-0.54,-0.08
2430608010,-0.84,-0.54,-0.08
2430610005,-0.84,-0.54,-0.08
2430612004,-0.84,-0.54,-0.08
2430614006,-0.84,-0.54,-0.08
2430616000,-0.84,-0.53,-0.07
2430618005,-0.84,-0.53,-0.07
2430620008,-0.84,-0.53,-0.07
2430622052,-0.84,-0.53,-0.07
2430624004,-0.84,-0.53,-0.07
2430626002,-0.85,-0.54,-0.07
2430627986,-0.85,-0.54,-0.07
2430629978,-0.85,-0.54,-0.07
2430631976,-0.85,-0.54,-0.07
2430633980,-0.85,-0.54,-0.07
2430635976,-0.84,-0.53,-0.06
2430637975,-0.84,-0.53,-0.06
2430639980,-0.84,-0.53,-0.06
2430641977,-0.84,-0.53,-0.06
2430643979,-0.84,-0.53,-0.06
2430646014,-0.85,-0.52,-0.05
2430648002,-0.85,-0.52,-0.05
2430650000,-0.85,-0.52,-0.05
2430652023,-0.85,-0.52,-0.05
2430654004,-0.85,-0.52,-0.05
2430656004,-0.85,-0.52,-0.05
2430658004,-0.85,-0.52,-0.05
2430659979,-0.85,-0.52,-0.05
2430661981,-0.85,-0.52,-0.05
2430664045,-0.85,-0.52,-0.05
2430666034,-0.85,-0.52,-0.05
2430667982,-0.85,-0.52,-0.05
2430669981,-0.85,-0.52,-0.05
2430671979,-0.85,-0.52,-0.05
2430673977,-0.85,-0.52,-0.05
2430676003,-0.84,-0.52,-0.06
2430677987,-0.84,-0.52,-0.06
2430679979,-0.84,-0.52,-0.06
2430681979,-0.84,-0.52,-0.06
2430683976,-0.84,-0.52,-0.06
2430686018,-0.84,-0.52,-0.05
2430688006,-0.84,-0.52,-0.05
2430690002,-0.84,-0.52,-0.05
2430692005,-0.84,-0.52,-0.05
2430694006,-0.84,-0.52,-0.05
2430696013,-0.84,-0.52,-0.05
2430698011,-0.84,-0.52,-0.05
2430699983,-0.84,-0.52,-0.05
2430702007,-0.84,-0.52,-0.05
2430703981,-0.84,-0.52,-0.05
2430706020,-0.84,-0.52,-0.05
2430707979,-0.85,-0.52,-0.06
2430709978,-0.85,-0.52,-0.06
2430711977,-0.85,-0.52,-0.06
2430713979,-0.85,-0.52,-0.06
2430715979,-0.85,-0.52,-0.06
2430717979,-0.85,-0.52,-0.06
2430719978,-0.85,-0.52,-0.06
2430721980,-0.85,-0.52,-0.06
2430724064,-0.85,-0.52,-0.06
2430726040,-0.85,-0.52,-0.06
2430728018,-0.85,-0.52,-0.06
2430730001,-0.85,-0.52,-0.06
2430732008,-0.85,-0.52,-0.06
2430734007,-0.85,-0.52,-0.06
2430736005,-0.85,-0.52,-0.06
2430738005,-0.84,-0.52,-0.07
2430740002,-0.84,-0.52,-0.07
2430741980,-0.84,-0.52,-0.07
2430743976,-0.84,-0.52,-0.07
2430745975,-0.84,-0.52,-0.07
2430747979,-0.85,-0.53,-0.07
2430749991,-0.85,-0.53,-0.07
2430752002,-0.85,-0.53,-0.07
2430753985,-0.85,-0.53,-0.07
2430755978,-0.85,-0.53,-0.07
2430757977,-0.84,-0.54,-0.09
2430759981,-0.84,-0.54,-0.09
2430761977,-0.84,-0.54,-0.09
2430763981,-0.84,-0.54,-0.09
2430766014,-0.84,-0.54,-0.09
2430768007,-0.85,-0.54,-0.09
2430770003,-0.85,-0.54,-0.09
2430772006,-0.85,-0.54,-0.09
2430774022,-0.85,-0.54,-0.09
2430776120,-0.85,-0.54,-0.09
2430778045,-0.84,-0.54,-0.09
2430780004,-0.84,-0.54,-0.09
2430781986,-0.84,-0.54,-0.09
2430783974,-0.84,-0.54,-0.09
2430785972,-0.84,-0.54,-0.09
2430787978,-0.84,-0.54,-0.10
2430789979,-0.84,-0.54,-0.10
2430791980,-0.84,-0.54,-0.10
2430793981,-0.84,-0.54,-0.10
2430795990,-0.84,-0.54,-0.10
2430797974,-0.84,-0.55,-0.10
2430799978,-0.84,-0.55,-0.10
2430802101,-0.84,-0.55,-0.10
2430803976,-0.84,-0.55,-0.10
2430806050,-0.84,-0.55,-0.10
2430808047,-0.84,-0.55,-0.11
2430810005,-0.84,-0.55,-0.11
2430812001,-0.84,-0.55,-0.11
2430814003,-0.84,-0.55,-0.11
2430816006,-0.84,-0.55,-0.11
2430818007,-0.83,-0.55,-0.12
2430820007,-0.83,-0.55,-0.12
2430821984,-0.83,-0.55,-0.12
2430823979,-0.83,-0.55,-0.12
2430826091,-0.83,-0.55,-0.12
2430828018,-0.83,-0.55,-0.12
2430829974,-0.83,-0.55,-0.12
2430831974,-0.83,-0.55,-0.12
2430834032,-0.83,-0.55,-0.12
2430836045,-0.83,-0.55,-0.12
2430837980,-0.83,-0.55,-0.11
2430839979,-0.83,-0.55,-0.11
2430841979,-0.83,-0.55,-0.11
2430843979,-0.83,-0.55,-0.11
2430846022,-0.83,-0.55,-0.11
2430848004,-0.83,-0.55,-0.12
2430850005,-0.83,-0.55,-0.12
2430852122,-0.83,-0.55,-0.12
2430854005,-0.83,-0.55,-0.12
2430856004,-0.83,-0.55,-0.12
2430858006,-0.83,-0.56,-0.12
2430859980,-0.83,-0.56,-0.12
2430861980,-0.83,-0.56,-0.12
2430863981,-0.83,-0.56,-0.12
2430865977,-0.83,-0.56,-0.12
2430867976,-0.83,-0.55,-0.12
2430869984,-0.83,-0.55,-0.12
2430871984,-0.83,-0.55,-0.12
2430873985,-0.83,-0.55,-0.12
2430876077,-0.83,-0.55,-0.12
2430877988,-0.83,-0.55,-0.12
2430879975,-0.84,-0.55,-0.13
2430881980,-0.84,-0.55,-0.13
2430883979,-0.84,-0.55,-0.13
2430886012,-0.84,-0.55,-0.13
2430888007,-0.84,-0.55,-0.13
2430890009,-0.84,-0.55,-0.13
2430892006,-0.84,-0.55,-0.13
2430894034,-0.84,-0.55,-0.13
2430896058,-0.84,-0.55,-0.13
2430898044,-0.84,-0.55,-0.13
2430900009,-0.83,-0.55,-0.12
2430902131,-0.83,-0.55,-0.12
2430903981,-0.83,-0.55,-0.12
2430905979,-0.83,-0.55,-0.12
2430907976,-0.83,-0.55,-0.12
2430909978,-0.84,-0.55,-0.12
2430911979,-0.84,-0.55,-0.12
2430913978,-0.84,-0.55,-0.12
2430915975,-0.84,-0.55,-0.12
2430917976,-0.84,-0.55,-0.12
2430919974,-0.83,-0.55,-0.12
2430921977,-0.83,-0.55,-0.12
2430923976,-0.83,-0.55,-0.12
2430926098,-0.83,-0.55,-0.12
2430928035,-0.83,-0.55,-0.12
2430930008,-0.84,-0.55,-0.12
2430932032,-0.84,-0.55,-0.12
2430934060,-0.84,-0.55,-0.12
2430936007,-0.84,-0.55,-0.12
2430938007,-0.84,-0.55,-0.12
2430940014,-0.84,-0.54,-0.12
2430941979,-0.84,-0.54,-0.12
2430944109,-0.84,-0.54,-0.12
2430946018,-0.84,-0.54,-0.12
2430947979,-0.84,-0.54,-0.12
2430949978,-0.83,-0.54,-0.12
2430952101,-0.83,-0.54,-0.12
2430953978,-0.83,-0.54,-0.12
2430955976,-0.83,-0.54,-0.12
2430957975,-0.83,-0.54,-0.12
2430959979,-0.84,-0.54,-0.11
2430961979,-0.84,-0.54,-0.11
2430963977,-0.84,-0.54,-0.11
2430966020,-0.84,-0.54,-0.11
2430968003,-0.84,-0.54,-0.11
2430970005,-0.84,-0.54,-0.11
2430972007,-0.84,-0.54,-0.11
2430974004,-0.84,-0.54,-0.11
2430976094,-0.84,-0.54,-0.11
2430978003,-0.84,-0.54,-0.11
2430979979,-0.85,-0.54,-0.11
2430981977,-0.85,-0.54,-0.11
2430983977,-0.85,-0.54,-0.11
2430985981,-0.85,-0.54,-0.11
2430987980,-0.85,-0.54,-0.11
2430990032,-0.84,-0.53,-0.09
2430992032,-0.84,-0.53,-0.09
2430993984,-0.84,-0.53,-0.09
2430995991,-0.84,-0.53,-0.09
2430997980,-0.84,-0.53,-0.09
2430999996,-0.84,-0.54,-0.09
2431002106,-0.84,-0.54,-0.09
2431003974,-0.84,-0.54,-0.09
2431006017,-0.84,-0.54,-0.09
2431008004,-0.84,-0.54,-0.09
2431010004,-0.83,-0.54,-0.09
2431012013,-0.83,-0.54,-0.09
2431014044,-0.83,-0.54,-0.09
2431016005,-0.83,-0.54,-0.09
2431018005,-0.83,-0.54,-0.09
2431019993,-0.84,-0.54,-0.09
2431021979,-0.84,-0.54,-0.09
2431023979,-0.84,-0.54,-0.09
2431026087,-0.84,-0.54,-0.09
2431028006,-0.84,-0.54,-0.09
2431029975,-0.84,-0.53,-0.08
2431031978,-0.84,-0.53,-0.08
2431033976,-0.84,-0.53,-0.08
2431035979,-0.84,-0.53,-0.08
2431037980,-0.84,-0.53,-0.08
2431040113,-0.85,-0.53,-0.07
2431042014,-0.85,-0.53,-0.07
2431043979,-0.85,-0.53,-0.07
2431046022,-0.85,-0.53,-0.07
2431048000,-0.85,-0.53,-0.07
2431050004,-0.84,-0.53,-0.07
2431052123,-0.84,-0.53,-0.07
2431054007,-0.84,-0.53,-0.07
2431056005,-0.84,-0.53,-0.07
2431058006,-0.84,-0.53,-0.07
2431059985,-0.84,-0.54,-0.07
2431061984,-0.84,-0.54,-0.07
2431063981,-0.84,-0.54,-0.07
2431065979,-0.84,-0.54,-0.07
2431067978,-0.84,-0.54,-0.07
2431069975,-0.84,-0.54,-0.07
2431071980,-0.84,-0.54,-0.07
2431073976,-0.84,-0.54,-0.07
2431076075,-0.84,-0.54,-0.07
2431077987,-0.84,-0.54,-0.07
2431079976,-0.84,-0.54,-0.07
2431081979,-0.84,-0.54,-0.07
2431083978,-0.84,-0.54,-0.07
2431086046,-0.84,-0.54,-0.07
2431088041,-0.84,-0.54,-0.07
2431090006,-0.84,-0.54,-0.07
2431092006,-0.84,-0.54,-0.06
2431094006,-0.84,-0.54,-0.06
2431096008,-0.84,-0.54,-0.06
2431098005,-0.84,-0.54,-0.06
2431100003,-0.84,-0.54,-0.06
2431102106,-0.84,-0.54,-0.06
2431103978,-0.84,-0.54,-0.06
2431105977,-0.84,-0.54,-0.06
2431107977,-0.84,-0.54,-0.06
2431109978,-0.84,-0.54,-0.06
2431111974,-0.84,-0.54,-0.07
2431113975,-0.84,-0.54,-0.07
2431115976,-0.84,-0.54,-0.07
2431117977,-0.84,-0.54,-0.07
2431119976,-0.84,-0.54,-0.07
2431121992,-0.84,-0.54,-0.07
2431124023,-0.84,-0.54,-0.07
2431126109,-0.84,-0.54,-0.07
2431128048,-0.84,-0.54,-0.07
2431130010,-0.84,-0.54,-0.07
2431132006,-0.84,-0.54,-0.07
2431134006,-0.84,-0.54,-0.07
2431136003,-0.84,-0.54,-0.07
2431138006,-0.84,-0.54,-0.07
2431139974,-0.84,-0.54,-0.07
2431141979,-0.84,-0.54,-0.09
2431143977,-0.84,-0.54,-0.09
2431145978,-0.84,-0.54,-0.09
2431148063,-0.84,-0.54,-0.09
2431150023,-0.84,-0.54,-0.09
2431152094,-0.85,-0.54,-0.09
2431153979,-0.85,-0.54,-0.09
2431155974,-0.85,-0.54,-0.09
2431157975,-0.85,-0.54,-0.09
2431159972,-0.85,-0.54,-0.09
2431161973,-0.84,-0.54,-0.09
2431163973,-0.84,-0.54,-0.09
2431166023,-0.84,-0.54,-0.09
2431168004,-0.84,-0.54,-0.09
2431170005,-0.84,-0.54,-0.09
2431172004,-0.84,-0.54,-0.10
2431174000,-0.84,-0.54,-0.10
2431176094,-0.84,-0.54,-0.10
2431178011,-0.84,-0.54,-0.10
2431179978,-0.84,-0.54,-0.10
2431181977,-0.84,-0.53,-0.11
2431183975,-0.84,-0.53,-0.11
2431185977,-0.84,-0.53,-0.11
2431187981,-0.84,-0.53,-0.11
2431189988,-0.84,-0.53,-0.11
2431191984,-0.85,-0.53,-0.11
2431193975,-0.85,-0.53,-0.11
2431195991,-0.85,-0.53,-0.11
2431197975,-0.85,-0.53,-0.11
2431199975,-0.85,-0.53,-0.11
2431202092,-0.85,-0.53,-0.12
2431203976,-0.85,-0.53,-0.12
2431206008,-0.85,-0.53,-0.12
2431208006,-0.85,-0.53,-0.12
2431210040,-0.85,-0.53,-0.12
2431212034,-0.86,-0.53,-0.12
2431214012,-0.86,-0.53,-0.12
2431216007,-0.86,-0.53,-0.12
2431218049,-0.86,-0.53,-0.12
2431220005,-0.86,-0.53,-0.12
2431222006,-0.84,-0.54,-0.13
2431223977,-0.84,-0.54,-0.13
2431226099,-0.84,-0.54,-0.13
2431228011,-0.84,-0.54,-0.13
2431229976,-0.84,-0.54,-0.13
2431231972,-0.83,-0.54,-0.12
2431233975,-0.83,-0.54,-0.12
2431235974,-0.83,-0.54,-0.12
2431237973,-0.83,-0.54,-0.12
2431239976,-0.83,-0.54,-0.12
2431241976,-0.84,-0.55,-0.12
2431243977,-0.84,-0.55,-0.12
2431246020,-0.84,-0.55,-0.12
2431248006,-0.84,-0.55,-0.12
2431250012,-0.84,-0.55,-0.12
2431252115,-0.83,-0.55,-0.12
2431254006,-0.83,-0.55,-0.12
2431256007,-0.83,-0.55,-0.12
2431258063,-0.83,-0.55,-0.12
2431260041,-0.83,-0.55,-0.12
2431262007,-0.83,-0.55,-0.12
2431264008,-0.83,-0.55,-0.13
2431265980,-0.83,-0.55,-0.13
2431267980,-0.83,-0.55,-0.13
2431269977,-0.83,-0.55,-0.13
2431271980,-0.83,-0.55,-0.13
2431273979,-0.82,-0.56,-0.13
2431276091,-0.82,-0.56,-0.13
2431277987,-0.82,-0.56,-0.13
2431279980,-0.82,-0.56,-0.13
2431281974,-0.82,-0.56,-0.13
2431283978,-0.82,-0.57,-0.12
2431286012,-0.82,-0.57,-0.12
2431288002,-0.82,-0.57,-0.12
2431290002,-0.82,-0.57,-0.12
2431292001,-0.82,-0.57,-0.12
2431294007,-0.82,-0.57,-0.11
2431296008,-0.82,-0.57,-0.11
2431298008,-0.82,-0.57,-0.11
2431299981,-0.82,-0.57,-0.11
2431302100,-0.82,-0.57,-0.11
2431304059,-0.82,-0.58,-0.11
2431306018,-0.82,-0.58,-0.11
2431307976,-0.82,-0.58,-0.11
2431309979,-0.82,-0.58,-0.11
2431311973,-0.82,-0.58,-0.11
2431313975,-0.83,-0.54,-0.12
2431315975,-0.83,-0.54,-0.12
2431317978,-0.83,-0.54,-0.12
2431320016,-0.83,-0.54,-0.12
2431321984,-0.83,-0.54,-0.12
2431323977,-0.83,-0.55,-0.13
2431326119,-0.83,-0.55,-0.13
2431328045,-0.83,-0.55,-0.13
2431330005,-0.83,-0.55,-0.13
2431332007,-0.83,-0.55,-0.13
2431334001,-0.82,-0.55,-0.09
2431336006,-0.82,-0.55,-0.09
2431338006,-0.82,-0.55,-0.09
2431339981,-0.82,-0.55,-0.09
2431341981,-0.82,-0.55,-0.09
2431343976,-0.84,-0.59,-0.12
2431345981,-0.84,-0.59,-0.12
2431347979,-0.84,-0.59,-0.12
2431349981,-0.84,-0.59,-0.12
2431352089,-0.84,-0.59,-0.12
2431353979,-0.83,-0.57,-0.11
2431355975,-0.83,-0.57,-0.11
2431357980,-0.83,-0.57,-0.11
2431359980,-0.83,-0.57,-0.11
2431361979,-0.83,-0.57,-0.11
2431363977,-0.85,-0.56,-0.14
2431366062,-0.85,-0.56,-0.14
2431368045,-0.85,-0.56,-0.14
2431370006,-0.85,-0.56,-0.14
2431372004,-0.85,-0.56,-0.14
2431374009,-0.83,-0.50,-0.07
2431376115,-0.83,-0.50,-0.07
2431378013,-0.83,-0.50,-0.07
2431380010,-0.83,-0.50,-0.07
2431381976,-0.83,-0.50,-0.07
2431383977,-0.83,-0.54,-0.12
2431385982,-0.83,-0.54,-0.12
2431387980,-0.83,-0.54,-0.12
2431389974,-0.83,-0.54,-0.12
2431391979,-0.83,-0.54,-0.12
2431393980,-0.83,-0.53,-0.08
2431395991,-0.83,-0.53,-0.08
2431397975,-0.83,-0.53,-0.08
2431399983,-0.83,-0.53,-0.08
2431402093,-0.83,-0.53,-0.08
2431403974,-0.83,-0.56,-0.06
2431406015,-0.83,-0.56,-0.06
2431408006,-0.83,-0.56,-0.06
2431410004,-0.83,-0.56,-0.06
2431412006,-0.83,-0.56,-0.06
2431414004,-0.85,-0.55,-0.09
2431416011,-0.85,-0.55,-0.09
2431417976,-0.85,-0.55,-0.09
2431419977,-0.85,-0.55,-0.09
2431422023,-0.85,-0.55,-0.09
2431423977,-0.84,-0.54,-0.10
2431426084,-0.84,-0.54,-0.10
2431428030,-0.84,-0.54,-0.10
2431430140,-0.84,-0.54,-0.10
2431432018,-0.84,-0.54,-0.10
2431433977,-0.86,-0.53,-0.08
2431435979,-0.86,-0.53,-0.08
2431437978,-0.86,-0.53,-0.08
2431439978,-0.86,-0.53,-0.08
2431441980,-0.86,-0.53,-0.08
2431443976,-0.85,-0.52,-0.07
2431446029,-0.85,-0.52,-0.07
2431448008,-0.85,-0.52,-0.07
2431450008,-0.85,-0.52,-0.07
2431452136,-0.85,-0.52,-0.07
2431454012,-0.85,-0.52,-0.07
2431456008,-0.84,-0.54,-0.09
2431458010,-0.84,-0.54,-0.09
2431459980,-0.84,-0.54,-0.09
2431461975,-0.84,-0.54,-0.09
2431463976,-0.84,-0.54,-0.09
2431465985,-0.86,-0.52,-0.07
2431467980,-0.86,-0.52,-0.07
2431469979,-0.86,-0.52,-0.07
2431471975,-0.86,-0.52,-0.07
2431473980,-0.86,-0.52,-0.07
2431476077,-0.85,-0.52,-0.07
2431477987,-0.85,-0.52,-0.07
2431479979,-0.85,-0.52,-0.07
2431481979,-0.85,-0.52,-0.07
2431483978,-0.85,-0.52,-0.07
2431486017,-0.85,-0.52,-0.09
2431488009,-0.85,-0.52,-0.09
2431490009,-0.85,-0.52,-0.09
2431492009,-0.85,-0.52,-0.09
2431494009,-0.85,-0.52,-0.09
2431496012,-0.84,-0.52,-0.08
2431497980,-0.84,-0.52,-0.08
2431499993,-0.84,-0.52,-0.08
2431502092,-0.84,-0.52,-0.08
2431503979,-0.84,-0.52,-0.08
2431505976,-0.84,-0.51,-0.05
2431507977,-0.84,-0.51,-0.05
2431509975,-0.84,-0.51,-0.05
2431511975,-0.84,-0.51,-0.05
2431513987,-0.84,-0.51,-0.05
2431516060,-0.86,-0.52,-0.07
2431518016,-0.86,-0.52,-0.07
2431519975,-0.86,-0.52,-0.07
2431521979,-0.86,-0.52,-0.07
2431523991,-0.86,-0.52,-0.07
2431526121,-0.86,-0.53,-0.07
2431528045,-0.86,-0.53,-0.07
2431530000,-0.86,-0.53,-0.07
2431532005,-0.86,-0.53,-0.07
2431534001,-0.86,-0.53,-0.07
2431536007,-0.85,-0.53,-0.08
2431538000,-0.85,-0.53,-0.08
2431540006,-0.85,-0.53,-0.08
2431541977,-0.85,-0.53,-0.08
2431543979,-0.85,-0.53,-0.08
2431545980,-0.84,-0.52,-0.07
2431547977,-0.84,-0.52,-0.07
2431549980,-0.84,-0.52,-0.07
2431552092,-0.84,-0.52,-0.07
2431553984,-0.84,-0.52,-0.07
2431555977,-0.84,-0.54,-0.07
2431557975,-0.84,-0.54,-0.07
2431559979,-0.84,-0.54,-0.07
2431561977,-0.84,-0.54,-0.07
2431563979,-0.84,-0.54,-0.07
2431566007,-0.83,-0.54,-0.07
2431568002,-0.83,-0.54,-0.07
2431570006,-0.83,-0.54,-0.07
2431572004,-0.83,-0.54,-0.07
2431574003,-0.83,-0.54,-0.07
2431576091,-0.82,-0.55,-0.08
2431577995,-0.82,-0.55,-0.08
2431579976,-0.82,-0.55,-0.08
2431581979,-0.82,-0.55,-0.08
2431583981,-0.82,-0.55,-0.08
2431585976,-0.83,-0.55,-0.09
2431587977,-0.83,-0.55,-0.09
2431589979,-0.83,-0.55,-0.09
2431591973,-0.83,-0.55,-0.09
2431593979,-0.83,-0.55,-0.09
2431595994,-0.82,-0.56,-0.09
2431597976,-0.82,-0.56,-0.09
2431599987,-0.82,-0.56,-0.09
2431602169,-0.82,-0.56,-0.09
2431604027,-0.82,-0.56,-0.09
2431606025,-0.82,-0.58,-0.11
2431608005,-0.82,-0.58,-0.11
2431610001,-0.82,-0.58,-0.11
2431612004,-0.82,-0.58,-0.11
2431614007,-0.82,-0.58,-0.11
2431616007,-0.81,-0.59,-0.11
2431618006,-0.81,-0.59,-0.11
2431619977,-0.81,-0.59,-0.11
2431622049,-0.81,-0.59,-0.11
2431623973,-0.81,-0.59,-0.11
2431626098,-0.81,-0.58,-0.12
2431628046,-0.81,-0.58,-0.12
2431629978,-0.81,-0.58,-0.12
2431631976,-0.81,-0.58,-0.12
2431633980,-0.81,-0.58,-0.12
2431635974,-0.82,-0.57,-0.14
2431637975,-0.82,-0.57,-0.14
2431639978,-0.82,-0.57,-0.14
2431641978,-0.82,-0.57,-0.14
2431643979,-0.82,-0.57,-0.14
2431646019,-0.82,-0.57,-0.14
2431648018,-0.83,-0.57,-0.16
2431650005,-0.83,-0.57,-0.16
2431652120,-0.83,-0.57,-0.16
2431654008,-0.83,-0.57,-0.16
2431656005,-0.83,-0.57,-0.16
2431658009,-0.83,-0.55,-0.14
2431659979,-0.83,-0.55,-0.14
2431661979,-0.83,-0.55,-0.14
2431663979,-0.83,-0.55,-0.14
2431665980,-0.83,-0.55,-0.14
2431667973,-0.83,-0.54,-0.15
2431669977,-0.83,-0.54,-0.15
2431671977,-0.83,-0.54,-0.15
2431673980,-0.83,-0.54,-0.15
2431676078,-0.83,-0.54,-0.15
2431677987,-0.84,-0.54,-0.14
2431679981,-0.84,-0.54,-0.14
2431681980,-0.84,-0.54,-0.14
2431683981,-0.84,-0.54,-0.14
2431686007,-0.84,-0.54,-0.14
2431688003,-0.84,-0.55,-0.13
2431690002,-0.84,-0.55,-0.13
2431692106,-0.84,-0.55,-0.13
2431694031,-0.84,-0.55,-0.13
2431696014,-0.84,-0.55,-0.13
2431698006,-0.84,-0.54,-0.14
2431700008,-0.84,-0.54,-0.14
2431702096,-0.84,-0.54,-0.14
2431704044,-0.84,-0.54,-0.14
2431705979,-0.84,-0.54,-0.14
2431707976,-0.84,-0.54,-0.13
2431709975,-0.84,-0.54,-0.13
2431711977,-0.84,-0.54,-0.13
2431713981,-0.84,-0.54,-0.13
2431715980,-0.84,-0.54,-0.13
2431717979,-0.84,-0.52,-0.12
2431719980,-0.84,-0.52,-0.12
2431721979,-0.84,-0.52,-0.12
2431723977,-0.84,-0.52,-0.12
2431726114,-0.84,-0.52,-0.12
2431728039,-0.83,-0.54,-0.13
2431730057,-0.83,-0.54,-0.13
2431732002,-0.83,-0.54,-0.13
2431734000,-0.83,-0.54,-0.13
2431736004,-0.83,-0.54,-0.13
2431738003,-0.83,-0.54,-0.11
2431740009,-0.83,-0.54,-0.11
2431741976,-0.83,-0.54,-0.11
2431743984,-0.83,-0.54,-0.11
2431745974,-0.83,-0.54,-0.11
2431747984,-0.83,-0.54,-0.09
2431749993,-0.83,-0.54,-0.09
2431752092,-0.83,-0.54,-0.09
2431753975,-0.83,-0.54,-0.09
2431755980,-0.83,-0.54,-0.09
2431757975,-0.84,-0.54,-0.09
2431759977,-0.84,-0.54,-0.09
2431761975,-0.84,-0.54,-0.09
2431763980,-0.84,-0.54,-0.09
2431766015,-0.84,-0.54,-0.09
2431768006,-0.84,-0.54,-0.10
2431770005,-0.84,-0.54,-0.10
2431772005,-0.84,-0.54,-0.10
2431774005,-0.84,-0.54,-0.10
2431776094,-0.84,-0.54,-0.10
2431777990,-0.85,-0.53,-0.09
2431779984,-0.85,-0.53,-0.09
2431781979,-0.85,-0.53,-0.09
2431783981,-0.85,-0.53,-0.09
2431785980,-0.85,-0.53,-0.09
2431787979,-0.85,-0.53,-0.09
2431789980,-0.85,-0.53,-0.09
2431791975,-0.85,-0.53,-0.09
2431793984,-0.85,-0.53,-0.09
2431795992,-0.85,-0.53,-0.09
2431797976,-0.83,-0.55,-0.07
2431799975,-0.83,-0.55,-0.07
2431802058,-0.83,-0.55,-0.07
2431803992,-0.83,-0.55,-0.07
2431806049,-0.83,-0.55,-0.07
2431808031,-0.83,-0.55,-0.08
2431810013,-0.83,-0.55,-0.08
2431812006,-0.83,-0.55,-0.08
2431813999,-0.83,-0.55,-0.08
2431816007,-0.83,-0.55,-0.08
2431818003,-0.84,-0.55,-0.07
2431820003,-0.84,-0.55,-0.07
2431821992,-0.84,-0.55,-0.07
2431823977,-0.84,-0.55,-0.07
2431826094,-0.84,-0.55,-0.07
2431828018,-0.84,-0.55,-0.06
2431830043,-0.84,-0.55,-0.06
2431832016,-0.84,-0.55,-0.06
2431833975,-0.84,-0.55,-0.06
2431835980,-0.84,-0.55,-0.06
2431837975,-0.84,-0.55,-0.06
2431839979,-0.84,-0.54,-0.04
2431841976,-0.84,-0.54,-0.04
2431843978,-0.84,-0.54,-0.04
2431846015,-0.84,-0.54,-0.04
2431848005,-0.84,-0.54,-0.04
2431850001,-0.86,-0.52,-0.05
2431852121,-0.86,-0.52,-0.05
2431854003,-0.86,-0.52,-0.05
2431856006,-0.86,-0.52,-0.05
2431858004,-0.86,-0.52,-0.05
2431859985,-0.85,-0.52,-0.04
2431861979,-0.85,-0.52,-0.04
2431863977,-0.85,-0.52,-0.04
2431865977,-0.85,-0.52,-0.04
2431867981,-0.85,-0.52,-0.04
2431869979,-0.84,-0.52,-0.04
2431871977,-0.84,-0.52,-0.04
2431873979,-0.84,-0.52,-0.04
2431876079,-0.84,-0.52,-0.04
2431877987,-0.84,-0.52,-0.04
2431879979,-0.82,-0.54,-0.05
2431881980,-0.82,-0.54,-0.05
2431883976,-0.82,-0.54,-0.05
2431886011,-0.82,-0.54,-0.05
2431888002,-0.82,-0.54,-0.05
2431890002,-0.83,-0.54,-0.07
2431892087,-0.83,-0.54,-0.07
2431894071,-0.83,-0.54,-0.07
2431895996,-0.83,-0.54,-0.07
2431897956,-0.83,-0.54,-0.07
2431899957,-0.82,-0.54,-0.07
2431902074,-0.82,-0.54,-0.07
2431903977,-0.82,-0.54,-0.07
2431905957,-0.82,-0.54,-0.07
2431907957,-0.82,-0.54,-0.07
2431910054,-0.84,-0.55,-0.07
2431912037,-0.84,-0.55,-0.07
2431914001,-0.84,-0.55,-0.07
2431916004,-0.84,-0.55,-0.07
2431918007,-0.84,-0.55,-0.07
2431919980,-0.85,-0.55,-0.10
2431921981,-0.85,-0.55,-0.10
2431923980,-0.85,-0.55,-0.10
2431926113,-0.85,-0.55,-0.10
2431928040,-0.85,-0.55,-0.10
2431930000,-0.84,-0.54,-0.06
2431932004,-0.84,-0.54,-0.06
2431934047,-0.84,-0.54,-0.06
2431936009,-0.84,-0.54,-0.06
2431938004,-0.84,-0.54,-0.06
2431940007,-0.84,-0.53,-0.09
2431941979,-0.84,-0.53,-0.09
2431943979,-0.84,-0.53,-0.09
2431945980,-0.84,-0.53,-0.09
2431947979,-0.84,-0.53,-0.09
2431949981,-0.85,-0.54,-0.11
2431952094,-0.85,-0.54,-0.11
2431953977,-0.85,-0.54,-0.11
2431955972,-0.85,-0.54,-0.11
2431957979,-0.85,-0.54,-0.11
2431959977,-0.84,-0.52,-0.11
2431961981,-0.84,-0.52,-0.11
2431963978,-0.84,-0.52,-0.11
2431966005,-0.84,-0.52,-0.11
2431968002,-0.84,-0.52,-0.11
2431970003,-0.84,-0.53,-0.11
2431972001,-0.84,-0.53,-0.11
2431974003,-0.84,-0.53,-0.11
2431976099,-0.84,-0.53,-0.11
2431977992,-0.84,-0.53,-0.11
2431979976,-0.84,-0.54,-0.12
2431981976,-0.84,-0.54,-0.12
2431983979,-0.84,-0.54,-0.12
2431985974,-0.84,-0.54,-0.12
2431987978,-0.84,-0.54,-0.12
2431989977,-0.84,-0.55,-0.12
2431991974,-0.84,-0.55,-0.12
2431993981,-0.84,-0.55,-0.12
2431995991,-0.84,-0.55,-0.12
2431997978,-0.84,-0.55,-0.12
2431999991,-0.84,-0.55,-0.12
2432002065,-0.84,-0.55,-0.12
2432004030,-0.84,-0.55,-0.12
2432006037,-0.84,-0.55,-0.12
2432008047,-0.84,-0.55,-0.12
2432010005,-0.84,-0.55,-0.12
2432012005,-0.84,-0.55,-0.12
2432014005,-0.84,-0.55,-0.12
2432016008,-0.84,-0.55,-0.12
2432018005,-0.84,-0.55,-0.12
2432020003,-0.84,-0.55,-0.12
2432021984,-0.84,-0.55,-0.11
2432023977,-0.84,-0.55,-0.11
2432026093,-0.84,-0.55,-0.11
2432028017,-0.84,-0.55,-0.11
2432029976,-0.84,-0.55,-0.11
2432031976,-0.82,-0.55,-0.12
2432033979,-0.82,-0.55,-0.12
2432035991,-0.82,-0.55,-0.12
2432038021,-0.82,-0.55,-0.12
2432039976,-0.82,-0.55,-0.12
2432041987,-0.82,-0.55,-0.12
2432043977,-0.82,-0.55,-0.12
2432045977,-0.82,-0.55,-0.12
2432048020,-0.82,-0.55,-0.12
2432050009,-0.82,-0.55,-0.12
2432052119,-0.83,-0.55,-0.10
2432054006,-0.83,-0.55,-0.10
2432056004,-0.83,-0.55,-0.10
2432058005,-0.83,-0.55,-0.10
2432060009,-0.83,-0.55,-0.10
2432061978,-0.83,-0.55,-0.09
2432063980,-0.83,-0.55,-0.09
2432065980,-0.83,-0.55,-0.09
2432067976,-0.83,-0.55,-0.09
2432069980,-0.83,-0.55,-0.09
2432071979,-0.83,-0.57,-0.10
2432073978,-0.83,-0.57,-0.10
2432076073,-0.83,-0.57,-0.10
2432077988,-0.83,-0.57,-0.10
2432079977,-0.83,-0.57,-0.10
2432081980,-0.83,-0.58,-0.10
2432083979,-0.83,-0.58,-0.10
2432085980,-0.83,-0.58,-0.10
2432088007,-0.83,-0.58,-0.10
2432090005,-0.83,-0.58,-0.10
2432092004,-0.82,-0.57,-0.08
2432094034,-0.82,-0.57,-0.08
2432096035,-0.82,-0.57,-0.08
2432098002,-0.82,-0.57,-0.08
2432099958,-0.82,-0.57,-0.08
2432102077,-0.81,-0.56,-0.09
2432103994,-0.81,-0.56,-0.09
2432106051,-0.81,-0.56,-0.09
2432108041,-0.81,-0.56,-0.09
2432110016,-0.81,-0.56,-0.09
2432112010,-0.82,-0.57,-0.10
2432114014,-0.82,-0.57,-0.10
2432115979,-0.82,-0.57,-0.10
2432117980,-0.82,-0.57,-0.10
2432119979,-0.82,-0.57,-0.10
2432121975,-0.83,-0.55,-0.09
2432123976,-0.83,-0.55,-0.09
2432126094,-0.83,-0.55,-0.09
2432128043,-0.83,-0.55,-0.09
2432130010,-0.83,-0.55,-0.09
2432132009,-0.84,-0.54,-0.09
2432134009,-0.84,-0.54,-0.09
2432136007,-0.84,-0.54,-0.09
2432138010,-0.84,-0.54,-0.09
2432140057,-0.84,-0.54,-0.09
2432142005,-0.84,-0.54,-0.10
2432143981,-0.84,-0.54,-0.10
2432145979,-0.84,-0.54,-0.10
2432147979,-0.84,-0.54,-0.10
2432149977,-0.84,-0.54,-0.10
2432152095,-0.84,-0.54,-0.09
2432153975,-0.84,-0.54,-0.09
2432155974,-0.84,-0.54,-0.09
2432157981,-0.84,-0.54,-0.09
2432159978,-0.84,-0.54,-0.09
2432161979,-0.85,-0.53,-0.12
2432163977,-0.85,-0.53,-0.12
2432165977,-0.85,-0.53,-0.12
2432168015,-0.85,-0.53,-0.12
2432170009,-0.85,-0.53,-0.12
2432172006,-0.85,-0.53,-0.10
2432174010,-0.85,-0.53,-0.10
2432176100,-0.85,-0.53,-0.10
2432178012,-0.85,-0.53,-0.10
2432179978,-0.85,-0.53,-0.10
2432181978,-0.85,-0.52,-0.10
2432183975,-0.85,-0.52,-0.10
2432185977,-0.85,-0.52,-0.10
2432187977,-0.85,-0.52,-0.10
2432189975,-0.85,-0.52,-0.10
2432191978,-0.85,-0.52,-0.11
2432193979,-0.85,-0.52,-0.11
2432195991,-0.85,-0.52,-0.11
2432197976,-0.85,-0.52,-0.11
2432199977,-0.85,-0.52,-0.11
2432202076,-0.85,-0.52,-0.11
2432203989,-0.85,-0.52,-0.11
2432205976,-0.85,-0.52,-0.11
2432208019,-0.85,-0.52,-0.11
2432210047,-0.85,-0.52,-0.11
2432212032,-0.85,-0.52,-0.11
2432214014,-0.86,-0.52,-0.11
2432216006,-0.86,-0.52,-0.11
2432218003,-0.86,-0.52,-0.11
2432220001,-0.86,-0.52,-0.11
2432222011,-0.86,-0.52,-0.11
2432223976,-0.85,-0.53,-0.10
2432226220,-0.85,-0.53,-0.10
2432228093,-0.85,-0.53,-0.10
2432230048,-0.85,-0.53,-0.10
2432231993,-0.85,-0.53,-0.10
2432233974,-0.84,-0.54,-0.09
2432235978,-0.84,-0.54,-0.09
2432237980,-0.84,-0.54,-0.09
2432239986,-0.84,-0.54,-0.09
2432242022,-0.84,-0.54,-0.09
2432243984,-0.85,-0.54,-0.10
2432245977,-0.85,-0.54,-0.10
2432248017,-0.85,-0.54,-0.10
2432250008,-0.85,-0.54,-0.10
2432252117,-0.85,-0.54,-0.10
2432254003,-0.84,-0.54,-0.09
2432256002,-0.84,-0.54,-0.09
2432258004,-0.84,-0.54,-0.09
2432260008,-0.84,-0.54,-0.09
2432261974,-0.84,-0.54,-0.09
2432263976,-0.83,-0.54,-0.09
2432265981,-0.83,-0.54,-0.09
2432267980,-0.83,-0.54,-0.09
2432269978,-0.83,-0.54,-0.09
2432271977,-0.83,-0.54,-0.09
2432273977,-0.84,-0.53,-0.10
2432276078,-0.84,-0.53,-0.10
2432277987,-0.84,-0.53,-0.10
2432279975,-0.84,-0.53,-0.10
2432281980,-0.84,-0.53,-0.10
2432283978,-0.84,-0.54,-0.08
2432285978,-0.84,-0.54,-0.08
2432288011,-0.84,-0.54,-0.08
2432290002,-0.84,-0.54,-0.08
2432291999,-0.84,-0.54,-0.08
2432294022,-0.84,-0.54,-0.08
2432296012,-0.84,-0.54,-0.08
2432297957,-0.84,-0.54,-0.08
2432299957,-0.84,-0.54,-0.08
2432302080,-0.84,-0.54,-0.08
2432304044,-0.84,-0.55,-0.07
2432306005,-0.84,-0.55,-0.07
2432308004,-0.84,-0.55,-0.07
2432310008,-0.84,-0.55,-0.07
2432311981,-0.84,-0.55,-0.07
2432313981,-0.83,-0.56,-0.07
2432315979,-0.83,-0.56,-0.07
2432317979,-0.83,-0.56,-0.07
2432319979,-0.83,-0.56,-0.07
2432321984,-0.83,-0.56,-0.07
2432323979,-0.83,-0.56,-0.08
2432326096,-0.83,-0.56,-0.08
2432328010,-0.83,-0.56,-0.08
2432330044,-0.83,-0.56,-0.08
2432331999,-0.83,-0.56,-0.08
2432334003,-0.84,-0.56,-0.09
2432336004,-0.84,-0.56,-0.09
2432338007,-0.84,-0.56,-0.09
2432340009,-0.84,-0.56,-0.09
2432342042,-0.84,-0.56,-0.09
2432344013,-0.83,-0.56,-0.10
2432345974,-0.83,-0.56,-0.10
2432347975,-0.83,-0.56,-0.10
2432349979,-0.83,-0.56,-0.10
2432352100,-0.83,-0.56,-0.10
2432353976,-0.84,-0.55,-0.11
2432355976,-0.84,-0.55,-0.11
2432357977,-0.84,-0.55,-0.11
2432359974,-0.84,-0.55,-0.11
2432361975,-0.84,-0.55,-0.11
2432363978,-0.83,-0.55,-0.11
2432365976,-0.83,-0.55,-0.11
2432368016,-0.83,-0.55,-0.11
2432370006,-0.83,-0.55,-0.11
2432372007,-0.83,-0.55,-0.11
2432374001,-0.84,-0.54,-0.11
2432376095,-0.84,-0.54,-0.11
2432378007,-0.84,-0.54,-0.11
2432380006,-0.84,-0.54,-0.11
2432381978,-0.84,-0.54,-0.11
2432383980,-0.84,-0.55,-0.12
2432385979,-0.84,-0.55,-0.12
2432387984,-0.84,-0.55,-0.12
2432389981,-0.84,-0.55,-0.12
2432391986,-0.84,-0.55,-0.12
2432393979,-0.84,-0.55,-0.12
2432395990,-0.84,-0.54,-0.11
2432397979,-0.84,-0.54,-0.11
2432399979,-0.84,-0.54,-0.11
2432402083,-0.84,-0.54,-0.11
2432403992,-0.84,-0.54,-0.11
2432406062,-0.84,-0.54,-0.12
2432408041,-0.84,-0.54,-0.12
2432410009,-0.84,-0.54,-0.12
2432412005,-0.84,-0.54,-0.12
2432414005,-0.84,-0.54,-0.12
2432416003,-0.84,-0.54,-0.11
2432418005,-0.84,-0.54,-0.11
2432420008,-0.84,-0.54,-0.11
2432421976,-0.84,-0.54,-0.11
2432423980,-0.84,-0.54,-0.11
2432426098,-0.84,-0.54,-0.12
2432427989,-0.84,-0.54,-0.12
2432430016,-0.84,-0.54,-0.12
2432431979,-0.84,-0.54,-0.12
2432433978,-0.84,-0.54,-0.12
2432435984,-0.84,-0.54,-0.12
2432437978,-0.84,-0.54,-0.12
2432439976,-0.84,-0.54,-0.12
2432441978,-0.84,-0.54,-0.12
2432443979,-0.84,-0.54,-0.12
2432446026,-0.83,-0.55,-0.12
2432448023,-0.83,-0.55,-0.12
2432450005,-0.83,-0.55,-0.12
2432452117,-0.83,-0.55,-0.12
2432454006,-0.83,-0.55,-0.12
2432456003,-0.83,-0.55,-0.11
2432458002,-0.83,-0.55,-0.11
2432460007,-0.83,-0.55,-0.11
2432461979,-0.83,-0.55,-0.11
2432463980,-0.83,-0.55,-0.11
2432465976,-0.83,-0.55,-0.11
2432467984,-0.83,-0.55,-0.11
2432469979,-0.83,-0.55,-0.11
2432471977,-0.83,-0.55,-0.11
2432473984,-0.83,-0.55,-0.11
2432476079,-0.83,-0.57,-0.09
2432477992,-0.83,-0.57,-0.09
2432479976,-0.83,-0.57,-0.09
2432481977,-0.83,-0.57,-0.09
2432483980,-0.83,-0.57,-0.09
2432485977,-0.83,-0.55,-0.09
2432488013,-0.83,-0.55,-0.09
2432490005,-0.83,-0.55,-0.09
2432492005,-0.83,-0.55,-0.09
2432494088,-0.83,-0.55,-0.09
2432496021,-0.83,-0.56,-0.10
2432498030,-0.83,-0.56,-0.10
2432500009,-0.83,-0.56,-0.10
2432502080,-0.83,-0.56,-0.10
2432503974,-0.83,-0.56,-0.10
2432505958,-0.83,-0.55,-0.09
2432507958,-0.83,-0.55,-0.09
2432509989,-0.83,-0.55,-0.09
2432512054,-0.83,-0.55,-0.09
2432514042,-0.83,-0.55,-0.09
2432516013,-0.82,-0.55,-0.08
2432518013,-0.82,-0.55,-0.08
2432519981,-0.82,-0.55,-0.08
2432521980,-0.82,-0.55,-0.08
2432523980,-0.82,-0.55,-0.08
2432526093,-0.82,-0.55,-0.09
2432528016,-0.82,-0.55,-0.09
2432530047,-0.82,-0.55,-0.09
2432532008,-0.82,-0.55,-0.09
2432534006,-0.82,-0.55,-0.09
2432536005,-0.83,-0.55,-0.08
2432538004,-0.83,-0.55,-0.08
2432540012,-0.83,-0.55,-0.08
2432541979,-0.83,-0.55,-0.08
2432543978,-0.83,-0.55,-0.08
2432545981,-0.83,-0.55,-0.08
2432547998,-0.83,-0.55,-0.08
2432550017,-0.83,-0.55,-0.08
2432552093,-0.83,-0.55,-0.08
2432553975,-0.83,-0.55,-0.08
2432555978,-0.83,-0.56,-0.10
2432557975,-0.83,-0.56,-0.10
2432559977,-0.83,-0.56,-0.10
2432561977,-0.83,-0.56,-0.10
2432563974,-0.83,-0.56,-0.10
2432565976,-0.84,-0.54,-0.09
2432568026,-0.84,-0.54,-0.09
2432570007,-0.84,-0.54,-0.09
2432572008,-0.84,-0.54,-0.09
2432574009,-0.84,-0.54,-0.09
2432576100,-0.84,-0.54,-0.09
2432578010,-0.84,-0.54,-0.09
2432580010,-0.84,-0.54,-0.09
2432581979,-0.84,-0.54,-0.09
2432583980,-0.84,-0.54,-0.09
2432585979,-0.84,-0.54,-0.09
2432587979,-0.84,-0.54,-0.10
2432589980,-0.84,-0.54,-0.10
2432591978,-0.84,-0.54,-0.10
2432593981,-0.84,-0.54,-0.10
2432595991,-0.84,-0.54,-0.10
2432597979,-0.85,-0.53,-0.10
2432600058,-0.85,-0.53,-0.10
2432602134,-0.85,-0.53,-0.10
2432603988,-0.85,-0.53,-0.10
2432605976,-0.85,-0.53,-0.10
2432608022,-0.85,-0.52,-0.10
2432610007,-0.85,-0.52,-0.10
2432612006,-0.85,-0.52,-0.10
2432614008,-0.85,-0.52,-0.10
2432616000,-0.85,-0.52,-0.10
2432618004,-0.84,-0.53,-0.10
2432620009,-0.84,-0.53,-0.10
2432622051,-0.84,-0.53,-0.10
2432623976,-0.84,-0.53,-0.10
2432626080,-0.84,-0.53,-0.10
2432627990,-0.85,-0.54,-0.10
2432630019,-0.85,-0.54,-0.10
2432631981,-0.85,-0.54,-0.10
2432633979,-0.85,-0.54,-0.10
2432635979,-0.85,-0.54,-0.10
2432637978,-0.84,-0.53,-0.10
2432639976,-0.84,-0.53,-0.10
2432641977,-0.84,-0.53,-0.10
2432643979,-0.84,-0.53,-0.10
2432645976,-0.84,-0.53,-0.10
2432648012,-0.83,-0.54,-0.10
2432650006,-0.83,-0.54,-0.10
2432652181,-0.83,-0.54,-0.10
2432654024,-0.83,-0.54,-0.10
2432656014,-0.83,-0.54,-0.10
2432658004,-0.84,-0.53,-0.09
2432660002,-0.84,-0.53,-0.09
2432662005,-0.84,-0.53,-0.09
2432664008,-0.84,-0.53,-0.09
2432665980,-0.84,-0.53,-0.09
2432667976,-0.83,-0.54,-0.09
2432669978,-0.83,-0.54,-0.09
2432671980,-0.83,-0.54,-0.09
2432673977,-0.83,-0.54,-0.09
2432676091,-0.83,-0.54,-0.09
2432677988,-0.84,-0.54,-0.09
2432679976,-0.84,-0.54,-0.09
2432681981,-0.84,-0.54,-0.09
2432683980,-0.84,-0.54,-0.09
2432685979,-0.84,-0.54,-0.09
2432688008,-0.83,-0.55,-0.09
2432690006,-0.83,-0.55,-0.09
2432692006,-0.83,-0.55,-0.09
2432694009,-0.83,-0.55,-0.09
2432696014,-0.83,-0.55,-0.09
2432698007,-0.83,-0.55,-0.09
2432700004,-0.83,-0.55,-0.09
2432702076,-0.83,-0.55,-0.09
2432703990,-0.83,-0.55,-0.09
2432705977,-0.83,-0.55,-0.09
2432707972,-0.83,-0.56,-0.09
2432709976,-0.83,-0.56,-0.09
2432712066,-0.83,-0.56,-0.09
2432714020,-0.83,-0.56,-0.09
2432715976,-0.83,-0.56,-0.09
2432717977,-0.83,-0.55,-0.10
2432719977,-0.83,-0.55,-0.10
2432721978,-0.83,-0.55,-0.10
2432723976,-0.83,-0.55,-0.10
2432726086,-0.83,-0.55,-0.10
2432728029,-0.84,-0.55,-0.10
2432730038,-0.84,-0.55,-0.10
2432732002,-0.84,-0.55,-0.10
2432734007,-0.84,-0.55,-0.10
2432736005,-0.84,-0.55,-0.10
2432738007,-0.84,-0.55,-0.10
2432740002,-0.84,-0.55,-0.10
2432741979,-0.84,-0.55,-0.10
2432743979,-0.84,-0.55,-0.10
2432745975,-0.84,-0.55,-0.10
2432747978,-0.84,-0.55,-0.11
2432750020,-0.84,-0.55,-0.11
2432752165,-0.84,-0.55,-0.11
2432754015,-0.84,-0.55,-0.11
2432755976,-0.84,-0.55,-0.11
2432757976,-0.84,-0.55,-0.10
2432759979,-0.84,-0.55,-0.10
2432761980,-0.84,-0.55,-0.10
2432763979,-0.84,-0.55,-0.10
2432765975,-0.84,-0.55,-0.10
2432768017,-0.83,-0.55,-0.11
2432770006,-0.83,-0.55,-0.11
2432772013,-0.83,-0.55,-0.11
2432774076,-0.83,-0.55,-0.11
2432776119,-0.83,-0.55,-0.11
2432778009,-0.83,-0.55,-0.11
2432780002,-0.83,-0.55,-0.11
2432782002,-0.83,-0.55,-0.11
2432784007,-0.83,-0.55,-0.11
2432785977,-0.83,-0.55,-0.11
2432787980,-0.83,-0.55,-0.11
2432789977,-0.83,-0.56,-0.12
2432791977,-0.83,-0.56,-0.12
2432793981,-0.83,-0.56,-0.12
2432795992,-0.83,-0.56,-0.12
2432797977,-0.83,-0.56,-0.12
2432799978,-0.83,-0.55,-0.11
2432802080,-0.83,-0.55,-0.11
2432803987,-0.83,-0.55,-0.11
2432805980,-0.83,-0.55,-0.11
2432808014,-0.83,-0.55,-0.11
2432810006,-0.83,-0.55,-0.11
2432812007,-0.83,-0.55,-0.11
2432814008,-0.83,-0.55,-0.11
2432816010,-0.83,-0.55,-0.11
2432818000,-0.83,-0.55,-0.11
2432820007,-0.83,-0.55,-0.12
2432821979,-0.83,-0.55,-0.12
2432823980,-0.83,-0.55,-0.12
2432826087,-0.83,-0.55,-0.12
2432827996,-0.83,-0.55,-0.12
2432830018,-0.83,-0.55,-0.11
2432831979,-0.83,-0.55,-0.11
2432833996,-0.83,-0.55,-0.11
2432836083,-0.83,-0.55,-0.11
2432838013,-0.83,-0.55,-0.11
2432839978,-0.83,-0.56,-0.11
2432841977,-0.83,-0.56,-0.11
2432843980,-0.83,-0.56,-0.11
2432845979,-0.83,-0.56,-0.11
2432848018,-0.83,-0.56,-0.11
2432850001,-0.83,-0.55,-0.12
2432852116,-0.83,-0.55,-0.12
2432854036,-0.83,-0.55,-0.12
2432856051,-0.83,-0.55,-0.12
2432858004,-0.83,-0.55,-0.12
2432860003,-0.83,-0.55,-0.11
2432862008,-0.83,-0.55,-0.11
2432863978,-0.83,-0.55,-0.11
2432865979,-0.83,-0.55,-0.11
2432867978,-0.83,-0.55,-0.11
2432869981,-0.83,-0.55,-0.11
2432871979,-0.83,-0.55,-0.11
2432873980,-0.83,-0.55,-0.11
2432876085,-0.83,-0.55,-0.11
2432877989,-0.83,-0.55,-0.11
2432879979,-0.83,-0.55,-0.09
2432881978,-0.83,-0.55,-0.09
2432883977,-0.83,-0.55,-0.09
2432885981,-0.83,-0.55,-0.09
2432888016,-0.83,-0.55,-0.09
2432890001,-0.84,-0.55,-0.09
2432892005,-0.84,-0.55,-0.09
2432894021,-0.84,-0.55,-0.09
2432896060,-0.84,-0.55,-0.09
2432898033,-0.84,-0.55,-0.09
2432900011,-0.83,-0.54,-0.09
2432902120,-0.83,-0.54,-0.09
2432904005,-0.83,-0.54,-0.09
2432905980,-0.83,-0.54,-0.09
2432907979,-0.83,-0.54,-0.09
2432909979,-0.83,-0.55,-0.08
2432911978,-0.83,-0.55,-0.08
2432913979,-0.83,-0.55,-0.08
2432915978,-0.83,-0.55,-0.08
2432917980,-0.83,-0.55,-0.08
2432919979,-0.84,-0.54,-0.07
2432921977,-0.84,-0.54,-0.07
2432923975,-0.84,-0.54,-0.07
2432926074,-0.84,-0.54,-0.07
2432928014,-0.84,-0.54,-0.07
2432930039,-0.84,-0.54,-0.08
2432932004,-0.84,-0.54,-0.08
2432934004,-0.84,-0.54,-0.08
2432936005,-0.84,-0.54,-0.08
2432938006,-0.84,-0.54,-0.08
2432940008,-0.84,-0.54,-0.08
2432941979,-0.84,-0.54,-0.08
2432943981,-0.84,-0.54,-0.08
2432945980,-0.84,-0.54,-0.08
2432947976,-0.84,-0.54,-0.08
2432949976,-0.84,-0.54,-0.08
2432952094,-0.84,-0.54,-0.08
2432953981,-0.84,-0.54,-0.08
2432956059,-0.84,-0.54,-0.08
2432958035,-0.84,-0.54,-0.08
2432960009,-0.84,-0.54,-0.08
2432961976,-0.84,-0.54,-0.08
2432963977,-0.84,-0.54,-0.08
2432965974,-0.84,-0.54,-0.08
2432968018,-0.84,-0.54,-0.08
2432970002,-0.84,-0.54,-0.08
2432972002,-0.84,-0.53,-0.08
2432974006,-0.84,-0.53,-0.08
2432976113,-0.84,-0.53,-0.08
2432978008,-0.84,-0.53,-0.08
2432980008,-0.84,-0.53,-0.08
2432981980,-0.85,-0.52,-0.07
2432983977,-0.85,-0.52,-0.07
2432985978,-0.85,-0.52,-0.07
2432987980,-0.85,-0.52,-0.07
2432989976,-0.85,-0.52,-0.07
2432991977,-0.86,-0.52,-0.08
2432993980,-0.86,-0.52,-0.08
2432995991,-0.86,-0.52,-0.08
2432997978,-0.86,-0.52,-0.08
2432999991,-0.86,-0.52,-0.08
2433002078,-0.86,-0.51,-0.07
2433004065,-0.86,-0.51,-0.07
2433006021,-0.86,-0.51,-0.07
2433008023,-0.86,-0.51,-0.07
2433010005,-0.86,-0.51,-0.07
2433012001,-0.84,-0.51,-0.06
2433014005,-0.84,-0.51,-0.06
2433016006,-0.84,-0.51,-0.06
2433018006,-0.84,-0.51,-0.06
2433020008,-0.84,-0.51,-0.06
2433021980,-0.84,-0.52,-0.07
2433023981,-0.84,-0.52,-0.07
2433026100,-0.84,-0.52,-0.07
2433027991,-0.84,-0.52,-0.07
2433030016,-0.84,-0.52,-0.07
2433031979,-0.83,-0.53,-0.07
2433033978,-0.83,-0.53,-0.07
2433035977,-0.83,-0.53,-0.07
2433037975,-0.83,-0.53,-0.07
2433039976,-0.83,-0.53,-0.07
2433041978,-0.84,-0.54,-0.07
2433043977,-0.84,-0.54,-0.07
2433045976,-0.84,-0.54,-0.07
2433048018,-0.84,-0.54,-0.07
2433050007,-0.84,-0.54,-0.07
2433052116,-0.83,-0.55,-0.08
2433054005,-0.83,-0.55,-0.08
2433056004,-0.83,-0.55,-0.08
2433058002,-0.83,-0.55,-0.08
2433060006,-0.83,-0.55,-0.08
2433062022,-0.84,-0.56,-0.08
2433063976,-0.84,-0.56,-0.08
2433065976,-0.84,-0.56,-0.08
2433067978,-0.84,-0.56,-0.08
2433070115,-0.84,-0.56,-0.08
2433072013,-0.84,-0.57,-0.11
2433073980,-0.84,-0.57,-0.11
2433076094,-0.84,-0.57,-0.11
2433077990,-0.84,-0.57,-0.11
2433079973,-0.84,-0.57,-0.11
2433081979,-0.82,-0.56,-0.11
2433083978,-0.82,-0.56,-0.11
2433085977,-0.82,-0.56,-0.11
2433088019,-0.82,-0.56,-0.11
2433090006,-0.82,-0.56,-0.11
2433092006,-0.82,-0.57,-0.11
2433094008,-0.82,-0.57,-0.11
2433096009,-0.82,-0.57,-0.11
2433098001,-0.82,-0.57,-0.11
2433100004,-0.82,-0.57,-0.11
2433102082,-0.83,-0.56,-0.11
2433103990,-0.83,-0.56,-0.11
2433105978,-0.83,-0.56,-0.11
2433107974,-0.83,-0.56,-0.11
2433109977,-0.83,-0.56,-0.11
2433111976,-0.83,-0.56,-0.12
2433113974,-0.83,-0.56,-0.12
2433115975,-0.83,-0.56,-0.12
2433117976,-0.83,-0.56,-0.12
2433119978,-0.83,-0.56,-0.12
2433121974,-0.83,-0.55,-0.13
2433123979,-0.83,-0.55,-0.13
2433126059,-0.83,-0.55,-0.13
2433128068,-0.83,-0.55,-0.13
2433130048,-0.83,-0.55,-0.13
2433132013,-0.83,-0.57,-0.12
2433134005,-0.83,-0.57,-0.12
2433136004,-0.83,-0.57,-0.12
2433138007,-0.83,-0.57,-0.12
2433140006,-0.83,-0.57,-0.12
2433142005,-0.83,-0.56,-0.12
2433144008,-0.83,-0.56,-0.12
2433145980,-0.83,-0.56,-0.12
2433147981,-0.83,-0.56,-0.12
2433149977,-0.83,-0.56,-0.12
2433152093,-0.83,-0.55,-0.12
2433153979,-0.83,-0.55,-0.12
2433155980,-0.83,-0.55,-0.12
2433157985,-0.83,-0.55,-0.12
2433159981,-0.83,-0.55,-0.12
2433161975,-0.83,-0.55,-0.12
2433164029,-0.82,-0.55,-0.14
2433165977,-0.82,-0.55,-0.14
2433167975,-0.82,-0.55,-0.14
2433170020,-0.82,-0.55,-0.14
2433172006,-0.82,-0.55,-0.14
2433174035,-0.84,-0.54,-0.13
2433176123,-0.84,-0.54,-0.13
2433178018,-0.84,-0.54,-0.13
2433180010,-0.84,-0.54,-0.13
2433182007,-0.84,-0.54,-0.13
2433184005,-0.84,-0.55,-0.13
2433186013,-0.84,-0.55,-0.13
2433187977,-0.84,-0.55,-0.13
2433189979,-0.84,-0.55,-0.13
2433191979,-0.84,-0.55,-0.13
2433193979,-0.84,-0.55,-0.13
2433195992,-0.84,-0.55,-0.13
2433197976,-0.84,-0.55,-0.13
2433199978,-0.84,-0.55,-0.13
2433202082,-0.84,-0.55,-0.13
2433203987,-0.84,-0.55,-0.12
2433205977,-0.84,-0.55,-0.12
2433207979,-0.84,-0.55,-0.12
2433210016,-0.84,-0.55,-0.12
2433212005,-0.84,-0.55,-0.12
2433214003,-0.84,-0.54,-0.12
2433216006,-0.84,-0.54,-0.12
2433218011,-0.84,-0.54,-0.12
2433220011,-0.84,-0.54,-0.12
2433221986,-0.84,-0.54,-0.12
2433223981,-0.82,-0.55,-0.11
2433226082,-0.82,-0.55,-0.11
2433228043,-0.82,-0.55,-0.11
2433230032,-0.82,-0.55,-0.11
2433231980,-0.82,-0.55,-0.11
2433234012,-0.83,-0.55,-0.10
2433235972,-0.83,-0.55,-0.10
2433237976,-0.83,-0.55,-0.10
2433239978,-0.83,-0.55,-0.10
2433241977,-0.83,-0.55,-0.10
2433243974,-0.83,-0.55,-0.09
2433245977,-0.83,-0.55,-0.09
2433247977,-0.83,-0.55,-0.09
2433250025,-0.83,-0.55,-0.09
2433252124,-0.83,-0.55,-0.09
2433254011,-0.84,-0.54,-0.09
2433256009,-0.84,-0.54,-0.09
2433258010,-0.84,-0.54,-0.09
2433260009,-0.84,-0.54,-0.09
2433262010,-0.84,-0.54,-0.09
2433263986,-0.84,-0.55,-0.08
2433266031,-0.84,-0.55,-0.08
2433267978,-0.84,-0.55,-0.08
2433269978,-0.84,-0.55,-0.08
2433271974,-0.84,-0.55,-0.08
2433273974,-0.84,-0.54,-0.08
2433276084,-0.84,-0.54,-0.08
2433277990,-0.84,-0.54,-0.08
2433279977,-0.84,-0.54,-0.08
2433281975,-0.84,-0.54,-0.08
2433283983,-0.84,-0.55,-0.08
2433286074,-0.84,-0.55,-0.08
2433288014,-0.84,-0.55,-0.08
2433290021,-0.84,-0.55,-0.08
2433292005,-0.84,-0.55,-0.08
2433294004,-0.83,-0.55,-0.08
2433296009,-0.83,-0.55,-0.08
2433298007,-0.83,-0.55,-0.08
2433300005,-0.83,-0.55,-0.08
2433302119,-0.83,-0.55,-0.08
2433303990,-0.84,-0.54,-0.09
2433305976,-0.84,-0.54,-0.09
2433307976,-0.84,-0.54,-0.09
2433309977,-0.84,-0.54,-0.09
2433311977,-0.84,-0.54,-0.09
2433313974,-0.84,-0.52,-0.06
2433315976,-0.84,-0.52,-0.06
2433317979,-0.84,-0.52,-0.06
2433319978,-0.84,-0.52,-0.06
2433321976,-0.84,-0.52,-0.06
2433323975,-0.84,-0.54,-0.07
2433326056,-0.84,-0.54,-0.07
2433327986,-0.84,-0.54,-0.07
2433330009,-0.84,-0.54,-0.07
2433332033,-0.84,-0.54,-0.07
2433334061,-0.84,-0.54,-0.09
2433336052,-0.84,-0.54,-0.09
2433338006,-0.84,-0.54,-0.09
2433340004,-0.84,-0.54,-0.09
2433342003,-0.84,-0.54,-0.09
2433344005,-0.84,-0.54,-0.09
2433346006,-0.85,-0.53,-0.08
2433347981,-0.85,-0.53,-0.08
2433349979,-0.85,-0.53,-0.08
2433352106,-0.85,-0.53,-0.08
2433353981,-0.85,-0.53,-0.08
2433355975,-0.86,-0.52,-0.08
2433357975,-0.86,-0.52,-0.08
2433359980,-0.86,-0.52,-0.08
2433361980,-0.86,-0.52,-0.08
2433363979,-0.86,-0.52,-0.08
2433365979,-0.84,-0.52,-0.08
2433368032,-0.84,-0.52,-0.08
2433370015,-0.84,-0.52,-0.08
2433372002,-0.84,-0.52,-0.08
2433374005,-0.84,-0.52,-0.08
2433376113,-0.84,-0.53,-0.09
2433378010,-0.84,-0.53,-0.09
2433380058,-0.84,-0.53,-0.09
2433382046,-0.84,-0.53,-0.09
2433384006,-0.84,-0.53,-0.09
2433386011,-0.85,-0.53,-0.09
2433387980,-0.85,-0.53,-0.09
2433389980,-0.85,-0.53,-0.09
2433391979,-0.85,-0.53,-0.09
2433393981,-0.85,-0.53,-0.09
2433395993,-0.84,-0.54,-0.09
2433397979,-0.84,-0.54,-0.09
2433399974,-0.84,-0.54,-0.09
2433402097,-0.84,-0.54,-0.09
2433403989,-0.84,-0.54,-0.09
2433405979,-0.85,-0.53,-0.10
2433407980,-0.85,-0.53,-0.10
2433410013,-0.85,-0.53,-0.10
2433412006,-0.85,-0.53,-0.10
2433414005,-0.85,-0.53,-0.10
2433416001,-0.84,-0.54,-0.09
2433418002,-0.84,-0.54,-0.09
2433420004,-0.84,-0.54,-0.09
2433421990,-0.84,-0.54,-0.09
2433423977,-0.84,-0.54,-0.09
2433426113,-0.84,-0.54,-0.09
2433428034,-0.84,-0.54,-0.09
2433429975,-0.84,-0.54,-0.09
2433431979,-0.84,-0.54,-0.09
2433433979,-0.84,-0.54,-0.09
2433436007,-0.83,-0.55,-0.10
2433437975,-0.83,-0.55,-0.10
2433439976,-0.83,-0.55,-0.10
2433441976,-0.83,-0.55,-0.10
2433443976,-0.83,-0.55,-0.10
2433445975,-0.84,-0.55,-0.10
2433447979,-0.84,-0.55,-0.10
2433450017,-0.84,-0.55,-0.10
2433452115,-0.84,-0.55,-0.10
2433454008,-0.84,-0.55,-0.10
2433456006,-0.84,-0.55,-0.11
2433458003,-0.84,-0.55,-0.11
2433460003,-0.84,-0.55,-0.11
2433462003,-0.84,-0.55,-0.11
2433463979,-0.84,-0.55,-0.11
2433465975,-0.84,-0.55,-0.10
2433467981,-0.84,-0.55,-0.10
2433470025,-0.84,-0.55,-0.10
2433471978,-0.84,-0.55,-0.10
2433473977,-0.84,-0.55,-0.10
2433476079,-0.83,-0.56,-0.10
2433477988,-0.83,-0.56,-0.10
2433479977,-0.83,-0.56,-0.10
2433481977,-0.83,-0.56,-0.10
2433483980,-0.83,-0.56,-0.10
2433485976,-0.83,-0.56,-0.09
2433487976,-0.83,-0.56,-0.09
2433490021,-0.83,-0.56,-0.09
2433492010,-0.83,-0.56,-0.09
2433494008,-0.83,-0.56,-0.09
2433496007,-0.82,-0.56,-0.11
2433498004,-0.82,-0.56,-0.11
2433500038,-0.82,-0.56,-0.11
2433502146,-0.82,-0.56,-0.11
2433504026,-0.82,-0.56,-0.11
2433506008,-0.82,-0.56,-0.11
2433507979,-0.82,-0.56,-0.11
2433509984,-0.82,-0.56,-0.11
2433511981,-0.82,-0.56,-0.11
2433513977,-0.82,-0.56,-0.11
2433515981,-0.83,-0.56,-0.13
2433517977,-0.83,-0.56,-0.13
2433519984,-0.83,-0.56,-0.13
2433521982,-0.83,-0.56,-0.13
2433523981,-0.83,-0.56,-0.13
2433526085,-0.83,-0.55,-0.11
2433527987,-0.83,-0.55,-0.11
2433530011,-0.83,-0.55,-0.11
2433532004,-0.83,-0.55,-0.11
2433534003,-0.83,-0.55,-0.11
2433536043,-0.83,-0.55,-0.11
2433538000,-0.83,-0.56,-0.12
2433540005,-0.83,-0.56,-0.12
2433542006,-0.83,-0.56,-0.12
2433543979,-0.83,-0.56,-0.12
2433545980,-0.83,-0.56,-0.12
2433547980,-0.82,-0.56,-0.12
2433550025,-0.82,-0.56,-0.12
2433552159,-0.82,-0.56,-0.12
2433553996,-0.82,-0.56,-0.12
2433555975,-0.82,-0.56,-0.12
2433557975,-0.83,-0.56,-0.13
2433559979,-0.83,-0.56,-0.13
2433561975,-0.83,-0.56,-0.13
2433563980,-0.83,-0.56,-0.13
2433565974,-0.83,-0.56,-0.13
2433567979,-0.84,-0.55,-0.12
2433570022,-0.84,-0.55,-0.12
2433572015,-0.84,-0.55,-0.12
2433574043,-0.84,-0.55,-0.12
2433576105,-0.84,-0.55,-0.12
2433578007,-0.84,-0.54,-0.12
2433580003,-0.84,-0.54,-0.12
2433582002,-0.84,-0.54,-0.12
2433584008,-0.84,-0.54,-0.12
2433585977,-0.84,-0.54,-0.12
2433587980,-0.84,-0.54,-0.10
2433589980,-0.84,-0.54,-0.10
2433591976,-0.84,-0.54,-0.10
2433593986,-0.84,-0.54,-0.10
2433596064,-0.84,-0.54,-0.10
2433598018,-0.83,-0.55,-0.11
2433599976,-0.83,-0.55,-0.11
2433602091,-0.83,-0.55,-0.11
2433603987,-0.83,-0.55,-0.11
2433605975,-0.83,-0.55,-0.11
2433607977,-0.84,-0.54,-0.11
2433610018,-0.84,-0.54,-0.11
2433612002,-0.84,-0.54,-0.11
2433614009,-0.84,-0.54,-0.11
2433616011,-0.84,-0.54,-0.11
2433618006,-0.84,-0.54,-0.10
2433620007,-0.84,-0.54,-0.10
2433622074,-0.84,-0.54,-0.10
2433623977,-0.84,-0.54,-0.10
2433626081,-0.84,-0.54,-0.10
2433627988,-0.84,-0.53,-0.09
2433629977,-0.84,-0.53,-0.09
2433631974,-0.84,-0.53,-0.09
2433633981,-0.84,-0.53,-0.09
2433636015,-0.84,-0.53,-0.09
2433637976,-0.84,-0.55,-0.09
2433639980,-0.84,-0.55,-0.09
2433641976,-0.84,-0.55,-0.09
2433643976,-0.84,-0.55,-0.09
2433645980,-0.84,-0.55,-0.09
2433648019,-0.84,-0.54,-0.08
2433650041,-0.84,-0.54,-0.08
2433652151,-0.84,-0.54,-0.08
2433654003,-0.84,-0.54,-0.08
2433656005,-0.84,-0.54,-0.08
2433658006,-0.84,-0.53,-0.07
2433660004,-0.84,-0.53,-0.07
2433662006,-0.84,-0.53,-0.07
2433664005,-0.84,-0.53,-0.07
2433666007,-0.84,-0.53,-0.07
2433667979,-0.84,-0.54,-0.07
2433669981,-0.84,-0.54,-0.07
2433671980,-0.84,-0.54,-0.07
2433673991,-0.84,-0.54,-0.07
2433676112,-0.84,-0.54,-0.07
2433677981,-0.84,-0.54,-0.07
2433679978,-0.84,-0.54,-0.07
2433681980,-0.84,-0.54,-0.07
2433683977,-0.84,-0.54,-0.07
2433685976,-0.84,-0.54,-0.07
2433687980,-0.84,-0.54,-0.06
2433689977,-0.84,-0.54,-0.06
2433692021,-0.84,-0.54,-0.06
2433694008,-0.84,-0.54,-0.06
2433696011,-0.84,-0.54,-0.06
2433698005,-0.84,-0.53,-0.07
2433700003,-0.84,-0.53,-0.07
2433702109,-0.84,-0.53,-0.07
2433704040,-0.84,-0.53,-0.07
2433706030,-0.84,-0.53,-0.07
2433708027,-0.84,-0.54,-0.07
2433709980,-0.84,-0.54,-0.07
2433711981,-0.84,-0.54,-0.07
2433713977,-0.84,-0.54,-0.07
2433715978,-0.84,-0.54,-0.07
2433717981,-0.84,-0.54,-0.07
2433719977,-0.84,-0.53,-0.07
2433721980,-0.84,-0.53,-0.07
2433723981,-0.84,-0.53,-0.07
2433726093,-0.84,-0.53,-0.07
2433727988,-0.84,-0.53,-0.07
2433729979,-0.84,-0.54,-0.08
2433732013,-0.84,-0.54,-0.08
2433734008,-0.84,-0.54,-0.08
2433736050,-0.84,-0.54,-0.08
2433738008,-0.84,-0.54,-0.08
2433740010,-0.84,-0.54,-0.09
2433742004,-0.84,-0.54,-0.09
2433744006,-0.84,-0.54,-0.09
2433745986,-0.84,-0.54,-0.09
2433747981,-0.84,-0.54,-0.09
2433749991,-0.85,-0.54,-0.09
2433752181,-0.85,-0.54,-0.09
2433754015,-0.85,-0.54,-0.09
2433755979,-0.85,-0.54,-0.09
2433757974,-0.85,-0.54,-0.09
2433759978,-0.84,-0.54,-0.09
2433761976,-0.84,-0.54,-0.09
2433763980,-0.84,-0.54,-0.09
2433765974,-0.84,-0.54,-0.09
2433767972,-0.84,-0.54,-0.09
2433769975,-0.84,-0.54,-0.10
2433772027,-0.84,-0.54,-0.10
2433774008,-0.84,-0.54,-0.10
2433776111,-0.84,-0.54,-0.10
2433778057,-0.84,-0.54,-0.10
2433780008,-0.84,-0.54,-0.10
2433782012,-0.84,-0.54,-0.10
2433784011,-0.84,-0.54,-0.10
2433785974,-0.84,-0.54,-0.10
2433787979,-0.84,-0.54,-0.10
2433789976,-0.84,-0.55,-0.14
2433791976,-0.84,-0.55,-0.14
2433793979,-0.84,-0.55,-0.14
2433795993,-0.84,-0.55,-0.14
2433797976,-0.84,-0.55,-0.14
2433799975,-0.83,-0.54,-0.11
2433802087,-0.83,-0.54,-0.11
2433803990,-0.83,-0.54,-0.11
2433805976,-0.83,-0.54,-0.11
2433807977,-0.83,-0.54,-0.11
2433809974,-0.83,-0.56,-0.11
2433812017,-0.83,-0.56,-0.11
2433814131,-0.83,-0.56,-0.11
2433816039,-0.83,-0.56,-0.11
2433818007,-0.83,-0.56,-0.11
2433820003,-0.83,-0.55,-0.11
2433822005,-0.83,-0.55,-0.11
2433824006,-0.83,-0.55,-0.11
2433826116,-0.83,-0.55,-0.11
2433827988,-0.83,-0.55,-0.11
2433829978,-0.82,-0.57,-0.14
2433831979,-0.82,-0.57,-0.14
2433833980,-0.82,-0.57,-0.14
2433836012,-0.82,-0.57,-0.14
2433837975,-0.82,-0.57,-0.14
2433839976,-0.82,-0.55,-0.13
2433841975,-0.82,-0.55,-0.13
2433843975,-0.82,-0.55,-0.13
2433845975,-0.82,-0.55,-0.13
2433847975,-0.82,-0.55,-0.13
2433849975,-0.83,-0.56,-0.12
2433852119,-0.83,-0.56,-0.12
2433854006,-0.83,-0.56,-0.12
2433856003,-0.83,-0.56,-0.12
2433858005,-0.83,-0.56,-0.12
2433860024,-0.83,-0.56,-0.11
2433862131,-0.83,-0.56,-0.11
2433864044,-0.83,-0.56,-0.11
2433866003,-0.83,-0.56,-0.11
2433868007,-0.83,-0.56,-0.11
2433869981,-0.83,-0.55,-0.13
2433871981,-0.83,-0.55,-0.13
2433873979,-0.83,-0.55,-0.13
2433876108,-0.83,-0.55,-0.13
2433877987,-0.83,-0.55,-0.13
2433880029,-0.82,-0.57,-0.13
2433881976,-0.82,-0.57,-0.13
2433883977,-0.82,-0.57,-0.13
2433885976,-0.82,-0.57,-0.13
2433887979,-0.82,-0.57,-0.13
2433889975,-0.84,-0.54,-0.09
2433892026,-0.84,-0.54,-0.09
2433894010,-0.84,-0.54,-0.09
2433896006,-0.84,-0.54,-0.09
2433898004,-0.84,-0.54,-0.09
2433900003,-0.84,-0.58,-0.11
2433902114,-0.84,-0.58,-0.11
2433904009,-0.84,-0.58,-0.11
2433905992,-0.84,-0.58,-0.11
2433908106,-0.84,-0.58,-0.11
2433910015,-0.84,-0.57,-0.12
2433911977,-0.84,-0.57,-0.12
2433913976,-0.84,-0.57,-0.12
2433915977,-0.84,-0.57,-0.12
2433917978,-0.84,-0.57,-0.12
2433919977,-0.84,-0.57,-0.12
2433921979,-0.83,-0.56,-0.11
2433923980,-0.83,-0.56,-0.11
2433926093,-0.83,-0.56,-0.11
2433927989,-0.83,-0.56,-0.11
2433929979,-0.83,-0.56,-0.11
2433932019,-0.83,-0.54,-0.09
2433934000,-0.83,-0.54,-0.09
2433936045,-0.83,-0.54,-0.09
2433938007,-0.83,-0.54,-0.09
2433940006,-0.83,-0.54,-0.09
2433942012,-0.82,-0.53,-0.12
2433944003,-0.82,-0.53,-0.12
2433946006,-0.82,-0.53,-0.12
2433947976,-0.82,-0.53,-0.12
2433949976,-0.82,-0.53,-0.12
2433952092,-0.84,-0.54,-0.10
2433953977,-0.84,-0.54,-0.10
2433955980,-0.84,-0.54,-0.10
2433957973,-0.84,-0.54,-0.10
2433959976,-0.84,-0.54,-0.10
2433961976,-0.84,-0.53,-0.09
2433963981,-0.84,-0.53,-0.09
2433965979,-0.84,-0.53,-0.09
2433968053,-0.84,-0.53,-0.09
2433970030,-0.84,-0.53,-0.09
2433972018,-0.86,-0.53,-0.06
2433974003,-0.86,-0.53,-0.06
2433976107,-0.86,-0.53,-0.06
2433978010,-0.86,-0.53,-0.06
2433980001,-0.86,-0.53,-0.06
2433982051,-0.85,-0.54,-0.06
2433984004,-0.85,-0.54,-0.06
2433986003,-0.85,-0.54,-0.06
2433987975,-0.85,-0.54,-0.06
2433989972,-0.85,-0.54,-0.06
2433991977,-0.84,-0.54,-0.07
2433993980,-0.84,-0.54,-0.07
2433995991,-0.84,-0.54,-0.07
2433997982,-0.84,-0.54,-0.07
2433999993,-0.84,-0.54,-0.07
2434002088,-0.84,-0.55,-0.08
2434003990,-0.84,-0.55,-0.08
2434005973,-0.84,-0.55,-0.08
2434007980,-0.84,-0.55,-0.08
2434009981,-0.84,-0.55,-0.08
2434012009,-0.83,-0.53,-0.07
2434014008,-0.83,-0.53,-0.07
2434016004,-0.83,-0.53,-0.07
2434018002,-0.83,-0.53,-0.07
2434020005,-0.83,-0.53,-0.07
2434022004,-0.83,-0.54,-0.07
2434023993,-0.83,-0.54,-0.07
2434026085,-0.83,-0.54,-0.07
2434028048,-0.83,-0.54,-0.07
2434030030,-0.83,-0.54,-0.07
2434031976,-0.84,-0.52,-0.07
2434033978,-0.84,-0.52,-0.07
2434036009,-0.84,-0.52,-0.07
2434037978,-0.84,-0.52,-0.07
2434039976,-0.84,-0.52,-0.07
2434041980,-0.85,-0.53,-0.09
2434043977,-0.85,-0.53,-0.09
2434045978,-0.85,-0.53,-0.09
2434047975,-0.85,-0.53,-0.09
2434049975,-0.85,-0.53,-0.09
2434052132,-0.87,-0.52,-0.10
2434054008,-0.87,-0.52,-0.10
2434056004,-0.87,-0.52,-0.10
2434058008,-0.87,-0.52,-0.10
2434060004,-0.87,-0.52,-0.10
2434062003,-0.86,-0.52,-0.08
2434064007,-0.86,-0.52,-0.08
2434065981,-0.86,-0.52,-0.08
2434067978,-0.86,-0.52,-0.08
2434069980,-0.86,-0.52,-0.08
2434071975,-0.84,-0.52,-0.09
2434073980,-0.84,-0.52,-0.09
2434076080,-0.84,-0.52,-0.09
2434077988,-0.84,-0.52,-0.09
2434079979,-0.84,-0.52,-0.09
2434081979,-0.82,-0.53,-0.11
2434083994,-0.82,-0.53,-0.11
2434086020,-0.82,-0.53,-0.11
2434087975,-0.82,-0.53,-0.11
2434089975,-0.82,-0.53,-0.11
2434092059,-0.83,-0.53,-0.11
2434094042,-0.83,-0.53,-0.11
2434096008,-0.83,-0.53,-0.11
2434098004,-0.83,-0.53,-0.11
2434100007,-0.83,-0.53,-0.11
2434102119,-0.83,-0.54,-0.10
2434104015,-0.83,-0.54,-0.10
2434106006,-0.83,-0.54,-0.10
2434108011,-0.83,-0.54,-0.10
2434109975,-0.83,-0.54,-0.10
2434111979,-0.83,-0.54,-0.10
2434113978,-0.85,-0.55,-0.11
2434115976,-0.85,-0.55,-0.11
2434117980,-0.85,-0.55,-0.11
2434119979,-0.85,-0.55,-0.11
2434121981,-0.85,-0.55,-0.11
2434123979,-0.82,-0.56,-0.10
2434126084,-0.82,-0.56,-0.10
2434127987,-0.82,-0.56,-0.10
2434129976,-0.82,-0.56,-0.10
2434132015,-0.82,-0.56,-0.10
2434134010,-0.82,-0.58,-0.11
2434136045,-0.82,-0.58,-0.11
2434138003,-0.82,-0.58,-0.11
2434140006,-0.82,-0.58,-0.11
2434142003,-0.82,-0.58,-0.11
2434144009,-0.82,-0.58,-0.11
2434145979,-0.82,-0.58,-0.11
2434148060,-0.82,-0.58,-0.11
2434150024,-0.82,-0.58,-0.11
2434152097,-0.82,-0.58,-0.11
2434153976,-0.81,-0.59,-0.12
2434155974,-0.81,-0.59,-0.12
2434157976,-0.81,-0.59,-0.12
2434159978,-0.81,-0.59,-0.12
2434161975,-0.81,-0.59,-0.12
2434163974,-0.81,-0.57,-0.12
2434165974,-0.81,-0.57,-0.12
2434167979,-0.81,-0.57,-0.12
2434169974,-0.81,-0.57,-0.12
2434172018,-0.81,-0.57,-0.12
2434174003,-0.83,-0.57,-0.13
2434176093,-0.83,-0.57,-0.13
2434178006,-0.83,-0.57,-0.13
2434180004,-0.83,-0.57,-0.13
2434182001,-0.83,-0.57,-0.13
2434184006,-0.85,-0.55,-0.14
2434185987,-0.85,-0.55,-0.14
2434188029,-0.85,-0.55,-0.14
2434189975,-0.85,-0.55,-0.14
2434191977,-0.85,-0.55,-0.14
2434193981,-0.84,-0.55,-0.16
2434195990,-0.84,-0.55,-0.16
2434197978,-0.84,-0.55,-0.16
2434199990,-0.84,-0.55,-0.16
2434202177,-0.84,-0.55,-0.16
2434204017,-0.83,-0.52,-0.15
2434205979,-0.83,-0.52,-0.15
2434207977,-0.83,-0.52,-0.15
2434209976,-0.83,-0.52,-0.15
2434212016,-0.83,-0.52,-0.15
2434214004,-0.84,-0.50,-0.12
2434216001,-0.84,-0.50,-0.12
2434218005,-0.84,-0.50,-0.12
2434220001,-0.84,-0.50,-0.12
2434222002,-0.84,-0.50,-0.12
2434224006,-0.84,-0.52,-0.12
2434226215,-0.84,-0.52,-0.12
2434228078,-0.84,-0.52,-0.12
2434230016,-0.84,-0.52,-0.12
2434231979,-0.84,-0.52,-0.12
2434233977,-0.84,-0.54,-0.12
2434236011,-0.84,-0.54,-0.12
2434237977,-0.84,-0.54,-0.12
2434239979,-0.84,-0.54,-0.12
2434241975,-0.84,-0.54,-0.12
2434243977,-0.84,-0.53,-0.07
2434245978,-0.84,-0.53,-0.07
2434247982,-0.84,-0.53,-0.07
2434250060,-0.84,-0.53,-0.07
2434252155,-0.84,-0.53,-0.07
2434254011,-0.82,-0.55,-0.07
2434256009,-0.82,-0.55,-0.07
2434258005,-0.82,-0.55,-0.07
2434260002,-0.82,-0.55,-0.07
2434262007,-0.82,-0.55,-0.07
2434264006,-0.84,-0.56,-0.07
2434266011,-0.84,-0.56,-0.07
2434267980,-0.84,-0.56,-0.07
2434269979,-0.84,-0.56,-0.07
2434271980,-0.84,-0.56,-0.07
2434273979,-0.84,-0.55,-0.04
2434276087,-0.84,-0.55,-0.04
2434277987,-0.84,-0.55,-0.04
2434279976,-0.84,-0.55,-0.04
2434281978,-0.84,-0.55,-0.04
2434283981,-0.83,-0.57,-0.06
2434285976,-0.83,-0.57,-0.06
2434287986,-0.83,-0.57,-0.06
2434290020,-0.83,-0.57,-0.06
2434292019,-0.83,-0.57,-0.06
2434294007,-0.83,-0.57,-0.06
2434296006,-0.84,-0.54,-0.04
2434298005,-0.84,-0.54,-0.04
2434300006,-0.84,-0.54,-0.04
2434302115,-0.84,-0.54,-0.04
2434304013,-0.84,-0.54,-0.04
2434305979,-0.83,-0.55,-0.05
2434307981,-0.83,-0.55,-0.05
2434309978,-0.83,-0.55,-0.05
2434312045,-0.83,-0.55,-0.05
2434314024,-0.83,-0.55,-0.05
2434315974,-0.85,-0.55,-0.07
2434317977,-0.85,-0.55,-0.07
2434319977,-0.85,-0.55,-0.07
2434321977,-0.85,-0.55,-0.07
2434323980,-0.85,-0.55,-0.07
2434326091,-0.83,-0.54,-0.10
2434327988,-0.83,-0.54,-0.10
2434329977,-0.83,-0.54,-0.10
2434332018,-0.83,-0.54,-0.10
2434334003,-0.83,-0.54,-0.10
2434336038,-0.85,-0.55,-0.10
2434338000,-0.85,-0.55,-0.10
2434340001,-0.85,-0.55,-0.10
2434342004,-0.85,-0.55,-0.10
2434344006,-0.85,-0.55,-0.10
2434345979,-0.82,-0.52,-0.10
2434347978,-0.82,-0.52,-0.10
2434349976,-0.82,-0.52,-0.10
2434352094,-0.82,-0.52,-0.10
2434353978,-0.82,-0.52,-0.10
2434355975,-0.83,-0.54,-0.12
2434357981,-0.83,-0.54,-0.12
2434359977,-0.83,-0.54,-0.12
2434361977,-0.83,-0.54,-0.12
2434363976,-0.83,-0.54,-0.12
2434365975,-0.82,-0.51,-0.11
2434367980,-0.82,-0.51,-0.11
2434369977,-0.82,-0.51,-0.11
2434372008,-0.82,-0.51,-0.11
2434374006,-0.82,-0.51,-0.11
2434376093,-0.84,-0.55,-0.12
2434378008,-0.84,-0.55,-0.12
2434380005,-0.84,-0.55,-0.12
2434382008,-0.84,-0.55,-0.12
2434384004,-0.84,-0.55,-0.12
2434385980,-0.84,-0.54,-0.11
2434387980,-0.84,-0.54,-0.11
2434389977,-0.84,-0.54,-0.11
2434392031,-0.84,-0.54,-0.11
2434393979,-0.84,-0.54,-0.11
2434395989,-0.84,-0.55,-0.09
2434397977,-0.84,-0.55,-0.09
2434399987,-0.84,-0.55,-0.09
2434402176,-0.84,-0.55,-0.09
2434404024,-0.84,-0.55,-0.09
2434405978,-0.84,-0.56,-0.08
2434407979,-0.84,-0.56,-0.08
2434409979,-0.84,-0.56,-0.08
2434412024,-0.84,-0.56,-0.08
2434414005,-0.84,-0.56,-0.08
2434416007,-0.84,-0.54,-0.07
2434418007,-0.84,-0.54,-0.07
2434420005,-0.84,-0.54,-0.07
2434422007,-0.84,-0.54,-0.07
2434424007,-0.84,-0.54,-0.07
2434426092,-0.84,-0.54,-0.07
2434427987,-0.84,-0.54,-0.07
2434429977,-0.84,-0.54,-0.07
2434431977,-0.84,-0.54,-0.07
2434433982,-0.84,-0.54,-0.07
2434436017,-0.84,-0.52,-0.07
2434437984,-0.84,-0.52,-0.07
2434439978,-0.84,-0.52,-0.07
2434441975,-0.84,-0.52,-0.07
2434443976,-0.84,-0.52,-0.07
2434445981,-0.84,-0.53,-0.07
2434447980,-0.84,-0.53,-0.07
2434449979,-0.84,-0.53,-0.07
2434452123,-0.84,-0.53,-0.07
2434454041,-0.84,-0.53,-0.07
2434456041,-0.85,-0.53,-0.07
2434458015,-0.85,-0.53,-0.07
2434460006,-0.85,-0.53,-0.07
2434462004,-0.85,-0.53,-0.07
2434464005,-0.85,-0.53,-0.07
2434466006,-0.85,-0.54,-0.08
2434468008,-0.85,-0.54,-0.08
2434469979,-0.85,-0.54,-0.08
2434471981,-0.85,-0.54,-0.08
2434473975,-0.85,-0.54,-0.08
2434476096,-0.85,-0.56,-0.12
2434477989,-0.85,-0.56,-0.12
2434479980,-0.85,-0.56,-0.12
2434481980,-0.85,-0.56,-0.12
2434483978,-0.85,-0.56,-0.12
2434485979,-0.85,-0.56,-0.12
2434487981,-0.83,-0.57,-0.15
2434489976,-0.83,-0.57,-0.15
2434492012,-0.83,-0.57,-0.15
2434494046,-0.83,-0.57,-0.15
2434496020,-0.83,-0.57,-0.15
2434498003,-0.82,-0.57,-0.17
2434500014,-0.82,-0.57,-0.17
2434502118,-0.82,-0.57,-0.17
2434504010,-0.82,-0.57,-0.17
2434506004,-0.82,-0.57,-0.17
2434507994,-0.80,-0.54,-0.16
2434509978,-0.80,-0.54,-0.16
2434511979,-0.80,-0.54,-0.16
2434514059,-0.80,-0.54,-0.16
2434516024,-0.80,-0.54,-0.16
2434517975,-0.83,-0.55,-0.12
2434519976,-0.83,-0.55,-0.12
2434521978,-0.83,-0.55,-0.12
2434523976,-0.83,-0.55,-0.12
2434526093,-0.83,-0.55,-0.12
2434527991,-0.86,-0.54,-0.12
2434529977,-0.86,-0.54,-0.12
2434532026,-0.86,-0.54,-0.12
2434534004,-0.86,-0.54,-0.12
2434536039,-0.86,-0.54,-0.12
2434538005,-0.86,-0.55,-0.10
2434540004,-0.86,-0.55,-0.10
2434542001,-0.86,-0.55,-0.10
2434544007,-0.86,-0.55,-0.10
2434545978,-0.86,-0.55,-0.10
2434547977,-0.85,-0.55,-0.07
2434549980,-0.85,-0.55,-0.07
2434552090,-0.85,-0.55,-0.07
2434553976,-0.85,-0.55,-0.07
2434555979,-0.85,-0.55,-0.07
2434557976,-0.84,-0.55,-0.04
2434559980,-0.84,-0.55,-0.04
2434561975,-0.84,-0.55,-0.04
2434563981,-0.84,-0.55,-0.04
2434565977,-0.84,-0.55,-0.04
2434567981,-0.86,-0.57,-0.06
2434569976,-0.86,-0.57,-0.06
2434572007,-0.86,-0.57,-0.06
2434574002,-0.86,-0.57,-0.06
2434576110,-0.86,-0.57,-0.06
2434578119,-0.85,-0.55,-0.03
2434580042,-0.85,-0.55,-0.03
2434582002,-0.85,-0.55,-0.03
2434584003,-0.85,-0.55,-0.03
2434586003,-0.85,-0.55,-0.03
2434588004,-0.84,-0.57,-0.04
2434589976,-0.84,-0.57,-0.04
2434591979,-0.84,-0.57,-0.04
2434593981,-0.84,-0.57,-0.04
2434595995,-0.84,-0.57,-0.04
2434598018,-0.85,-0.57,-0.08
2434599977,-0.85,-0.57,-0.08
2434602095,-0.85,-0.57,-0.08
2434603992,-0.85,-0.57,-0.08
2434605979,-0.85,-0.57,-0.08
2434607974,-0.84,-0.55,-0.10
2434609975,-0.84,-0.55,-0.10
2434612025,-0.84,-0.55,-0.10
2434614004,-0.84,-0.55,-0.10
2434616005,-0.84,-0.55,-0.10
2434618007,-0.86,-0.52,-0.11
2434620006,-0.86,-0.52,-0.11
2434622080,-0.86,-0.52,-0.11
2434624056,-0.86,-0.52,-0.11
2434626117,-0.86,-0.52,-0.11
2434627999,-0.88,-0.51,-0.12
2434629980,-0.88,-0.51,-0.12
2434631979,-0.88,-0.51,-0.12
2434633981,-0.88,-0.51,-0.12
2434636017,-0.88,-0.51,-0.12
2434637976,-0.90,-0.52,-0.14
2434639975,-0.90,-0.52,-0.14
2434641976,-0.90,-0.52,-0.14
2434643974,-0.90,-0.52,-0.14
2434645980,-0.90,-0.52,-0.14
2434647977,-0.91,-0.51,-0.12
2434649976,-0.91,-0.51,-0.12
2434652122,-0.91,-0.51,-0.12
2434654007,-0.91,-0.51,-0.12
2434656005,-0.91,-0.51,-0.12
2434658004,-0.93,-0.55,-0.16
2434660006,-0.93,-0.55,-0.16
2434662010,-0.93,-0.55,-0.16
2434664009,-0.93,-0.55,-0.16
2434665979,-0.93,-0.55,-0.16
2434667978,-0.93,-0.55,-0.16
2434669986,-0.93,-0.57,-0.16
2434672142,-0.93,-0.57,-0.16
2434674014,-0.93,-0.57,-0.16
2434676090,-0.93,-0.57,-0.16
2434677989,-0.93,-0.57,-0.16
2434679980,-0.89,-0.57,-0.19
2434681979,-0.89,-0.57,-0.19
2434683980,-0.89,-0.57,-0.19
2434685979,-0.89,-0.57,-0.19
2434687978,-0.89,-0.57,-0.19
2434689979,-0.97,-0.62,-0.29
2434692021,-0.97,-0.62,-0.29
2434694014,-0.97,-0.62,-0.29
2434696016,-0.97,-0.62,-0.29
2434698009,-0.97,-0.62,-0.29
2434700052,-0.96,-0.42,0.02
2434702118,-0.96,-0.42,0.02
2434704016,-0.96,-0.42,0.02
2434706013,-0.96,-0.42,0.02
2434707981,-0.96,-0.42,0.02
2434709981,-1.02,-0.61,-0.29
2434711981,-1.02,-0.61,-0.29
2434713979,-1.02,-0.61,-0.29
2434715979,-1.02,-0.61,-0.29
2434717975,-1.02,-0.61,-0.29
2434719978,-1.04,-0.49,-0.19
2434721975,-1.04,-0.49,-0.19
2434723974,-1.04,-0.49,-0.19
2434726076,-1.04,-0.49,-0.19
2434728003,-1.04,-0.49,-0.19
2434729981,-1.02,-0.55,-0.18
2434732020,-1.02,-0.55,-0.18
2434734006,-1.02,-0.55,-0.18
2434736047,-1.02,-0.55,-0.18
2434738006,-1.02,-0.55,-0.18
2434740006,-1.02,-0.52,-0.11
2434742009,-1.02,-0.52,-0.11
2434744013,-1.02,-0.52,-0.11
2434745979,-1.02,-0.52,-0.11
2434747982,-1.02,-0.52,-0.11
2434749992,-1.07,-0.68,-0.24
2434752086,-1.07,-0.68,-0.24
2434753977,-1.07,-0.68,-0.24
2434755972,-1.07,-0.68,-0.24
2434757978,-1.07,-0.68,-0.24
2434760067,-1.11,-0.66,-0.13
2434762020,-1.11,-0.66,-0.13
2434763977,-1.11,-0.66,-0.13
2434765976,-1.11,-0.66,-0.13
2434767975,-1.11,-0.66,-0.13
2434769974,-1.04,-0.64,-0.15
2434772020,-1.04,-0.64,-0.15
2434774001,-1.04,-0.64,-0.15
2434776113,-1.04,-0.64,-0.15
2434778012,-1.04,-0.64,-0.15
2434780004,-1.07,-0.62,-0.10
2434782004,-1.07,-0.62,-0.10
2434784005,-1.07,-0.62,-0.10
2434785976,-1.07,-0.62,-0.10
2434787975,-1.07,-0.62,-0.10
2434789976,-1.01,-0.61,-0.18
2434791980,-1.01,-0.61,-0.18
2434793983,-1.01,-0.61,-0.18
2434795993,-1.01,-0.61,-0.18
2434797976,-1.01,-0.61,-0.18
2434799989,-1.05,-0.57,-0.06
2434802132,-1.05,-0.57,-0.06
2434803988,-1.05,-0.57,-0.06
2434805976,-1.05,-0.57,-0.06
2434807975,-1.05,-0.57,-0.06
2434810069,-0.98,-0.50,-0.03
2434812043,-0.98,-0.50,-0.03
2434814005,-0.98,-0.50,-0.03
2434816005,-0.98,-0.50,-0.03
2434818003,-0.98,-0.50,-0.03
2434820006,-1.00,-0.53,-0.01
2434822006,-1.00,-0.53,-0.01
2434824013,-1.00,-0.53,-0.01
2434826096,-1.00,-0.53,-0.01
2434827988,-1.00,-0.53,-0.01
2434829979,-0.96,-0.53,-0.03
2434831979,-0.96,-0.53,-0.03
2434833981,-0.96,-0.53,-0.03
2434836018,-0.96,-0.53,-0.03
2434837979,-0.96,-0.53,-0.03
2434839976,-0.96,-0.60,-0.05
2434841976,-0.96,-0.60,-0.05
2434843979,-0.96,-0.60,-0.05
2434845976,-0.96,-0.60,-0.05
2434847981,-0.96,-0.60,-0.05
2434849979,-0.93,-0.54,0.00
2434852123,-0.93,-0.54,0.00
2434854003,-0.93,-0.54,0.00
2434856008,-0.93,-0.54,0.00
2434858064,-0.93,-0.54,0.00
2434860051,-0.91,-0.56,0.00
2434862003,-0.91,-0.56,0.00
2434864003,-0.91,-0.56,0.00
2434866007,-0.91,-0.56,0.00
2434868012,-0.91,-0.56,0.00
2434869980,-0.91,-0.56,0.00
2434871979,-0.91,-0.53,-0.01
2434873981,-0.91,-0.53,-0.01
2434876092,-0.91,-0.53,-0.01
2434877987,-0.91,-0.53,-0.01
2434879979,-0.91,-0.53,-0.01
2434881981,-0.94,-0.50,0.00
2434883978,-0.94,-0.50,0.00
2434885980,-0.94,-0.50,0.00
2434887976,-0.94,-0.50,0.00
2434889979,-0.94,-0.50,0.00
2434892009,-0.93,-0.49,0.02
2434894006,-0.93,-0.49,0.02
2434896007,-0.93,-0.49,0.02
2434898003,-0.93,-0.49,0.02
2434900005,-0.93,-0.49,0.02
2434902107,-0.93,-0.49,0.05
2434904033,-0.93,-0.49,0.05
2434905977,-0.93,-0.49,0.05
2434907979,-0.93,-0.49,0.05
2434909979,-0.93,-0.49,0.05
2434911979,-0.93,-0.52,0.05
2434913979,-0.93,-0.52,0.05
2434915977,-0.93,-0.52,0.05
2434917982,-0.93,-0.52,0.05
2434920108,-0.93,-0.52,0.05
2434922015,-0.94,-0.53,0.06
2434923979,-0.94,-0.53,0.06
2434926092,-0.94,-0.53,0.06
2434927987,-0.94,-0.53,0.06
2434929977,-0.94,-0.53,0.06
2434932024,-0.94,-0.54,0.03
2434934003,-0.94,-0.54,0.03
2434936040,-0.94,-0.54,0.03
2434938005,-0.94,-0.54,0.03
2434940004,-0.94,-0.54,0.03
2434942002,-0.95,-0.52,0.03
2434944007,-0.95,-0.52,0.03
2434945980,-0.95,-0.52,0.03
2434947976,-0.95,-0.52,0.03
2434949979,-0.95,-0.52,0.03
2434952090,-0.95,-0.51,0.01
2434953979,-0.95,-0.51,0.01
2434955975,-0.95,-0.51,0.01
2434957979,-0.95,-0.51,0.01
2434959979,-0.95,-0.51,0.01
2434961979,-0.92,-0.49,0.02
2434963977,-0.92,-0.49,0.02
2434965979,-0.92,-0.49,0.02
2434967975,-0.92,-0.49,0.02
2434969977,-0.92,-0.49,0.02
2434972009,-0.93,-0.46,0.01
2434974010,-0.93,-0.46,0.01
2434976115,-0.93,-0.46,0.01
2434978044,-0.93,-0.46,0.01
2434980007,-0.93,-0.46,0.01
2434982007,-0.91,-0.43,0.08
2434984008,-0.91,-0.43,0.08
2434986006,-0.91,-0.43,0.08
2434987977,-0.91,-0.43,0.08
2434989980,-0.91,-0.43,0.08
2434991977,-0.94,-0.50,0.03
2434993981,-0.94,-0.50,0.03
2434995993,-0.94,-0.50,0.03
2434997981,-0.94,-0.50,0.03
2434999989,-0.94,-0.50,0.03
2435002092,-0.91,-0.48,0.00
2435003990,-0.91,-0.48,0.00
2435006023,-0.91,-0.48,0.00
2435007979,-0.91,-0.48,0.00
2435009976,-0.91,-0.48,0.00
2435012023,-0.95,-0.48,0.11
2435014006,-0.95,-0.48,0.11
2435016005,-0.95,-0.48,0.11
2435018005,-0.95,-0.48,0.11
2435020011,-0.95,-0.48,0.11
2435022007,-0.92,-0.46,0.07
2435023973,-0.92,-0.46,0.07
2435026088,-0.92,-0.46,0.07
2435028065,-0.92,-0.46,0.07
2435030024,-0.92,-0.46,0.07
2435031979,-0.96,-0.46,0.07
2435033978,-0.96,-0.46,0.07
2435036010,-0.96,-0.46,0.07
2435037972,-0.96,-0.46,0.07
2435039977,-0.96,-0.46,0.07
2435041976,-0.92,-0.42,0.05
2435043975,-0.92,-0.42,0.05
2435045979,-0.92,-0.42,0.05
2435047978,-0.92,-0.42,0.05
2435049976,-0.92,-0.42,0.05
2435052139,-0.91,-0.41,0.07
2435054009,-0.91,-0.41,0.07
2435056009,-0.91,-0.41,0.07
2435058011,-0.91,-0.41,0.07
2435060006,-0.91,-0.41,0.07
2435062008,-0.91,-0.41,0.07
2435064007,-0.89,-0.43,0.05
2435065980,-0.89,-0.43,0.05
2435067979,-0.89,-0.43,0.05
