timestamp,accX,accY,accZ
2301500049,-0.86,-0.53,-0.09
2301502106,-0.86,-0.53,-0.09
2301503986,-0.86,-0.53,-0.09
2301505989,-0.86,-0.53,-0.09
2301507991,-0.86,-0.53,-0.09
2301509990,-0.82,-0.51,-0.08
2301511987,-0.82,-0.51,-0.08
2301513991,-0.82,-0.51,-0.08
2301515989,-0.82,-0.51,-0.08
2301517986,-0.82,-0.51,-0.08
2301519991,-0.83,-0.52,-0.08
2301521985,-0.83,-0.52,-0.08
2301523984,-0.83,-0.52,-0.08
2301526063,-0.83,-0.52,-0.08
2301527994,-0.83,-0.52,-0.08
2301529986,-0.84,-0.53,-0.08
2301531991,-0.84,-0.53,-0.08
2301533990,-0.84,-0.53,-0.08
2301535987,-0.84,-0.53,-0.08
2301537991,-0.84,-0.53,-0.08
2301540049,-0.84,-0.53,-0.08
2301542030,-0.84,-0.53,-0.09
2301544012,-0.84,-0.53,-0.09
2301546010,-0.84,-0.53,-0.09
2301548009,-0.84,-0.53,-0.09
2301550012,-0.84,-0.53,-0.09
2301552114,-0.84,-0.53,-0.07
2301554006,-0.84,-0.53,-0.07
2301555991,-0.84,-0.53,-0.07
2301557992,-0.84,-0.53,-0.07
2301559991,-0.84,-0.53,-0.07
2301561987,-0.84,-0.54,-0.09
2301563989,-0.84,-0.54,-0.09
2301565991,-0.84,-0.54,-0.09
2301567992,-0.84,-0.54,-0.09
2301569990,-0.84,-0.54,-0.09
2301571991,-0.84,-0.52,-0.08
2301573991,-0.84,-0.52,-0.08
2301576086,-0.84,-0.52,-0.08
2301578014,-0.84,-0.52,-0.08
2301580019,-0.84,-0.52,-0.08
2301582006,-0.84,-0.52,-0.08
2301584006,-0.84,-0.52,-0.08
2301586009,-0.84,-0.52,-0.08
2301588008,-0.84,-0.52,-0.08
2301590008,-0.84,-0.52,-0.08
2301592005,-0.84,-0.54,-0.08
2301593991,-0.84,-0.54,-0.08
2301595997,-0.84,-0.54,-0.08
2301597996,-0.84,-0.54,-0.08
2301599989,-0.84,-0.54,-0.08
2301602098,-0.83,-0.54,-0.09
2301603985,-0.83,-0.54,-0.09
2301605987,-0.83,-0.54,-0.09
2301607984,-0.83,-0.54,-0.09
2301609991,-0.83,-0.54,-0.09
2301611986,-0.84,-0.56,-0.08
2301613989,-0.84,-0.56,-0.08
2301615987,-0.84,-0.56,-0.08
2301617984,-0.84,-0.56,-0.08
2301620020,-0.84,-0.56,-0.08
2301622083,-0.83,-0.56,-0.09
2301624009,-0.83,-0.56,-0.09
2301626113,-0.83,-0.56,-0.09
2301628051,-0.83,-0.56,-0.09
2301630016,-0.83,-0.56,-0.09
2301632114,-0.84,-0.54,-0.08
2301634046,-0.84,-0.54,-0.08
2301636010,-0.84,-0.54,-0.08
2301638007,-0.84,-0.54,-0.08
2301639985,-0.84,-0.54,-0.08
2301641990,-0.84,-0.54,-0.07
2301643991,-0.84,-0.54,-0.07
2301645991,-0.84,-0.54,-0.07
2301647992,-0.84,-0.54,-0.07
2301649990,-0.84,-0.54,-0.07
2301652109,-0.84,-0.55,-0.09
2301653992,-0.84,-0.55,-0.09
2301655991,-0.84,-0.55,-0.09
2301657987,-0.84,-0.55,-0.09
2301660023,-0.84,-0.55,-0.09
2301662011,-0.83,-0.56,-0.08
2301664010,-0.83,-0.56,-0.08
2301666014,-0.83,-0.56,-0.08
2301668009,-0.83,-0.56,-0.08
2301670014,-0.83,-0.56,-0.08
2301671999,-0.83,-0.55,-0.08
2301673991,-0.83,-0.55,-0.08
2301676089,-0.83,-0.55,-0.08
2301678015,-0.83,-0.55,-0.08
2301679986,-0.83,-0.55,-0.08
2301682052,-0.84,-0.55,-0.07
2301684063,-0.84,-0.55,-0.07
2301686020,-0.84,-0.55,-0.07
2301687983,-0.84,-0.55,-0.07
2301689997,-0.84,-0.55,-0.07
2301691986,-0.83,-0.55,-0.07
2301693989,-0.83,-0.55,-0.07
2301696001,-0.83,-0.55,-0.07
2301697996,-0.83,-0.55,-0.07
2301700031,-0.83,-0.55,-0.07
2301702127,-0.84,-0.55,-0.07
2301704013,-0.84,-0.55,-0.07
2301706014,-0.84,-0.55,-0.07
2301708016,-0.84,-0.55,-0.07
2301710013,-0.84,-0.55,-0.07
2301712007,-0.84,-0.55,-0.07
2301713991,-0.84,-0.55,-0.07
2301715991,-0.84,-0.55,-0.07
2301717984,-0.84,-0.55,-0.07
2301719990,-0.84,-0.55,-0.07
2301721990,-0.84,-0.55,-0.07
2301723991,-0.84,-0.55,-0.07
2301726085,-0.84,-0.55,-0.07
2301727996,-0.84,-0.55,-0.07
2301729994,-0.84,-0.55,-0.07
2301732117,-0.84,-0.54,-0.07
2301734022,-0.84,-0.54,-0.07
2301735997,-0.84,-0.54,-0.07
2301737990,-0.84,-0.54,-0.07
2301740034,-0.84,-0.54,-0.07
2301742014,-0.84,-0.54,-0.07
2301744015,-0.84,-0.54,-0.08
2301746016,-0.84,-0.54,-0.08
2301748010,-0.84,-0.54,-0.08
2301750015,-0.84,-0.54,-0.08
2301752120,-0.84,-0.54,-0.08
2301753992,-0.84,-0.53,-0.07
2301755989,-0.84,-0.53,-0.07
2301757991,-0.84,-0.53,-0.07
2301759987,-0.84,-0.53,-0.07
2301761991,-0.84,-0.53,-0.07
2301763991,-0.84,-0.55,-0.07
2301765987,-0.84,-0.55,-0.07
2301767991,-0.84,-0.55,-0.07
2301769987,-0.84,-0.55,-0.07
2301771990,-0.84,-0.55,-0.07
2301773987,-0.83,-0.55,-0.08
2301776066,-0.83,-0.55,-0.08
2301778070,-0.83,-0.55,-0.08
2301780053,-0.83,-0.55,-0.08
2301782020,-0.83,-0.55,-0.08
2301784058,-0.83,-0.55,-0.08
2301786012,-0.83,-0.55,-0.08
2301788013,-0.83,-0.55,-0.08
2301790012,-0.83,-0.55,-0.08
2301792009,-0.83,-0.55,-0.08
2301794013,-0.84,-0.55,-0.08
2301796001,-0.84,-0.55,-0.08
2301797998,-0.84,-0.55,-0.08
2301799985,-0.84,-0.55,-0.08
2301802107,-0.84,-0.55,-0.08
2301803989,-0.83,-0.54,-0.07
2301805985,-0.83,-0.54,-0.07
2301807984,-0.83,-0.54,-0.07
2301809986,-0.83,-0.54,-0.07
2301811985,-0.83,-0.54,-0.07
2301813984,-0.84,-0.55,-0.07
2301815985,-0.84,-0.55,-0.07
2301817987,-0.84,-0.55,-0.07
2301820025,-0.84,-0.55,-0.07
2301822019,-0.84,-0.55,-0.07
2301824009,-0.84,-0.54,-0.07
2301826107,-0.84,-0.54,-0.07
2301828010,-0.84,-0.54,-0.07
2301830009,-0.84,-0.54,-0.07
2301832010,-0.84,-0.54,-0.07
2301833987,-0.84,-0.54,-0.07
2301835991,-0.84,-0.54,-0.07
2301837987,-0.84,-0.54,-0.07
2301839997,-0.84,-0.54,-0.07
2301842075,-0.84,-0.54,-0.07
2301844024,-0.84,-0.54,-0.07
2301845992,-0.84,-0.54,-0.07
2301847988,-0.84,-0.54,-0.07
2301849992,-0.84,-0.54,-0.07
2301852104,-0.84,-0.54,-0.07
2301853992,-0.83,-0.55,-0.08
2301855990,-0.83,-0.55,-0.08
2301857987,-0.83,-0.55,-0.08
2301860027,-0.83,-0.55,-0.08
2301862010,-0.83,-0.55,-0.08
2301864010,-0.84,-0.54,-0.08
2301866015,-0.84,-0.54,-0.08
2301868010,-0.84,-0.54,-0.08
2301870014,-0.84,-0.54,-0.08
2301872009,-0.84,-0.54,-0.08
2301873990,-0.84,-0.54,-0.07
2301876090,-0.84,-0.54,-0.07
2301877998,-0.84,-0.54,-0.07
2301880015,-0.84,-0.54,-0.07
2301881986,-0.84,-0.54,-0.07
2301883987,-0.84,-0.55,-0.08
2301886037,-0.84,-0.55,-0.08
2301887992,-0.84,-0.55,-0.08
2301889987,-0.84,-0.55,-0.08
2301891986,-0.84,-0.55,-0.08
2301893990,-0.84,-0.54,-0.07
2301896000,-0.84,-0.54,-0.07
2301897999,-0.84,-0.54,-0.07
2301900026,-0.84,-0.54,-0.07
2301902188,-0.84,-0.54,-0.07
2301904052,-0.83,-0.55,-0.08
2301906014,-0.83,-0.55,-0.08
2301908010,-0.83,-0.55,-0.08
2301910011,-0.83,-0.55,-0.08
2301912015,-0.83,-0.55,-0.08
2301914011,-0.83,-0.55,-0.08
2301916009,-0.84,-0.55,-0.09
2301917990,-0.84,-0.55,-0.09
2301919992,-0.84,-0.55,-0.09
2301921989,-0.84,-0.55,-0.09
2301923989,-0.84,-0.55,-0.09
2301926101,-0.84,-0.55,-0.07
2301928000,-0.84,-0.55,-0.07
2301929987,-0.84,-0.55,-0.07
2301931991,-0.84,-0.55,-0.07
2301933989,-0.84,-0.55,-0.07
2301935992,-0.83,-0.56,-0.08
2301937991,-0.83,-0.56,-0.08
2301940015,-0.83,-0.56,-0.08
2301942011,-0.83,-0.56,-0.08
2301944017,-0.83,-0.56,-0.08
2301946010,-0.83,-0.55,-0.09
2301948013,-0.83,-0.55,-0.09
2301950012,-0.83,-0.55,-0.09
2301952112,-0.83,-0.55,-0.09
2301953992,-0.83,-0.55,-0.09
2301955987,-0.84,-0.55,-0.08
2301957990,-0.84,-0.55,-0.08
2301959990,-0.84,-0.55,-0.08
2301961985,-0.84,-0.55,-0.08
2301963991,-0.84,-0.55,-0.08
2301965990,-0.83,-0.55,-0.08
2301967991,-0.83,-0.55,-0.08
2301969990,-0.83,-0.55,-0.08
2301971986,-0.83,-0.55,-0.08
2301973990,-0.83,-0.55,-0.08
2301976066,-0.83,-0.55,-0.09
2301978000,-0.83,-0.55,-0.09
2301980054,-0.83,-0.55,-0.09
2301982007,-0.83,-0.55,-0.09
2301984011,-0.83,-0.55,-0.09
2301986022,-0.83,-0.55,-0.10
2301988040,-0.83,-0.55,-0.10
2301990046,-0.83,-0.55,-0.10
2301992014,-0.83,-0.55,-0.10
2301994013,-0.83,-0.55,-0.10
2301996001,-0.84,-0.55,-0.08
2301998047,-0.84,-0.55,-0.08
2302000015,-0.84,-0.55,-0.08
2302002107,-0.84,-0.55,-0.08
2302003991,-0.84,-0.55,-0.08
2302005987,-0.83,-0.56,-0.09
2302007985,-0.83,-0.56,-0.09
2302009987,-0.83,-0.56,-0.09
2302011985,-0.83,-0.56,-0.09
2302013984,-0.83,-0.56,-0.09
2302015985,-0.84,-0.55,-0.09
2302017989,-0.84,-0.55,-0.09
2302020027,-0.84,-0.55,-0.09
2302022010,-0.84,-0.55,-0.09
2302024010,-0.84,-0.55,-0.09
2302026104,-0.84,-0.55,-0.09
2302028013,-0.84,-0.55,-0.09
2302030010,-0.84,-0.55,-0.09
2302032008,-0.84,-0.55,-0.09
2302033991,-0.84,-0.55,-0.09
2302035992,-0.84,-0.54,-0.09
2302037991,-0.84,-0.54,-0.09
2302039992,-0.84,-0.54,-0.09
2302041992,-0.84,-0.54,-0.09
2302044114,-0.84,-0.54,-0.09
2302046023,-0.84,-0.55,-0.08
2302047989,-0.84,-0.55,-0.08
2302049985,-0.84,-0.55,-0.08
2302052108,-0.84,-0.55,-0.08
2302053990,-0.84,-0.55,-0.08
2302055984,-0.83,-0.55,-0.09
2302057989,-0.83,-0.55,-0.09
2302060021,-0.83,-0.55,-0.09
2302062014,-0.83,-0.55,-0.09
2302064010,-0.83,-0.55,-0.09
2302066014,-0.84,-0.54,-0.08
2302068009,-0.84,-0.54,-0.08
2302070013,-0.84,-0.54,-0.08
2302072010,-0.84,-0.54,-0.08
2302073992,-0.84,-0.54,-0.08
2302076085,-0.84,-0.55,-0.09
2302078000,-0.84,-0.55,-0.09
2302080017,-0.84,-0.55,-0.09
2302081991,-0.84,-0.55,-0.09
2302083992,-0.84,-0.55,-0.09
2302085991,-0.83,-0.55,-0.09
2302087987,-0.83,-0.55,-0.09
2302089989,-0.83,-0.55,-0.09
2302092036,-0.83,-0.55,-0.09
2302094125,-0.83,-0.55,-0.09
2302096021,-0.83,-0.55,-0.09
2302097998,-0.83,-0.55,-0.09
2302100028,-0.83,-0.55,-0.09
2302102123,-0.83,-0.55,-0.09
2302104015,-0.83,-0.55,-0.09
2302106009,-0.83,-0.55,-0.09
2302108011,-0.84,-0.55,-0.08
2302110015,-0.84,-0.55,-0.08
2302112009,-0.84,-0.55,-0.08
2302113992,-0.84,-0.55,-0.08
2302115991,-0.84,-0.55,-0.08
2302117986,-0.84,-0.55,-0.08
2302119991,-0.84,-0.55,-0.08
2302121987,-0.84,-0.55,-0.08
2302123990,-0.84,-0.55,-0.08
2302126085,-0.84,-0.55,-0.08
2302127998,-0.83,-0.55,-0.08
2302129991,-0.83,-0.55,-0.08
2302131990,-0.83,-0.55,-0.08
2302133991,-0.83,-0.55,-0.08
2302135991,-0.83,-0.55,-0.08
2302137987,-0.84,-0.55,-0.09
2302140022,-0.84,-0.55,-0.09
2302142013,-0.84,-0.55,-0.09
2302144015,-0.84,-0.55,-0.09
2302146009,-0.84,-0.55,-0.09
2302148014,-0.83,-0.54,-0.07
2302150071,-0.83,-0.54,-0.07
2302152173,-0.83,-0.54,-0.07
2302154019,-0.83,-0.54,-0.07
2302156011,-0.83,-0.54,-0.07
2302157992,-0.83,-0.55,-0.07
2302159991,-0.83,-0.55,-0.07
2302161992,-0.83,-0.55,-0.07
2302163992,-0.83,-0.55,-0.07
2302165990,-0.83,-0.55,-0.07
2302167991,-0.84,-0.54,-0.07
2302169991,-0.84,-0.54,-0.07
2302171992,-0.84,-0.54,-0.07
2302173992,-0.84,-0.54,-0.07
2302176090,-0.84,-0.54,-0.07
2302178000,-0.83,-0.55,-0.08
2302180059,-0.83,-0.55,-0.08
2302182017,-0.83,-0.55,-0.08
2302184015,-0.83,-0.55,-0.08
2302186018,-0.83,-0.55,-0.08
2302188018,-0.82,-0.55,-0.09
2302190016,-0.82,-0.55,-0.09
2302192015,-0.82,-0.55,-0.09
2302194037,-0.82,-0.55,-0.09
2302195999,-0.82,-0.55,-0.09
2302198145,-0.84,-0.55,-0.08
2302200022,-0.84,-0.55,-0.08
2302202111,-0.84,-0.55,-0.08
2302203991,-0.84,-0.55,-0.08
2302205990,-0.84,-0.55,-0.08
2302207986,-0.83,-0.55,-0.08
2302209990,-0.83,-0.55,-0.08
2302211991,-0.83,-0.55,-0.08
2302213992,-0.83,-0.55,-0.08
2302215992,-0.83,-0.55,-0.08
2302217987,-0.83,-0.55,-0.10
2302220040,-0.83,-0.55,-0.10
2302222020,-0.83,-0.55,-0.10
2302224019,-0.83,-0.55,-0.10
2302226223,-0.83,-0.55,-0.10
2302228113,-0.83,-0.56,-0.08
2302230056,-0.83,-0.56,-0.08
2302232031,-0.83,-0.56,-0.08
2302234017,-0.83,-0.56,-0.08
2302236019,-0.83,-0.56,-0.08
2302237991,-0.84,-0.55,-0.09
2302239989,-0.84,-0.55,-0.09
2302241991,-0.84,-0.55,-0.09
2302243993,-0.84,-0.55,-0.09
2302246083,-0.84,-0.55,-0.09
2302248027,-0.83,-0.55,-0.09
2302249991,-0.83,-0.55,-0.09
2302252108,-0.83,-0.55,-0.09
2302253985,-0.83,-0.55,-0.09
2302255982,-0.83,-0.55,-0.09
2302257985,-0.84,-0.55,-0.09
2302260036,-0.84,-0.55,-0.09
2302262007,-0.84,-0.55,-0.09
2302264015,-0.84,-0.55,-0.09
2302266017,-0.84,-0.55,-0.09
2302268016,-0.84,-0.55,-0.09
2302270007,-0.84,-0.55,-0.09
2302272012,-0.84,-0.55,-0.09
2302273991,-0.84,-0.55,-0.09
2302276090,-0.84,-0.55,-0.09
2302277998,-0.83,-0.56,-0.08
2302280022,-0.83,-0.56,-0.08
2302281991,-0.83,-0.56,-0.08
2302283987,-0.83,-0.56,-0.08
2302285991,-0.83,-0.56,-0.08
2302287986,-0.83,-0.56,-0.08
2302289986,-0.84,-0.55,-0.07
2302292148,-0.84,-0.55,-0.07
2302294026,-0.84,-0.55,-0.07
2302296028,-0.84,-0.55,-0.07
2302297996,-0.84,-0.55,-0.07
2302300025,-0.84,-0.54,-0.07
2302302126,-0.84,-0.54,-0.07
2302304010,-0.84,-0.54,-0.07
2302306014,-0.84,-0.54,-0.07
2302308013,-0.84,-0.54,-0.07
2302310013,-0.84,-0.55,-0.08
2302312014,-0.84,-0.55,-0.08
2302313991,-0.84,-0.55,-0.08
2302315990,-0.84,-0.55,-0.08
2302317992,-0.84,-0.55,-0.08
2302319992,-0.84,-0.55,-0.07
2302321992,-0.84,-0.55,-0.07
2302323991,-0.84,-0.55,-0.07
2302326091,-0.84,-0.55,-0.07
2302327997,-0.84,-0.55,-0.07
2302329991,-0.84,-0.54,-0.07
2302331989,-0.84,-0.54,-0.07
2302333991,-0.84,-0.54,-0.07
2302335992,-0.84,-0.54,-0.07
2302337993,-0.84,-0.54,-0.07
2302340020,-0.84,-0.55,-0.08
2302342015,-0.84,-0.55,-0.08
2302344019,-0.84,-0.55,-0.08
2302346014,-0.84,-0.55,-0.08
2302348017,-0.84,-0.55,-0.08
2302350014,-0.84,-0.54,-0.07
2302352093,-0.84,-0.54,-0.07
2302353989,-0.84,-0.54,-0.07
2302355991,-0.84,-0.54,-0.07
2302357990,-0.84,-0.54,-0.07
2302359992,-0.83,-0.54,-0.07
2302361987,-0.83,-0.54,-0.07
2302363990,-0.83,-0.54,-0.07
2302365991,-0.83,-0.54,-0.07
2302367991,-0.83,-0.54,-0.07
2302369987,-0.84,-0.55,-0.08
2302371991,-0.84,-0.55,-0.08
2302373989,-0.84,-0.55,-0.08
2302376068,-0.84,-0.55,-0.08
2302378000,-0.84,-0.55,-0.08
2302380054,-0.83,-0.54,-0.07
2302382015,-0.83,-0.54,-0.07
2302384010,-0.83,-0.54,-0.07
2302386033,-0.83,-0.54,-0.07
2302388048,-0.83,-0.54,-0.07
2302390014,-0.84,-0.54,-0.08
2302392018,-0.84,-0.54,-0.08
2302394066,-0.84,-0.54,-0.08
2302396045,-0.84,-0.54,-0.08
2302398040,-0.84,-0.54,-0.08
2302399990,-0.84,-0.54,-0.08
2302402108,-0.84,-0.54,-0.08
2302403985,-0.84,-0.54,-0.08
2302405986,-0.84,-0.54,-0.08
2302407984,-0.84,-0.54,-0.08
2302409987,-0.84,-0.55,-0.07
2302411991,-0.84,-0.55,-0.07
2302413987,-0.84,-0.55,-0.07
2302415992,-0.84,-0.55,-0.07
2302417989,-0.84,-0.55,-0.07
2302420018,-0.84,-0.54,-0.09
2302422017,-0.84,-0.54,-0.09
2302424014,-0.84,-0.54,-0.09
2302426105,-0.84,-0.54,-0.09
2302428019,-0.84,-0.54,-0.09
2302430015,-0.83,-0.56,-0.09
2302432010,-0.83,-0.56,-0.09
2302433992,-0.83,-0.56,-0.09
2302435991,-0.83,-0.56,-0.09
2302437992,-0.83,-0.56,-0.09
2302439992,-0.84,-0.54,-0.09
2302441991,-0.84,-0.54,-0.09
2302443987,-0.84,-0.54,-0.09
2302445990,-0.84,-0.54,-0.09
2302448068,-0.84,-0.54,-0.09
2302450029,-0.83,-0.55,-0.08
2302452095,-0.83,-0.55,-0.08
2302453984,-0.83,-0.55,-0.08
2302455986,-0.83,-0.55,-0.08
2302457985,-0.83,-0.55,-0.08
2302460025,-0.83,-0.55,-0.09
2302462018,-0.83,-0.55,-0.09
2302464014,-0.83,-0.55,-0.09
2302466013,-0.83,-0.55,-0.09
2302468010,-0.83,-0.55,-0.09
2302470009,-0.84,-0.54,-0.09
2302472011,-0.84,-0.54,-0.09
2302473992,-0.84,-0.54,-0.09
2302476091,-0.84,-0.54,-0.09
2302477998,-0.84,-0.54,-0.09
2302480011,-0.84,-0.54,-0.09
2302481985,-0.83,-0.55,-0.09
2302483994,-0.83,-0.55,-0.09
2302485996,-0.83,-0.55,-0.09
2302487992,-0.83,-0.55,-0.09
2302490005,-0.83,-0.55,-0.09
2302492067,-0.83,-0.55,-0.09
2302493990,-0.83,-0.55,-0.09
2302496039,-0.83,-0.55,-0.09
2302498039,-0.83,-0.55,-0.09
2302500051,-0.83,-0.55,-0.09
2302502146,-0.83,-0.57,-0.09
2302504002,-0.83,-0.57,-0.09
2302506005,-0.83,-0.57,-0.09
2302508003,-0.83,-0.57,-0.09
2302510005,-0.83,-0.57,-0.09
2302512004,-0.82,-0.55,-0.08
2302514008,-0.82,-0.55,-0.08
2302515979,-0.82,-0.55,-0.08
2302517978,-0.82,-0.55,-0.08
2302519985,-0.82,-0.55,-0.08
2302521978,-0.83,-0.57,-0.10
2302523978,-0.83,-0.57,-0.10
2302526081,-0.83,-0.57,-0.10
2302527987,-0.83,-0.57,-0.10
2302529976,-0.83,-0.57,-0.10
2302531976,-0.83,-0.56,-0.09
2302533977,-0.83,-0.56,-0.09
2302535980,-0.83,-0.56,-0.09
2302537976,-0.83,-0.56,-0.09
2302540011,-0.83,-0.56,-0.09
2302542011,-0.83,-0.57,-0.10
2302544006,-0.83,-0.57,-0.10
2302546004,-0.83,-0.57,-0.10
2302548003,-0.83,-0.57,-0.10
2302550006,-0.83,-0.57,-0.10
2302552092,-0.83,-0.55,-0.09
2302553981,-0.83,-0.55,-0.09
2302555979,-0.83,-0.55,-0.09
2302558058,-0.83,-0.55,-0.09
2302560022,-0.83,-0.55,-0.09
2302561975,-0.83,-0.56,-0.10
2302563975,-0.83,-0.56,-0.10
2302565977,-0.83,-0.56,-0.10
2302567977,-0.83,-0.56,-0.10
2302569974,-0.83,-0.56,-0.10
2302571976,-0.83,-0.55,-0.09
2302573974,-0.83,-0.55,-0.09
2302576091,-0.83,-0.55,-0.09
2302577989,-0.83,-0.55,-0.09
2302580056,-0.83,-0.55,-0.09
2302582001,-0.83,-0.56,-0.09
2302584002,-0.83,-0.56,-0.09
2302586005,-0.83,-0.56,-0.09
2302588006,-0.83,-0.56,-0.09
2302590004,-0.83,-0.56,-0.09
2302592007,-0.83,-0.55,-0.09
2302593981,-0.83,-0.55,-0.09
2302595996,-0.83,-0.55,-0.09
2302597987,-0.83,-0.55,-0.09
2302599980,-0.83,-0.55,-0.09
2302602163,-0.84,-0.54,-0.10
2302604010,-0.84,-0.54,-0.10
2302606115,-0.84,-0.54,-0.10
2302608015,-0.84,-0.54,-0.10
2302609984,-0.84,-0.54,-0.10
2302611979,-0.83,-0.55,-0.08
2302613980,-0.83,-0.55,-0.08
2302615980,-0.83,-0.55,-0.08
2302617977,-0.83,-0.55,-0.08
2302620021,-0.83,-0.55,-0.08
2302622077,-0.83,-0.55,-0.09
2302624004,-0.83,-0.55,-0.09
2302626019,-0.83,-0.55,-0.09
2302628007,-0.83,-0.55,-0.09
2302630006,-0.83,-0.55,-0.09
2302632008,-0.84,-0.55,-0.08
2302633980,-0.84,-0.55,-0.08
2302635984,-0.84,-0.55,-0.08
2302637981,-0.84,-0.55,-0.08
2302639980,-0.84,-0.55,-0.08
2302641981,-0.83,-0.55,-0.09
2302643980,-0.83,-0.55,-0.09
2302645979,-0.83,-0.55,-0.09
2302647979,-0.83,-0.55,-0.09
2302649979,-0.83,-0.55,-0.09
2302652004,-0.84,-0.54,-0.08
2302654127,-0.84,-0.54,-0.08
2302656017,-0.84,-0.54,-0.08
2302657978,-0.84,-0.54,-0.08
2302660017,-0.84,-0.54,-0.08
2302661999,-0.84,-0.54,-0.08
2302664001,-0.84,-0.54,-0.07
2302666006,-0.84,-0.54,-0.07
2302668004,-0.84,-0.54,-0.07
2302670005,-0.84,-0.54,-0.07
2302672006,-0.84,-0.54,-0.07
2302673984,-0.84,-0.55,-0.08
2302676007,-0.84,-0.55,-0.08
2302677983,-0.84,-0.55,-0.08
2302680009,-0.84,-0.55,-0.08
2302681975,-0.84,-0.55,-0.08
2302683977,-0.84,-0.54,-0.07
2302685973,-0.84,-0.54,-0.07
2302687975,-0.84,-0.54,-0.07
2302689975,-0.84,-0.54,-0.07
2302691981,-0.84,-0.54,-0.07
2302693980,-0.84,-0.55,-0.08
2302695995,-0.84,-0.55,-0.08
2302697990,-0.84,-0.55,-0.08
2302700140,-0.84,-0.55,-0.08
2302702070,-0.84,-0.55,-0.08
2302704008,-0.83,-0.54,-0.07
2302706048,-0.83,-0.54,-0.07
2302708002,-0.83,-0.54,-0.07
2302710003,-0.83,-0.54,-0.07
2302712003,-0.83,-0.54,-0.07
2302714001,-0.84,-0.54,-0.07
2302716012,-0.84,-0.54,-0.07
2302717977,-0.84,-0.54,-0.07
2302719979,-0.84,-0.54,-0.07
2302721977,-0.84,-0.54,-0.07
2302723980,-0.84,-0.54,-0.07
2302726003,-0.84,-0.54,-0.07
2302727985,-0.84,-0.54,-0.07
2302729976,-0.84,-0.54,-0.07
2302731976,-0.84,-0.54,-0.07
2302733982,-0.84,-0.55,-0.07
2302735991,-0.84,-0.55,-0.07
2302737975,-0.84,-0.55,-0.07
2302739974,-0.84,-0.55,-0.07
2302742014,-0.84,-0.55,-0.07
2302744008,-0.84,-0.54,-0.08
2302746001,-0.84,-0.54,-0.08
2302748004,-0.84,-0.54,-0.08
2302750006,-0.84,-0.54,-0.08
2302752030,-0.84,-0.54,-0.08
2302754004,-0.84,-0.53,-0.07
2302755976,-0.84,-0.53,-0.07
2302757976,-0.84,-0.53,-0.07
2302759979,-0.84,-0.53,-0.07
2302761977,-0.84,-0.53,-0.07
2302763980,-0.84,-0.54,-0.08
2302765980,-0.84,-0.54,-0.08
2302767978,-0.84,-0.54,-0.08
2302769977,-0.84,-0.54,-0.08
2302771981,-0.84,-0.54,-0.08
2302773980,-0.84,-0.54,-0.08
2302775996,-0.84,-0.54,-0.08
2302777984,-0.84,-0.54,-0.08
2302780008,-0.84,-0.54,-0.08
2302782015,-0.84,-0.54,-0.08
2302784007,-0.84,-0.55,-0.08
2302786004,-0.84,-0.55,-0.08
2302788033,-0.84,-0.55,-0.08
2302790009,-0.84,-0.55,-0.08
2302792052,-0.84,-0.55,-0.08
2302794009,-0.83,-0.55,-0.07
2302796008,-0.83,-0.55,-0.07
2302798014,-0.83,-0.55,-0.07
2302799977,-0.83,-0.55,-0.07
2302802002,-0.83,-0.55,-0.07
2302803994,-0.83,-0.55,-0.07
2302805988,-0.83,-0.55,-0.07
2302808020,-0.83,-0.55,-0.07
2302809980,-0.83,-0.55,-0.07
2302811978,-0.83,-0.55,-0.07
2302813979,-0.83,-0.55,-0.08
2302815979,-0.83,-0.55,-0.08
2302817975,-0.83,-0.55,-0.08
2302819981,-0.83,-0.55,-0.08
2302822019,-0.83,-0.55,-0.08
2302824005,-0.83,-0.55,-0.08
2302826021,-0.83,-0.55,-0.08
2302828007,-0.83,-0.55,-0.08
2302830004,-0.83,-0.55,-0.08
2302832000,-0.83,-0.55,-0.08
2302833993,-0.83,-0.55,-0.08
2302835976,-0.83,-0.55,-0.08
2302838050,-0.83,-0.55,-0.08
2302840032,-0.83,-0.55,-0.08
2302841972,-0.83,-0.55,-0.08
2302843978,-0.83,-0.55,-0.08
2302845976,-0.83,-0.55,-0.08
2302847979,-0.83,-0.55,-0.08
2302849978,-0.83,-0.55,-0.08
2302851997,-0.83,-0.55,-0.08
2302853977,-0.83,-0.55,-0.08
2302855975,-0.84,-0.56,-0.09
2302857975,-0.84,-0.56,-0.09
2302859976,-0.84,-0.56,-0.09
2302862019,-0.84,-0.56,-0.09
2302864004,-0.84,-0.56,-0.09
2302866003,-0.84,-0.55,-0.09
2302868003,-0.84,-0.55,-0.09
2302870003,-0.84,-0.55,-0.09
2302872005,-0.84,-0.55,-0.09
2302874003,-0.84,-0.55,-0.09
2302875995,-0.83,-0.54,-0.09
2302877981,-0.83,-0.54,-0.09
2302880007,-0.83,-0.54,-0.09
2302881974,-0.83,-0.54,-0.09
2302884006,-0.83,-0.54,-0.09
2302886070,-0.84,-0.54,-0.07
2302888023,-0.84,-0.54,-0.07
2302889976,-0.84,-0.54,-0.07
2302891978,-0.84,-0.54,-0.07
2302893978,-0.84,-0.54,-0.07
2302895990,-0.82,-0.54,-0.08
2302897990,-0.82,-0.54,-0.08
2302899977,-0.82,-0.54,-0.08
2302902051,-0.82,-0.54,-0.08
2302904005,-0.82,-0.54,-0.08
2302906000,-0.82,-0.55,-0.10
2302908002,-0.82,-0.55,-0.10
2302910049,-0.82,-0.55,-0.10
2302912004,-0.82,-0.55,-0.10
2302914003,-0.82,-0.55,-0.10
2302916004,-0.84,-0.54,-0.08
2302917980,-0.84,-0.54,-0.08
2302919979,-0.84,-0.54,-0.08
2302921977,-0.84,-0.54,-0.08
2302923978,-0.84,-0.54,-0.08
2302926005,-0.83,-0.56,-0.10
2302927979,-0.83,-0.56,-0.10
2302929975,-0.83,-0.56,-0.10
2302932038,-0.83,-0.56,-0.10
2302934036,-0.83,-0.56,-0.10
2302935979,-0.83,-0.54,-0.11
2302937979,-0.83,-0.54,-0.11
2302939977,-0.83,-0.54,-0.11
2302942016,-0.83,-0.54,-0.11
2302944004,-0.83,-0.54,-0.11
2302946002,-0.84,-0.55,-0.09
2302948008,-0.84,-0.55,-0.09
2302950005,-0.84,-0.55,-0.09
2302952030,-0.84,-0.55,-0.09
2302954006,-0.84,-0.55,-0.09
2302955984,-0.83,-0.56,-0.09
2302957981,-0.83,-0.56,-0.09
2302959979,-0.83,-0.56,-0.09
2302961979,-0.83,-0.56,-0.09
2302963979,-0.83,-0.56,-0.09
2302965979,-0.83,-0.55,-0.08
2302967977,-0.83,-0.55,-0.08
2302969978,-0.83,-0.55,-0.08
2302971980,-0.83,-0.55,-0.08
2302973977,-0.83,-0.55,-0.08
2302975998,-0.83,-0.55,-0.09
2302977988,-0.83,-0.55,-0.09
2302980015,-0.83,-0.55,-0.09
2302982016,-0.83,-0.55,-0.09
2302984001,-0.83,-0.55,-0.09
2302986010,-0.83,-0.55,-0.08
2302988005,-0.83,-0.55,-0.08
2302990006,-0.83,-0.55,-0.08
2302992004,-0.83,-0.55,-0.08
2302994017,-0.83,-0.55,-0.08
2302996051,-0.84,-0.56,-0.08
2302998036,-0.84,-0.56,-0.08
2302999979,-0.84,-0.56,-0.08
2303002005,-0.84,-0.56,-0.08
2303003974,-0.84,-0.56,-0.08
2303005981,-0.83,-0.56,-0.08
2303007981,-0.83,-0.56,-0.08
2303009980,-0.83,-0.56,-0.08
2303012021,-0.83,-0.56,-0.08
2303013998,-0.83,-0.56,-0.08
2303015976,-0.83,-0.55,-0.09
2303017977,-0.83,-0.55,-0.09
2303019979,-0.83,-0.55,-0.09
2303022015,-0.83,-0.55,-0.09
2303024004,-0.83,-0.55,-0.09
2303026017,-0.84,-0.55,-0.08
2303028004,-0.84,-0.55,-0.08
2303030003,-0.84,-0.55,-0.08
2303032005,-0.84,-0.55,-0.08
2303034004,-0.84,-0.55,-0.08
2303035977,-0.84,-0.55,-0.08
2303037977,-0.84,-0.55,-0.08
2303039981,-0.84,-0.55,-0.08
2303041979,-0.84,-0.55,-0.08
2303043976,-0.84,-0.55,-0.08
2303045980,-0.84,-0.55,-0.08
2303047977,-0.84,-0.55,-0.08
2303049984,-0.84,-0.55,-0.08
2303051992,-0.84,-0.55,-0.08
2303054000,-0.84,-0.55,-0.08
2303056048,-0.84,-0.55,-0.08
2303058008,-0.84,-0.55,-0.08
2303059981,-0.84,-0.55,-0.08
2303062018,-0.84,-0.55,-0.08
2303064000,-0.84,-0.55,-0.08
2303066004,-0.84,-0.55,-0.08
2303068004,-0.84,-0.55,-0.08
2303070004,-0.84,-0.55,-0.08
2303072006,-0.84,-0.55,-0.08
2303074006,-0.84,-0.55,-0.08
2303076007,-0.84,-0.55,-0.08
2303077981,-0.83,-0.55,-0.07
2303080010,-0.83,-0.55,-0.07
2303081976,-0.83,-0.55,-0.07
2303083975,-0.83,-0.55,-0.07
2303085979,-0.83,-0.55,-0.07
2303087977,-0.83,-0.55,-0.08
2303089976,-0.83,-0.55,-0.08
2303091977,-0.83,-0.55,-0.08
2303093979,-0.83,-0.55,-0.08
2303095996,-0.83,-0.55,-0.08
2303097987,-0.84,-0.54,-0.08
2303099976,-0.84,-0.54,-0.08
2303102041,-0.84,-0.54,-0.08
2303104021,-0.84,-0.54,-0.08
2303106064,-0.84,-0.54,-0.08
2303108043,-0.83,-0.55,-0.09
2303110004,-0.83,-0.55,-0.09
2303112000,-0.83,-0.55,-0.09
2303114006,-0.83,-0.55,-0.09
2303116006,-0.83,-0.55,-0.09
2303117991,-0.83,-0.55,-0.09
2303119980,-0.83,-0.55,-0.09
2303121977,-0.83,-0.55,-0.09
2303123975,-0.83,-0.55,-0.09
2303126007,-0.83,-0.55,-0.09
2303127987,-0.83,-0.54,-0.09
2303129980,-0.83,-0.54,-0.09
2303131980,-0.83,-0.54,-0.09
2303133985,-0.83,-0.54,-0.09
2303135979,-0.83,-0.54,-0.09
2303137976,-0.83,-0.55,-0.10
2303139976,-0.83,-0.55,-0.10
2303142011,-0.83,-0.55,-0.10
2303144004,-0.83,-0.55,-0.10
2303146002,-0.83,-0.55,-0.10
2303148008,-0.84,-0.54,-0.09
2303150007,-0.84,-0.54,-0.09
2303152021,-0.84,-0.54,-0.09
2303154008,-0.84,-0.54,-0.09
2303155979,-0.84,-0.54,-0.09
2303157975,-0.84,-0.54,-0.08
2303159980,-0.84,-0.54,-0.08
2303161980,-0.84,-0.54,-0.08
2303163979,-0.84,-0.54,-0.08
2303165980,-0.84,-0.54,-0.08
2303167977,-0.84,-0.54,-0.09
2303169979,-0.84,-0.54,-0.09
2303171977,-0.84,-0.54,-0.09
2303173978,-0.84,-0.54,-0.09
2303175996,-0.84,-0.54,-0.09
2303177980,-0.84,-0.55,-0.07
2303180006,-0.84,-0.55,-0.07
2303182013,-0.84,-0.55,-0.07
2303184004,-0.84,-0.55,-0.07
2303186002,-0.84,-0.55,-0.07
2303188004,-0.84,-0.55,-0.08
2303190005,-0.84,-0.55,-0.08
2303192069,-0.84,-0.55,-0.08
2303194047,-0.84,-0.55,-0.08
2303196016,-0.84,-0.55,-0.08
2303198015,-0.83,-0.55,-0.08
2303199981,-0.83,-0.55,-0.08
2303202000,-0.83,-0.55,-0.08
2303203979,-0.83,-0.55,-0.08
2303205981,-0.83,-0.55,-0.08
2303207980,-0.83,-0.55,-0.08
2303209976,-0.83,-0.55,-0.08
2303211979,-0.83,-0.55,-0.08
2303213981,-0.83,-0.55,-0.08
2303215987,-0.83,-0.55,-0.08
2303218016,-0.83,-0.55,-0.09
2303219975,-0.83,-0.55,-0.09
2303222022,-0.83,-0.55,-0.09
2303224004,-0.83,-0.55,-0.09
2303226017,-0.83,-0.55,-0.09
2303228008,-0.83,-0.55,-0.09
2303230007,-0.83,-0.55,-0.08
2303232005,-0.83,-0.55,-0.08
2303233995,-0.83,-0.55,-0.08
2303235991,-0.83,-0.55,-0.08
2303237979,-0.83,-0.55,-0.08
2303240058,-0.83,-0.55,-0.08
2303242027,-0.83,-0.55,-0.08
2303243976,-0.83,-0.55,-0.08
2303245977,-0.83,-0.55,-0.08
2303247981,-0.83,-0.55,-0.08
2303249979,-0.83,-0.55,-0.08
2303252001,-0.83,-0.55,-0.08
2303253976,-0.83,-0.55,-0.08
2303255975,-0.83,-0.55,-0.08
2303257976,-0.83,-0.55,-0.08
2303259976,-0.84,-0.55,-0.09
2303262020,-0.84,-0.55,-0.09
2303264003,-0.84,-0.55,-0.09
2303266000,-0.84,-0.55,-0.09
2303268008,-0.84,-0.55,-0.09
2303270003,-0.84,-0.55,-0.09
2303272000,-0.84,-0.55,-0.09
2303274005,-0.84,-0.55,-0.09
2303275993,-0.84,-0.55,-0.09
2303277981,-0.84,-0.55,-0.09
2303280009,-0.83,-0.55,-0.09
2303281975,-0.83,-0.55,-0.09
2303283976,-0.83,-0.55,-0.09
2303285976,-0.83,-0.55,-0.09
2303287976,-0.83,-0.55,-0.09
2303289974,-0.83,-0.54,-0.09
2303291976,-0.83,-0.54,-0.09
2303293980,-0.83,-0.54,-0.09
2303296053,-0.83,-0.54,-0.09
2303298027,-0.83,-0.54,-0.09
2303299976,-0.83,-0.55,-0.10
2303302050,-0.83,-0.55,-0.10
2303304004,-0.83,-0.55,-0.10
2303306004,-0.83,-0.55,-0.10
2303308006,-0.83,-0.55,-0.10
2303310006,-0.84,-0.54,-0.09
2303312007,-0.84,-0.54,-0.09
2303314009,-0.84,-0.54,-0.09
2303315982,-0.84,-0.54,-0.09
2303317990,-0.84,-0.54,-0.09
2303320023,-0.84,-0.54,-0.09
2303321977,-0.84,-0.54,-0.09
2303323975,-0.84,-0.54,-0.09
2303326089,-0.84,-0.54,-0.09
2303327987,-0.84,-0.54,-0.09
2303329981,-0.83,-0.54,-0.10
2303331981,-0.83,-0.54,-0.10
2303333978,-0.83,-0.54,-0.10
2303335977,-0.83,-0.54,-0.10
2303337976,-0.83,-0.54,-0.10
2303339976,-0.83,-0.55,-0.09
2303342020,-0.83,-0.55,-0.09
2303344008,-0.83,-0.55,-0.09
2303346008,-0.83,-0.55,-0.09
2303348005,-0.83,-0.55,-0.09
2303350064,-0.83,-0.55,-0.09
2303352062,-0.83,-0.55,-0.09
2303354006,-0.83,-0.55,-0.09
2303356001,-0.83,-0.55,-0.09
2303357991,-0.83,-0.55,-0.09
2303359979,-0.84,-0.55,-0.09
2303361980,-0.84,-0.55,-0.09
2303363976,-0.84,-0.55,-0.09
2303365974,-0.84,-0.55,-0.09
2303367985,-0.84,-0.55,-0.09
2303369979,-0.83,-0.55,-0.09
2303371981,-0.83,-0.55,-0.09
2303373981,-0.83,-0.55,-0.09
2303376090,-0.83,-0.55,-0.09
2303377990,-0.83,-0.55,-0.09
2303380005,-0.83,-0.55,-0.08
2303382013,-0.83,-0.55,-0.08
2303384006,-0.83,-0.55,-0.08
2303386004,-0.83,-0.55,-0.08
2303388004,-0.83,-0.55,-0.08
2303390006,-0.83,-0.55,-0.08
2303392000,-0.83,-0.55,-0.08
2303394005,-0.83,-0.55,-0.08
2303395996,-0.83,-0.55,-0.08
2303397988,-0.83,-0.55,-0.08
2303399976,-0.82,-0.56,-0.08
2303402014,-0.82,-0.56,-0.08
2303404068,-0.82,-0.56,-0.08
2303406026,-0.82,-0.56,-0.08
2303407976,-0.82,-0.56,-0.08
2303409974,-0.82,-0.56,-0.08
2303411980,-0.84,-0.55,-0.08
2303413979,-0.84,-0.55,-0.08
2303415979,-0.84,-0.55,-0.08
2303417980,-0.84,-0.55,-0.08
2303419977,-0.84,-0.55,-0.08
2303422041,-0.84,-0.55,-0.07
2303424009,-0.84,-0.55,-0.07
2303426023,-0.84,-0.55,-0.07
2303428005,-0.84,-0.55,-0.07
2303430003,-0.84,-0.55,-0.07
2303432006,-0.84,-0.55,-0.08
2303434007,-0.84,-0.55,-0.08
2303435976,-0.84,-0.55,-0.08
2303437980,-0.84,-0.55,-0.08
2303439980,-0.84,-0.55,-0.08
2303441980,-0.83,-0.55,-0.08
2303443975,-0.83,-0.55,-0.08
2303445979,-0.83,-0.55,-0.08
2303447978,-0.83,-0.55,-0.08
2303449984,-0.83,-0.55,-0.08
2303451990,-0.83,-0.55,-0.09
2303453976,-0.83,-0.55,-0.09
2303455979,-0.83,-0.55,-0.09
2303457981,-0.83,-0.55,-0.09
2303460107,-0.83,-0.55,-0.09
2303462039,-0.84,-0.55,-0.08
2303464001,-0.84,-0.55,-0.08
2303466002,-0.84,-0.55,-0.08
2303468003,-0.84,-0.55,-0.08
2303470007,-0.84,-0.55,-0.08
2303472002,-0.84,-0.54,-0.09
2303474006,-0.84,-0.54,-0.09
2303476007,-0.84,-0.54,-0.09
2303477987,-0.84,-0.54,-0.09
2303480005,-0.84,-0.54,-0.09
2303481975,-0.83,-0.55,-0.09
2303483978,-0.83,-0.55,-0.09
2303485992,-0.83,-0.55,-0.09
2303487974,-0.83,-0.55,-0.09
2303489977,-0.83,-0.55,-0.09
2303491977,-0.84,-0.55,-0.08
2303493978,-0.84,-0.55,-0.08
2303495991,-0.84,-0.55,-0.08
2303497987,-0.84,-0.55,-0.08
2303499974,-0.84,-0.55,-0.08
2303502043,-0.83,-0.55,-0.08
2303504005,-0.83,-0.55,-0.08
2303506004,-0.83,-0.55,-0.08
2303508068,-0.83,-0.55,-0.08
2303510046,-0.83,-0.55,-0.08
2303512007,-0.84,-0.55,-0.09
2303514006,-0.84,-0.55,-0.09
2303516003,-0.84,-0.55,-0.09
2303517994,-0.84,-0.55,-0.09
2303519981,-0.84,-0.55,-0.09
2303521981,-0.84,-0.54,-0.08
2303523979,-0.84,-0.54,-0.08
2303526012,-0.84,-0.54,-0.08
2303527985,-0.84,-0.54,-0.08
2303529976,-0.84,-0.54,-0.08
2303531980,-0.83,-0.55,-0.09
2303533979,-0.83,-0.55,-0.09
2303535978,-0.83,-0.55,-0.09
2303537974,-0.83,-0.55,-0.09
2303539975,-0.83,-0.55,-0.09
2303542009,-0.83,-0.56,-0.09
2303544002,-0.83,-0.56,-0.09
2303546005,-0.83,-0.56,-0.09
2303548009,-0.83,-0.56,-0.09
2303550010,-0.83,-0.56,-0.09
2303552024,-0.83,-0.56,-0.08
2303553985,-0.83,-0.56,-0.08
2303555977,-0.83,-0.56,-0.08
2303557979,-0.83,-0.56,-0.08
2303559977,-0.83,-0.56,-0.08
2303561977,-0.84,-0.56,-0.08
2303563976,-0.84,-0.56,-0.08
2303565977,-0.84,-0.56,-0.08
2303567975,-0.84,-0.56,-0.08
2303569980,-0.84,-0.56,-0.08
2303571977,-0.83,-0.55,-0.07
2303573979,-0.83,-0.55,-0.07
2303575991,-0.83,-0.55,-0.07
2303577984,-0.83,-0.55,-0.07
2303580009,-0.83,-0.55,-0.07
2303582022,-0.83,-0.55,-0.08
2303584007,-0.83,-0.55,-0.08
2303586006,-0.83,-0.55,-0.08
2303588004,-0.83,-0.55,-0.08
2303590000,-0.83,-0.55,-0.08
2303592007,-0.83,-0.55,-0.08
2303594034,-0.83,-0.55,-0.08
2303596000,-0.83,-0.55,-0.08
2303598081,-0.83,-0.55,-0.08
2303600015,-0.83,-0.55,-0.08
2303602000,-0.83,-0.55,-0.08
2303603980,-0.84,-0.55,-0.08
2303605981,-0.84,-0.55,-0.08
2303607976,-0.84,-0.55,-0.08
2303609979,-0.84,-0.55,-0.08
2303611979,-0.84,-0.55,-0.08
2303613979,-0.84,-0.55,-0.08
2303615976,-0.84,-0.55,-0.08
2303617980,-0.84,-0.55,-0.08
2303619981,-0.84,-0.55,-0.08
2303622094,-0.84,-0.55,-0.08
2303624006,-0.83,-0.55,-0.08
2303626016,-0.83,-0.55,-0.08
2303628048,-0.83,-0.55,-0.08
2303630008,-0.83,-0.55,-0.08
2303632006,-0.83,-0.55,-0.08
2303634004,-0.83,-0.54,-0.09
2303636003,-0.83,-0.54,-0.09
2303637979,-0.83,-0.54,-0.09
2303639976,-0.83,-0.54,-0.09
2303641975,-0.83,-0.54,-0.09
2303643976,-0.84,-0.54,-0.09
2303645981,-0.84,-0.54,-0.09
2303647976,-0.84,-0.54,-0.09
2303650085,-0.84,-0.54,-0.09
2303652040,-0.84,-0.54,-0.09
2303653980,-0.83,-0.54,-0.08
2303655990,-0.83,-0.54,-0.08
2303657985,-0.83,-0.54,-0.08
2303659977,-0.83,-0.54,-0.08
2303662017,-0.83,-0.54,-0.08
2303664005,-0.83,-0.55,-0.08
2303666003,-0.83,-0.55,-0.08
2303668002,-0.83,-0.55,-0.08
2303670003,-0.83,-0.55,-0.08
2303672001,-0.83,-0.55,-0.08
2303674008,-0.84,-0.55,-0.08
2303675994,-0.84,-0.55,-0.08
2303677983,-0.84,-0.55,-0.08
2303680008,-0.84,-0.55,-0.08
2303681979,-0.84,-0.55,-0.08
2303683976,-0.84,-0.55,-0.07
2303685974,-0.84,-0.55,-0.07
2303687976,-0.84,-0.55,-0.07
2303689977,-0.84,-0.55,-0.07
2303691976,-0.84,-0.55,-0.07
2303694113,-0.83,-0.55,-0.08
2303696021,-0.83,-0.55,-0.08
2303697991,-0.83,-0.55,-0.08
2303699979,-0.83,-0.55,-0.08
2303702042,-0.83,-0.55,-0.08
2303704005,-0.83,-0.55,-0.08
2303706001,-0.83,-0.55,-0.08
2303708008,-0.83,-0.55,-0.08
2303710005,-0.83,-0.55,-0.08
2303712006,-0.83,-0.55,-0.08
2303714005,-0.83,-0.54,-0.08
2303715981,-0.83,-0.54,-0.08
2303717979,-0.83,-0.54,-0.08
2303719978,-0.83,-0.54,-0.08
2303721985,-0.83,-0.54,-0.08
2303723981,-0.83,-0.55,-0.08
2303726086,-0.83,-0.55,-0.08
2303727989,-0.83,-0.55,-0.08
2303730022,-0.83,-0.55,-0.08
2303731976,-0.83,-0.55,-0.08
2303733978,-0.84,-0.54,-0.08
2303735992,-0.84,-0.54,-0.08
2303737976,-0.84,-0.54,-0.08
2303739973,-0.84,-0.54,-0.08
2303742074,-0.84,-0.54,-0.08
2303744048,-0.83,-0.55,-0.08
2303746002,-0.83,-0.55,-0.08
2303748005,-0.83,-0.55,-0.08
2303750004,-0.83,-0.55,-0.08
2303752031,-0.83,-0.55,-0.08
2303754009,-0.84,-0.55,-0.09
2303756008,-0.84,-0.55,-0.09
2303758006,-0.84,-0.55,-0.09
2303759978,-0.84,-0.55,-0.09
2303761981,-0.84,-0.55,-0.09
2303763984,-0.83,-0.55,-0.09
2303765979,-0.83,-0.55,-0.09
2303767980,-0.83,-0.55,-0.09
2303769978,-0.83,-0.55,-0.09
2303771976,-0.83,-0.55,-0.09
2303773978,-0.83,-0.56,-0.09
2303776083,-0.83,-0.56,-0.09
2303777984,-0.83,-0.56,-0.09
2303780016,-0.83,-0.56,-0.09
2303781977,-0.83,-0.56,-0.09
2303784014,-0.83,-0.55,-0.09
2303786009,-0.83,-0.55,-0.09
2303788015,-0.83,-0.55,-0.09
2303790008,-0.83,-0.55,-0.09
2303792004,-0.83,-0.55,-0.09
2303794006,-0.83,-0.55,-0.09
2303796009,-0.83,-0.55,-0.09
2303797990,-0.83,-0.55,-0.09
2303800025,-0.83,-0.55,-0.09
2303802064,-0.83,-0.55,-0.09
2303803999,-0.83,-0.55,-0.09
2303805978,-0.82,-0.55,-0.09
2303807977,-0.82,-0.55,-0.09
2303809978,-0.82,-0.55,-0.09
2303811976,-0.82,-0.55,-0.09
2303813976,-0.82,-0.55,-0.09
2303815977,-0.83,-0.55,-0.09
2303817975,-0.83,-0.55,-0.09
2303819980,-0.83,-0.55,-0.09
2303821975,-0.83,-0.55,-0.09
2303824015,-0.83,-0.55,-0.09
2303826015,-0.83,-0.54,-0.09
2303828007,-0.83,-0.54,-0.09
2303830008,-0.83,-0.54,-0.09
2303832054,-0.83,-0.54,-0.09
2303834007,-0.83,-0.54,-0.09
2303836008,-0.82,-0.54,-0.09
2303837979,-0.82,-0.54,-0.09
2303839977,-0.82,-0.54,-0.09
2303841975,-0.82,-0.54,-0.09
2303843977,-0.82,-0.54,-0.09
2303846006,-0.83,-0.57,-0.09
2303848109,-0.83,-0.57,-0.09
2303850015,-0.83,-0.57,-0.09
2303852001,-0.83,-0.57,-0.09
2303853981,-0.83,-0.57,-0.09
2303855977,-0.83,-0.58,-0.09
2303857974,-0.83,-0.58,-0.09
2303859979,-0.83,-0.58,-0.09
2303861977,-0.83,-0.58,-0.09
2303864016,-0.83,-0.58,-0.09
2303866004,-0.82,-0.53,-0.09
2303868003,-0.82,-0.53,-0.09
2303870005,-0.82,-0.53,-0.09
2303872008,-0.82,-0.53,-0.09
2303874001,-0.82,-0.53,-0.09
2303876019,-0.84,-0.56,-0.09
2303877987,-0.84,-0.56,-0.09
2303880009,-0.84,-0.56,-0.09
2303881977,-0.84,-0.56,-0.09
2303883976,-0.84,-0.56,-0.09
2303885976,-0.84,-0.54,-0.08
2303887976,-0.84,-0.54,-0.08
2303889977,-0.84,-0.54,-0.08
2303891975,-0.84,-0.54,-0.08
2303893978,-0.84,-0.54,-0.08
2303896071,-0.84,-0.55,-0.09
2303898025,-0.84,-0.55,-0.09
2303899980,-0.84,-0.55,-0.09
2303902000,-0.84,-0.55,-0.09
2303904020,-0.84,-0.55,-0.09
2303906000,-0.84,-0.54,-0.09
2303908002,-0.84,-0.54,-0.09
2303910005,-0.84,-0.54,-0.09
2303912004,-0.84,-0.54,-0.09
2303914004,-0.84,-0.54,-0.09
2303916001,-0.85,-0.54,-0.08
2303917980,-0.85,-0.54,-0.08
2303919985,-0.85,-0.54,-0.08
2303921978,-0.85,-0.54,-0.08
2303923984,-0.85,-0.54,-0.08
2303925998,-0.82,-0.54,-0.08
2303927981,-0.82,-0.54,-0.08
2303929979,-0.82,-0.54,-0.08
2303931977,-0.82,-0.54,-0.08
2303933981,-0.82,-0.54,-0.08
2303935979,-0.83,-0.55,-0.08
2303937977,-0.83,-0.55,-0.08
2303939976,-0.83,-0.55,-0.08
2303941974,-0.83,-0.55,-0.08
2303944004,-0.83,-0.55,-0.08
2303946000,-0.82,-0.55,-0.08
2303948003,-0.82,-0.55,-0.08
2303950006,-0.82,-0.55,-0.08
2303952020,-0.82,-0.55,-0.08
2303954008,-0.82,-0.55,-0.08
2303955981,-0.82,-0.54,-0.08
2303957980,-0.82,-0.54,-0.08
2303959976,-0.82,-0.54,-0.08
2303961981,-0.82,-0.54,-0.08
2303963979,-0.82,-0.54,-0.08
2303965977,-0.84,-0.55,-0.09
2303967977,-0.84,-0.55,-0.09
2303969975,-0.84,-0.55,-0.09
2303971979,-0.84,-0.55,-0.09
2303973977,-0.84,-0.55,-0.09
2303975996,-0.84,-0.55,-0.09
2303977989,-0.84,-0.55,-0.07
2303980008,-0.84,-0.55,-0.07
2303981977,-0.84,-0.55,-0.07
2303984019,-0.84,-0.55,-0.07
2303986013,-0.84,-0.55,-0.07
2303988007,-0.84,-0.56,-0.07
2303990062,-0.84,-0.56,-0.07
2303992034,-0.84,-0.56,-0.07
2303994012,-0.84,-0.56,-0.07
2303996008,-0.84,-0.56,-0.07
2303998007,-0.84,-0.55,-0.07
2304000012,-0.84,-0.55,-0.07
2304001998,-0.84,-0.55,-0.07
2304003975,-0.84,-0.55,-0.07
2304005976,-0.84,-0.55,-0.07
2304007977,-0.83,-0.55,-0.07
2304009984,-0.83,-0.55,-0.07
2304011980,-0.83,-0.55,-0.07
2304013980,-0.83,-0.55,-0.07
2304015976,-0.83,-0.55,-0.07
2304017981,-0.83,-0.55,-0.08
2304019980,-0.83,-0.55,-0.08
2304021978,-0.83,-0.55,-0.08
2304024009,-0.83,-0.55,-0.08
2304026012,-0.83,-0.55,-0.08
2304028005,-0.83,-0.56,-0.07
2304030005,-0.83,-0.56,-0.07
2304032011,-0.83,-0.56,-0.07
2304034003,-0.83,-0.56,-0.07
2304036013,-0.83,-0.56,-0.07
2304038060,-0.84,-0.55,-0.10
2304040025,-0.84,-0.55,-0.10
2304041975,-0.84,-0.55,-0.10
2304043975,-0.84,-0.55,-0.10
2304045974,-0.84,-0.55,-0.10
2304047976,-0.83,-0.55,-0.09
2304049976,-0.83,-0.55,-0.09
2304052000,-0.83,-0.55,-0.09
2304053975,-0.83,-0.55,-0.09
2304055974,-0.83,-0.55,-0.09
2304057976,-0.84,-0.55,-0.09
2304059974,-0.84,-0.55,-0.09
2304061976,-0.84,-0.55,-0.09
2304064018,-0.84,-0.55,-0.09
2304066003,-0.84,-0.55,-0.09
2304068002,-0.84,-0.55,-0.09
2304070004,-0.84,-0.55,-0.09
2304072002,-0.84,-0.55,-0.09
2304074004,-0.84,-0.55,-0.09
2304076012,-0.84,-0.55,-0.09
2304077983,-0.84,-0.54,-0.08
2304080004,-0.84,-0.54,-0.08
2304081973,-0.84,-0.54,-0.08
2304083974,-0.84,-0.54,-0.08
2304085974,-0.84,-0.54,-0.08
2304087973,-0.85,-0.54,-0.09
2304089975,-0.85,-0.54,-0.09
2304091975,-0.85,-0.54,-0.09
2304093977,-0.85,-0.54,-0.09
2304095995,-0.85,-0.54,-0.09
2304098007,-0.84,-0.52,-0.09
2304100074,-0.84,-0.52,-0.09
2304102045,-0.84,-0.52,-0.09
2304104018,-0.84,-0.52,-0.09
2304106005,-0.84,-0.52,-0.09
2304108005,-0.84,-0.52,-0.09
2304110004,-0.84,-0.52,-0.09
2304112008,-0.84,-0.52,-0.09
2304114002,-0.84,-0.52,-0.09
2304116007,-0.84,-0.52,-0.09
2304117979,-0.83,-0.53,-0.09
2304119977,-0.83,-0.53,-0.09
2304121981,-0.83,-0.53,-0.09
2304123980,-0.83,-0.53,-0.09
2304126090,-0.83,-0.53,-0.09
2304127986,-0.84,-0.55,-0.08
2304129977,-0.84,-0.55,-0.08
2304131980,-0.84,-0.55,-0.08
2304133980,-0.84,-0.55,-0.08
2304135979,-0.84,-0.55,-0.08
2304137976,-0.83,-0.57,-0.07
2304140025,-0.83,-0.57,-0.07
2304141976,-0.83,-0.57,-0.07
2304144021,-0.83,-0.57,-0.07
2304146009,-0.83,-0.57,-0.07
2304148007,-0.82,-0.57,-0.08
2304150006,-0.82,-0.57,-0.08
2304152032,-0.82,-0.57,-0.08
2304154006,-0.82,-0.57,-0.08
2304156002,-0.82,-0.57,-0.08
2304157990,-0.83,-0.56,-0.07
2304160069,-0.83,-0.56,-0.07
2304162019,-0.83,-0.56,-0.07
2304163977,-0.83,-0.56,-0.07
2304165977,-0.83,-0.56,-0.07
2304167977,-0.83,-0.56,-0.07
2304169976,-0.83,-0.56,-0.07
2304171978,-0.83,-0.56,-0.07
2304173976,-0.83,-0.56,-0.07
2304176091,-0.83,-0.56,-0.07
2304177990,-0.83,-0.56,-0.07
2304180010,-0.82,-0.56,-0.07
2304181976,-0.82,-0.56,-0.07
2304184021,-0.82,-0.56,-0.07
2304186004,-0.82,-0.56,-0.07
2304188004,-0.82,-0.56,-0.07
2304190005,-0.83,-0.57,-0.08
2304192006,-0.83,-0.57,-0.08
2304194007,-0.83,-0.57,-0.08
2304196011,-0.83,-0.57,-0.08
2304197988,-0.83,-0.57,-0.08
2304199978,-0.82,-0.57,-0.08
2304201999,-0.82,-0.57,-0.08
2304203977,-0.82,-0.57,-0.08
2304205975,-0.82,-0.57,-0.08
2304207981,-0.82,-0.57,-0.08
2304209979,-0.83,-0.56,-0.08
2304211975,-0.83,-0.56,-0.08
2304213979,-0.83,-0.56,-0.08
2304215980,-0.83,-0.56,-0.08
2304217988,-0.83,-0.56,-0.08
2304220137,-0.84,-0.55,-0.10
2304222016,-0.84,-0.55,-0.10
2304224018,-0.84,-0.55,-0.10
2304226177,-0.84,-0.55,-0.10
2304228050,-0.84,-0.55,-0.10
2304230011,-0.83,-0.55,-0.10
2304232005,-0.83,-0.55,-0.10
2304234005,-0.83,-0.55,-0.10
2304236008,-0.83,-0.55,-0.10
2304238011,-0.83,-0.55,-0.10
2304239986,-0.83,-0.55,-0.11
2304242024,-0.83,-0.55,-0.11
2304243980,-0.83,-0.55,-0.11
2304245984,-0.83,-0.55,-0.11
2304247979,-0.83,-0.55,-0.11
2304249979,-0.84,-0.55,-0.11
2304252006,-0.84,-0.55,-0.11
2304253977,-0.84,-0.55,-0.11
2304255977,-0.84,-0.55,-0.11
2304257975,-0.84,-0.55,-0.11
2304259980,-0.84,-0.55,-0.12
2304261977,-0.84,-0.55,-0.12
2304264018,-0.84,-0.55,-0.12
2304266046,-0.84,-0.55,-0.12
2304268033,-0.84,-0.55,-0.12
2304270017,-0.84,-0.54,-0.11
2304272007,-0.84,-0.54,-0.11
2304274003,-0.84,-0.54,-0.11
2304276027,-0.84,-0.54,-0.11
2304278013,-0.84,-0.54,-0.11
2304280013,-0.84,-0.54,-0.10
2304281974,-0.84,-0.54,-0.10
2304283979,-0.84,-0.54,-0.10
2304285975,-0.84,-0.54,-0.10
2304287978,-0.84,-0.54,-0.10
2304289975,-0.84,-0.54,-0.11
2304291975,-0.84,-0.54,-0.11
2304293978,-0.84,-0.54,-0.11
2304295992,-0.84,-0.54,-0.11
2304297989,-0.84,-0.54,-0.11
2304299975,-0.84,-0.54,-0.10
2304302002,-0.84,-0.54,-0.10
2304304019,-0.84,-0.54,-0.10
2304306008,-0.84,-0.54,-0.10
2304308007,-0.84,-0.54,-0.10
2304310008,-0.84,-0.54,-0.09
2304312009,-0.84,-0.54,-0.09
2304314012,-0.84,-0.54,-0.09
2304315985,-0.84,-0.54,-0.09
2304317980,-0.84,-0.54,-0.09
2304319977,-0.83,-0.55,-0.09
2304321979,-0.83,-0.55,-0.09
2304323980,-0.83,-0.55,-0.09
2304325997,-0.83,-0.55,-0.09
2304327982,-0.83,-0.55,-0.09
2304329981,-0.83,-0.55,-0.08
2304331981,-0.83,-0.55,-0.08
2304333981,-0.83,-0.55,-0.08
2304335981,-0.83,-0.55,-0.08
2304337979,-0.83,-0.55,-0.08
2304339979,-0.83,-0.56,-0.07
2304341979,-0.83,-0.56,-0.07
2304344015,-0.83,-0.56,-0.07
2304346006,-0.83,-0.56,-0.07
2304348005,-0.83,-0.56,-0.07
2304350006,-0.83,-0.57,-0.07
2304352100,-0.83,-0.57,-0.07
2304354029,-0.83,-0.57,-0.07
2304356008,-0.83,-0.57,-0.07
2304357980,-0.83,-0.57,-0.07
2304359979,-0.83,-0.57,-0.07
2304361976,-0.82,-0.57,-0.08
2304363976,-0.82,-0.57,-0.08
2304365979,-0.82,-0.57,-0.08
2304367974,-0.82,-0.57,-0.08
2304369978,-0.82,-0.57,-0.08
2304371977,-0.82,-0.56,-0.08
2304373980,-0.82,-0.56,-0.08
2304375997,-0.82,-0.56,-0.08
2304377989,-0.82,-0.56,-0.08
2304380004,-0.82,-0.56,-0.08
2304381990,-0.83,-0.57,-0.08
2304384051,-0.83,-0.57,-0.08
2304386008,-0.83,-0.57,-0.08
2304388009,-0.83,-0.57,-0.08
2304390006,-0.83,-0.57,-0.08
2304392004,-0.83,-0.55,-0.09
2304394002,-0.83,-0.55,-0.09
2304396009,-0.83,-0.55,-0.09
2304397993,-0.83,-0.55,-0.09
2304399979,-0.83,-0.55,-0.09
2304402003,-0.83,-0.54,-0.08
2304403981,-0.83,-0.54,-0.08
2304405979,-0.83,-0.54,-0.08
2304407981,-0.83,-0.54,-0.08
2304409978,-0.83,-0.54,-0.08
2304411980,-0.84,-0.53,-0.08
2304413977,-0.84,-0.53,-0.08
2304415978,-0.84,-0.53,-0.08
2304417977,-0.84,-0.53,-0.08
2304419977,-0.84,-0.53,-0.08
2304421980,-0.84,-0.54,-0.08
2304424007,-0.84,-0.54,-0.08
2304426014,-0.84,-0.54,-0.08
2304428012,-0.84,-0.54,-0.08
2304430009,-0.84,-0.54,-0.08
2304432006,-0.84,-0.55,-0.08
2304434006,-0.84,-0.55,-0.08
2304435977,-0.84,-0.55,-0.08
2304437978,-0.84,-0.55,-0.08
2304439978,-0.84,-0.55,-0.08
2304441975,-0.84,-0.54,-0.08
2304444010,-0.84,-0.54,-0.08
2304446020,-0.84,-0.54,-0.08
2304447976,-0.84,-0.54,-0.08
2304449979,-0.84,-0.54,-0.08
2304452000,-0.83,-0.54,-0.09
2304454062,-0.83,-0.54,-0.09
2304456020,-0.83,-0.54,-0.09
2304457976,-0.83,-0.54,-0.09
2304459977,-0.83,-0.54,-0.09
2304461975,-0.84,-0.54,-0.09
2304464018,-0.84,-0.54,-0.09
2304466001,-0.84,-0.54,-0.09
2304468004,-0.84,-0.54,-0.09
2304470007,-0.84,-0.54,-0.09
2304472002,-0.84,-0.54,-0.09
2304474004,-0.84,-0.54,-0.09
2304476022,-0.84,-0.54,-0.09
2304477987,-0.84,-0.54,-0.09
2304480005,-0.84,-0.54,-0.09
2304481975,-0.83,-0.55,-0.09
2304483980,-0.83,-0.55,-0.09
2304485995,-0.83,-0.55,-0.09
2304487980,-0.83,-0.55,-0.09
2304489976,-0.83,-0.55,-0.09
2304491984,-0.83,-0.55,-0.09
2304493997,-0.83,-0.55,-0.09
2304495993,-0.83,-0.55,-0.09
2304497987,-0.83,-0.55,-0.09
2304500046,-0.83,-0.55,-0.09
2304502059,-0.83,-0.55,-0.09
2304504020,-0.83,-0.55,-0.09
2304506002,-0.83,-0.55,-0.09
2304508005,-0.83,-0.55,-0.09
2304510004,-0.83,-0.55,-0.09
2304512003,-0.83,-0.56,-0.09
2304514007,-0.83,-0.56,-0.09
2304516005,-0.83,-0.56,-0.09
2304517981,-0.83,-0.56,-0.09
2304519985,-0.83,-0.56,-0.09
2304521981,-0.82,-0.56,-0.09
2304523979,-0.82,-0.56,-0.09
2304526091,-0.82,-0.56,-0.09
2304527988,-0.82,-0.56,-0.09
2304529979,-0.82,-0.56,-0.09
2304531978,-0.83,-0.56,-0.10
2304533976,-0.83,-0.56,-0.10
2304535977,-0.83,-0.56,-0.10
2304537979,-0.83,-0.56,-0.10
2304539975,-0.83,-0.56,-0.10
2304541978,-0.82,-0.56,-0.09
2304544013,-0.82,-0.56,-0.09
2304546007,-0.82,-0.56,-0.09
2304548007,-0.82,-0.56,-0.09
2304550002,-0.82,-0.56,-0.09
2304552078,-0.83,-0.56,-0.10
2304554050,-0.83,-0.56,-0.10
2304556046,-0.83,-0.56,-0.10
2304558004,-0.83,-0.56,-0.10
2304560011,-0.83,-0.56,-0.10
2304561977,-0.83,-0.56,-0.10
2304563984,-0.83,-0.55,-0.10
2304565980,-0.83,-0.55,-0.10
2304567980,-0.83,-0.55,-0.10
2304569976,-0.83,-0.55,-0.10
2304571977,-0.83,-0.55,-0.10
2304573982,-0.84,-0.56,-0.10
2304576102,-0.84,-0.56,-0.10
2304577990,-0.84,-0.56,-0.10
2304580008,-0.84,-0.56,-0.10
2304581980,-0.84,-0.56,-0.10
2304584016,-0.83,-0.55,-0.11
2304586008,-0.83,-0.55,-0.11
2304588008,-0.83,-0.55,-0.11
2304590003,-0.83,-0.55,-0.11
2304592009,-0.83,-0.55,-0.11
2304594012,-0.84,-0.55,-0.11
2304595993,-0.84,-0.55,-0.11
2304597988,-0.84,-0.55,-0.11
2304599976,-0.84,-0.55,-0.11
2304601999,-0.84,-0.55,-0.11
2304603977,-0.84,-0.55,-0.10
2304605978,-0.84,-0.55,-0.10
2304607980,-0.84,-0.55,-0.10
2304610069,-0.84,-0.55,-0.10
2304612025,-0.84,-0.55,-0.10
2304613979,-0.83,-0.55,-0.10
2304615978,-0.83,-0.55,-0.10
2304617973,-0.83,-0.55,-0.10
2304619977,-0.83,-0.55,-0.10
2304622050,-0.83,-0.55,-0.10
2304624021,-0.83,-0.55,-0.11
2304626023,-0.83,-0.55,-0.11
2304628012,-0.83,-0.55,-0.11
2304630007,-0.83,-0.55,-0.11
2304632008,-0.83,-0.55,-0.11
2304634009,-0.83,-0.55,-0.11
2304636005,-0.83,-0.55,-0.11
2304637981,-0.83,-0.55,-0.11
2304639988,-0.83,-0.55,-0.11
2304641985,-0.83,-0.55,-0.11
2304643980,-0.84,-0.55,-0.09
2304645976,-0.84,-0.55,-0.09
2304647981,-0.84,-0.55,-0.09
2304650023,-0.84,-0.55,-0.09
2304652046,-0.84,-0.55,-0.09
2304653979,-0.83,-0.54,-0.08
2304655979,-0.83,-0.54,-0.08
2304658056,-0.83,-0.54,-0.08
2304660017,-0.83,-0.54,-0.08
2304661979,-0.83,-0.54,-0.08
2304664021,-0.83,-0.55,-0.08
2304666003,-0.83,-0.55,-0.08
2304668000,-0.83,-0.55,-0.08
2304670007,-0.83,-0.55,-0.08
2304672005,-0.83,-0.55,-0.08
2304674005,-0.82,-0.55,-0.07
2304676018,-0.82,-0.55,-0.07
2304677984,-0.82,-0.55,-0.07
2304680010,-0.82,-0.55,-0.07
2304681979,-0.82,-0.55,-0.07
2304683976,-0.83,-0.56,-0.07
2304685976,-0.83,-0.56,-0.07
2304687979,-0.83,-0.56,-0.07
2304689974,-0.83,-0.56,-0.07
2304691979,-0.83,-0.56,-0.07
2304693980,-0.83,-0.55,-0.08
2304695996,-0.83,-0.55,-0.08
2304697990,-0.83,-0.55,-0.08
2304699980,-0.83,-0.55,-0.08
2304701993,-0.83,-0.55,-0.08
2304704014,-0.83,-0.55,-0.07
2304706004,-0.83,-0.55,-0.07
2304708000,-0.83,-0.55,-0.07
2304710005,-0.83,-0.55,-0.07
2304711998,-0.83,-0.55,-0.07
2304714005,-0.83,-0.55,-0.07
2304716002,-0.83,-0.55,-0.07
2304717979,-0.83,-0.55,-0.07
2304719977,-0.83,-0.55,-0.07
2304721977,-0.83,-0.55,-0.07
2304723980,-0.83,-0.55,-0.08
2304725998,-0.83,-0.55,-0.08
2304727985,-0.83,-0.55,-0.08
2304729977,-0.83,-0.55,-0.08
2304731976,-0.83,-0.55,-0.08
2304733983,-0.83,-0.55,-0.08
2304735991,-0.84,-0.55,-0.08
2304737976,-0.84,-0.55,-0.08
2304739975,-0.84,-0.55,-0.08
2304741981,-0.84,-0.55,-0.08
2304744013,-0.84,-0.55,-0.08
2304746005,-0.84,-0.54,-0.09
2304748004,-0.84,-0.54,-0.09
2304750073,-0.84,-0.54,-0.09
2304752055,-0.84,-0.54,-0.09
2304754007,-0.84,-0.54,-0.09
2304756002,-0.83,-0.54,-0.08
2304758006,-0.83,-0.54,-0.08
2304759977,-0.83,-0.54,-0.08
2304761975,-0.83,-0.54,-0.08
2304763980,-0.83,-0.54,-0.08
2304765975,-0.84,-0.54,-0.08
2304767977,-0.84,-0.54,-0.08
2304769980,-0.84,-0.54,-0.08
2304771984,-0.84,-0.54,-0.08
2304773984,-0.84,-0.54,-0.08
2304775995,-0.84,-0.54,-0.09
2304777984,-0.84,-0.54,-0.09
2304780009,-0.84,-0.54,-0.09
2304782037,-0.84,-0.54,-0.09
2304784013,-0.84,-0.54,-0.09
2304786002,-0.84,-0.54,-0.09
2304788000,-0.84,-0.54,-0.09
2304790003,-0.84,-0.54,-0.09
2304792001,-0.84,-0.54,-0.09
2304794005,-0.84,-0.54,-0.09
2304796009,-0.84,-0.54,-0.09
2304797991,-0.84,-0.54,-0.09
2304799975,-0.84,-0.54,-0.09
2304802001,-0.84,-0.54,-0.09
2304803977,-0.84,-0.54,-0.09
2304805979,-0.83,-0.55,-0.08
2304807975,-0.83,-0.55,-0.08
2304809980,-0.83,-0.55,-0.08
2304811976,-0.83,-0.55,-0.08
2304813977,-0.83,-0.55,-0.08
2304815977,-0.84,-0.55,-0.09
2304817977,-0.84,-0.55,-0.09
2304819975,-0.84,-0.55,-0.09
2304821974,-0.84,-0.55,-0.09
2304824009,-0.84,-0.55,-0.09
2304826015,-0.82,-0.55,-0.09
2304828011,-0.82,-0.55,-0.09
2304830006,-0.82,-0.55,-0.09
2304832002,-0.82,-0.55,-0.09
2304834004,-0.82,-0.55,-0.09
2304835993,-0.84,-0.55,-0.09
2304837981,-0.84,-0.55,-0.09
2304839979,-0.84,-0.55,-0.09
2304841978,-0.84,-0.55,-0.09
2304843975,-0.84,-0.55,-0.09
2304846032,-0.83,-0.56,-0.09
2304848026,-0.83,-0.56,-0.09
2304849992,-0.83,-0.56,-0.09
2304851999,-0.83,-0.56,-0.09
2304853989,-0.83,-0.56,-0.09
2304856019,-0.83,-0.56,-0.09
2304857979,-0.83,-0.56,-0.09
2304859976,-0.83,-0.56,-0.09
2304861979,-0.83,-0.56,-0.09
2304864023,-0.83,-0.56,-0.09
2304866005,-0.83,-0.56,-0.09
2304868005,-0.83,-0.56,-0.09
2304870007,-0.83,-0.56,-0.09
2304872003,-0.83,-0.56,-0.09
2304874005,-0.83,-0.56,-0.09
2304876017,-0.83,-0.56,-0.09
2304877983,-0.83,-0.56,-0.09
2304880013,-0.83,-0.56,-0.09
2304881975,-0.83,-0.56,-0.09
2304883975,-0.83,-0.56,-0.09
2304885974,-0.82,-0.56,-0.09
2304887979,-0.82,-0.56,-0.09
2304889976,-0.82,-0.56,-0.09
2304891977,-0.82,-0.56,-0.09
2304893977,-0.82,-0.56,-0.09
2304895992,-0.82,-0.57,-0.10
2304897988,-0.82,-0.57,-0.10
2304899978,-0.82,-0.57,-0.10
2304901992,-0.82,-0.57,-0.10
2304904021,-0.82,-0.57,-0.10
2304906004,-0.81,-0.60,-0.11
2304908003,-0.81,-0.60,-0.11
2304910001,-0.81,-0.60,-0.11
2304912006,-0.81,-0.60,-0.11
2304914003,-0.81,-0.60,-0.11
2304916002,-0.82,-0.58,-0.10
2304917978,-0.82,-0.58,-0.10
2304919981,-0.82,-0.58,-0.10
2304921979,-0.82,-0.58,-0.10
2304923979,-0.82,-0.58,-0.10
2304926088,-0.82,-0.58,-0.10
2304927987,-0.84,-0.58,-0.10
2304929976,-0.84,-0.58,-0.10
2304931977,-0.84,-0.58,-0.10
2304933978,-0.84,-0.58,-0.10
2304935977,-0.84,-0.58,-0.10
2304937978,-0.86,-0.56,-0.10
2304939980,-0.86,-0.56,-0.10
2304941975,-0.86,-0.56,-0.10
2304944020,-0.86,-0.56,-0.10
2304946062,-0.86,-0.56,-0.10
2304948041,-0.82,-0.52,-0.11
2304950004,-0.82,-0.52,-0.11
2304952037,-0.82,-0.52,-0.11
2304954004,-0.82,-0.52,-0.11
2304956004,-0.82,-0.52,-0.11
2304958042,-0.85,-0.52,-0.07
2304960013,-0.85,-0.52,-0.07
2304961980,-0.85,-0.52,-0.07
2304963975,-0.85,-0.52,-0.07
2304965977,-0.85,-0.52,-0.07
2304967986,-0.83,-0.51,-0.09
2304969977,-0.83,-0.51,-0.09
2304971980,-0.83,-0.51,-0.09
2304973978,-0.83,-0.51,-0.09
2304976097,-0.83,-0.51,-0.09
2304977989,-0.86,-0.54,-0.09
2304980012,-0.86,-0.54,-0.09
2304981977,-0.86,-0.54,-0.09
2304984012,-0.86,-0.54,-0.09
2304986018,-0.86,-0.54,-0.09
2304988008,-0.83,-0.54,-0.09
2304990006,-0.83,-0.54,-0.09
2304992005,-0.83,-0.54,-0.09
2304994004,-0.83,-0.54,-0.09
2304996008,-0.83,-0.54,-0.09
2304997989,-0.83,-0.56,-0.09
2305000044,-0.83,-0.56,-0.09
2305002061,-0.83,-0.56,-0.09
2305003979,-0.83,-0.56,-0.09
2305005978,-0.83,-0.56,-0.09
2305007976,-0.83,-0.55,-0.08
2305009976,-0.83,-0.55,-0.08
2305011977,-0.83,-0.55,-0.08
2305013977,-0.83,-0.55,-0.08
2305015976,-0.83,-0.55,-0.08
2305017976,-0.84,-0.54,-0.08
2305019977,-0.84,-0.54,-0.08
2305021976,-0.84,-0.54,-0.08
2305024013,-0.84,-0.54,-0.08
2305026016,-0.84,-0.54,-0.08
2305028007,-0.83,-0.54,-0.08
2305030005,-0.83,-0.54,-0.08
2305032003,-0.83,-0.54,-0.08
2305034004,-0.83,-0.54,-0.08
2305036006,-0.83,-0.54,-0.08
2305037977,-0.84,-0.54,-0.09
2305039979,-0.84,-0.54,-0.09
2305041980,-0.84,-0.54,-0.09
2305043980,-0.84,-0.54,-0.09
2305046046,-0.84,-0.54,-0.09
2305048035,-0.84,-0.54,-0.07
2305049978,-0.84,-0.54,-0.07
2305051998,-0.84,-0.54,-0.07
2305053973,-0.84,-0.54,-0.07
2305055977,-0.84,-0.54,-0.07
2305057979,-0.83,-0.55,-0.07
2305059979,-0.83,-0.55,-0.07
2305061976,-0.83,-0.55,-0.07
2305064019,-0.83,-0.55,-0.07
2305066000,-0.83,-0.55,-0.07
2305068004,-0.83,-0.55,-0.07
2305070003,-0.83,-0.55,-0.07
2305072007,-0.83,-0.55,-0.07
2305074007,-0.83,-0.55,-0.07
2305076012,-0.83,-0.55,-0.07
2305077981,-0.84,-0.55,-0.09
2305080011,-0.84,-0.55,-0.09
2305081976,-0.84,-0.55,-0.09
2305083975,-0.84,-0.55,-0.09
2305085979,-0.84,-0.55,-0.09
2305087975,-0.84,-0.54,-0.08
2305089975,-0.84,-0.54,-0.08
2305091977,-0.84,-0.54,-0.08
2305093979,-0.84,-0.54,-0.08
2305095996,-0.84,-0.54,-0.08
2305097989,-0.83,-0.55,-0.09
2305099984,-0.83,-0.55,-0.09
2305101994,-0.83,-0.55,-0.09
2305104013,-0.83,-0.55,-0.09
2305106008,-0.83,-0.55,-0.09
2305108003,-0.83,-0.55,-0.09
2305110001,-0.83,-0.55,-0.09
2305112004,-0.83,-0.55,-0.09
2305114024,-0.83,-0.55,-0.09
2305116110,-0.83,-0.55,-0.09
2305118031,-0.83,-0.55,-0.09
2305119978,-0.84,-0.54,-0.09
2305121976,-0.84,-0.54,-0.09
2305123970,-0.84,-0.54,-0.09
2305126004,-0.84,-0.54,-0.09
2305127985,-0.84,-0.54,-0.09
2305129977,-0.84,-0.55,-0.09
2305131975,-0.84,-0.55,-0.09
2305133977,-0.84,-0.55,-0.09
2305135976,-0.84,-0.55,-0.09
2305137976,-0.84,-0.55,-0.09
2305139974,-0.83,-0.55,-0.10
2305141977,-0.83,-0.55,-0.10
2305144009,-0.83,-0.55,-0.10
2305146005,-0.83,-0.55,-0.10
2305148002,-0.83,-0.55,-0.10
2305150006,-0.83,-0.54,-0.10
2305152027,-0.83,-0.54,-0.10
2305154007,-0.83,-0.54,-0.10
2305156001,-0.83,-0.54,-0.10
2305157977,-0.83,-0.54,-0.10
2305159976,-0.83,-0.55,-0.10
2305161975,-0.83,-0.55,-0.10
2305164032,-0.83,-0.55,-0.10
2305165985,-0.83,-0.55,-0.10
2305167978,-0.83,-0.55,-0.10
2305169974,-0.83,-0.55,-0.09
2305172079,-0.83,-0.55,-0.09
2305174013,-0.83,-0.55,-0.09
2305176002,-0.83,-0.55,-0.09
2305177987,-0.83,-0.55,-0.09
2305180014,-0.82,-0.56,-0.09
2305181977,-0.82,-0.56,-0.09
2305184018,-0.82,-0.56,-0.09
2305186005,-0.82,-0.56,-0.09
2305188005,-0.82,-0.56,-0.09
2305190002,-0.82,-0.56,-0.10
2305192005,-0.82,-0.56,-0.10
2305194008,-0.82,-0.56,-0.10
2305196011,-0.82,-0.56,-0.10
2305197987,-0.82,-0.56,-0.10
2305199975,-0.83,-0.56,-0.09
2305202000,-0.83,-0.56,-0.09
2305203978,-0.83,-0.56,-0.09
2305205978,-0.83,-0.56,-0.09
2305207976,-0.83,-0.56,-0.09
2305209976,-0.83,-0.56,-0.09
2305211979,-0.83,-0.56,-0.09
2305213980,-0.83,-0.56,-0.09
2305215977,-0.83,-0.56,-0.09
2305217978,-0.83,-0.56,-0.09
2305219979,-0.82,-0.56,-0.09
2305221978,-0.82,-0.56,-0.09
2305224011,-0.82,-0.56,-0.09
2305226017,-0.82,-0.56,-0.09
2305228008,-0.82,-0.56,-0.09
2305230004,-0.83,-0.56,-0.09
2305232006,-0.83,-0.56,-0.09
2305234006,-0.83,-0.56,-0.09
2305236009,-0.83,-0.56,-0.09
2305237979,-0.83,-0.56,-0.09
2305239976,-0.84,-0.55,-0.09
2305241976,-0.84,-0.55,-0.09
2305243981,-0.84,-0.55,-0.09
2305245976,-0.84,-0.55,-0.09
2305247977,-0.84,-0.55,-0.09
2305249984,-0.84,-0.55,-0.09
2305251997,-0.84,-0.55,-0.09
2305253977,-0.84,-0.55,-0.09
2305255979,-0.84,-0.55,-0.09
2305257977,-0.84,-0.55,-0.09
2305259979,-0.84,-0.54,-0.08
2305261979,-0.84,-0.54,-0.08
2305264011,-0.84,-0.54,-0.08
2305266004,-0.84,-0.54,-0.08
2305268005,-0.84,-0.54,-0.08
2305270059,-0.84,-0.54,-0.08
2305272029,-0.84,-0.54,-0.08
2305274008,-0.84,-0.54,-0.08
2305276052,-0.84,-0.54,-0.08
2305278005,-0.84,-0.54,-0.08
2305280037,-0.84,-0.54,-0.08
2305281975,-0.84,-0.54,-0.08
2305283977,-0.84,-0.54,-0.08
2305285980,-0.84,-0.54,-0.08
2305287976,-0.84,-0.54,-0.08
2305289979,-0.84,-0.54,-0.08
2305291977,-0.84,-0.54,-0.08
2305293981,-0.84,-0.54,-0.08
2305295995,-0.84,-0.54,-0.08
2305297987,-0.84,-0.54,-0.08
2305299973,-0.84,-0.54,-0.08
2305302002,-0.83,-0.54,-0.08
2305304013,-0.83,-0.54,-0.08
2305306005,-0.83,-0.54,-0.08
2305308003,-0.83,-0.54,-0.08
2305310005,-0.83,-0.54,-0.08
2305312003,-0.84,-0.54,-0.08
2305314003,-0.84,-0.54,-0.08
2305315986,-0.84,-0.54,-0.08
2305317981,-0.84,-0.54,-0.08
2305319975,-0.84,-0.54,-0.08
2305321981,-0.84,-0.55,-0.08
2305323979,-0.84,-0.55,-0.08
2305326068,-0.84,-0.55,-0.08
2305328019,-0.84,-0.55,-0.08
2305329975,-0.84,-0.55,-0.08
2305331975,-0.84,-0.55,-0.08
2305333974,-0.84,-0.55,-0.08
2305335978,-0.84,-0.55,-0.08
2305337975,-0.84,-0.55,-0.08
2305339974,-0.84,-0.55,-0.08
2305341978,-0.83,-0.54,-0.08
2305344020,-0.83,-0.54,-0.08
2305346002,-0.83,-0.54,-0.08
2305348005,-0.83,-0.54,-0.08
2305350008,-0.83,-0.54,-0.08
2305352026,-0.83,-0.55,-0.08
2305354005,-0.83,-0.55,-0.08
2305356004,-0.83,-0.55,-0.08
2305357984,-0.83,-0.55,-0.08
2305359981,-0.83,-0.55,-0.08
2305361980,-0.84,-0.54,-0.07
2305363974,-0.84,-0.54,-0.07
2305365994,-0.84,-0.54,-0.07
2305368027,-0.84,-0.54,-0.07
2305369980,-0.84,-0.54,-0.07
2305371982,-0.84,-0.55,-0.08
2305374052,-0.84,-0.55,-0.08
2305376023,-0.84,-0.55,-0.08
2305377981,-0.84,-0.55,-0.08
2305380009,-0.84,-0.55,-0.08
2305381976,-0.83,-0.55,-0.07
2305384016,-0.83,-0.55,-0.07
2305386003,-0.83,-0.55,-0.07
2305388004,-0.83,-0.55,-0.07
2305390002,-0.83,-0.55,-0.07
2305392007,-0.84,-0.55,-0.08
2305394004,-0.84,-0.55,-0.08
2305396010,-0.84,-0.55,-0.08
2305397987,-0.84,-0.55,-0.08
2305399975,-0.84,-0.55,-0.08
2305402000,-0.84,-0.54,-0.07
2305403977,-0.84,-0.54,-0.07
2305405977,-0.84,-0.54,-0.07
2305407979,-0.84,-0.54,-0.07
2305409976,-0.84,-0.54,-0.07
2305411976,-0.84,-0.55,-0.08
2305413975,-0.84,-0.55,-0.08
2305415976,-0.84,-0.55,-0.08
2305417979,-0.84,-0.55,-0.08
2305419978,-0.84,-0.55,-0.08
2305421979,-0.83,-0.55,-0.07
2305424016,-0.83,-0.55,-0.07
2305426021,-0.83,-0.55,-0.07
2305428006,-0.83,-0.55,-0.07
2305430004,-0.83,-0.55,-0.07
2305432043,-0.84,-0.54,-0.08
2305434038,-0.84,-0.54,-0.08
2305436005,-0.84,-0.54,-0.08
2305438004,-0.84,-0.54,-0.08
2305439993,-0.84,-0.54,-0.08
2305441985,-0.82,-0.55,-0.08
2305443980,-0.82,-0.55,-0.08
2305445979,-0.82,-0.55,-0.08
2305447980,-0.82,-0.55,-0.08
2305449977,-0.82,-0.55,-0.08
2305452003,-0.84,-0.54,-0.09
2305453980,-0.84,-0.54,-0.09
2305455979,-0.84,-0.54,-0.09
2305457973,-0.84,-0.54,-0.09
2305459978,-0.84,-0.54,-0.09
2305461975,-0.83,-0.55,-0.08
2305464014,-0.83,-0.55,-0.08
2305466005,-0.83,-0.55,-0.08
2305468002,-0.83,-0.55,-0.08
2305470051,-0.83,-0.55,-0.08
2305472006,-0.84,-0.54,-0.09
2305474003,-0.84,-0.54,-0.09
2305476023,-0.84,-0.54,-0.09
2305477987,-0.84,-0.54,-0.09
2305480013,-0.84,-0.54,-0.09
2305482066,-0.83,-0.55,-0.08
2305484017,-0.83,-0.55,-0.08
2305485991,-0.83,-0.55,-0.08
2305487979,-0.83,-0.55,-0.08
2305489978,-0.83,-0.55,-0.08
2305491988,-0.83,-0.55,-0.08
2305493979,-0.84,-0.55,-0.08
2305495992,-0.84,-0.55,-0.08
2305497985,-0.84,-0.55,-0.08
2305499976,-0.84,-0.55,-0.08
2305502001,-0.84,-0.55,-0.08
2305504020,-0.82,-0.55,-0.09
2305506007,-0.82,-0.55,-0.09
2305508003,-0.82,-0.55,-0.09
2305510002,-0.82,-0.55,-0.09
2305512005,-0.82,-0.55,-0.09
2305514004,-0.84,-0.55,-0.08
2305516006,-0.84,-0.55,-0.08
2305517984,-0.84,-0.55,-0.08
2305519984,-0.84,-0.55,-0.08
2305521976,-0.84,-0.55,-0.08
2305523975,-0.83,-0.54,-0.08
2305525997,-0.83,-0.54,-0.08
2305527986,-0.83,-0.54,-0.08
2305529977,-0.83,-0.54,-0.08
2305531977,-0.83,-0.54,-0.08
2305533977,-0.83,-0.55,-0.09
2305535981,-0.83,-0.55,-0.09
2305537981,-0.83,-0.55,-0.09
2305539977,-0.83,-0.55,-0.09
2305541979,-0.83,-0.55,-0.09
2305544008,-0.84,-0.55,-0.07
2305546005,-0.84,-0.55,-0.07
2305548004,-0.84,-0.55,-0.07
2305550003,-0.84,-0.55,-0.07
2305552026,-0.84,-0.55,-0.07
2305554006,-0.82,-0.56,-0.09
2305556002,-0.82,-0.56,-0.09
2305557981,-0.82,-0.56,-0.09
2305559978,-0.82,-0.56,-0.09
2305561980,-0.82,-0.56,-0.09
2305563977,-0.83,-0.55,-0.08
2305565975,-0.83,-0.55,-0.08
2305567984,-0.83,-0.55,-0.08
2305569984,-0.83,-0.55,-0.08
2305571981,-0.83,-0.55,-0.08
2305573984,-0.83,-0.56,-0.09
2305576001,-0.83,-0.56,-0.09
2305577984,-0.83,-0.56,-0.09
2305580013,-0.83,-0.56,-0.09
2305581978,-0.83,-0.56,-0.09
2305584013,-0.83,-0.55,-0.10
2305586006,-0.83,-0.55,-0.10
2305588003,-0.83,-0.55,-0.10
2305590101,-0.83,-0.55,-0.10
2305592029,-0.83,-0.55,-0.10
2305594028,-0.83,-0.55,-0.10
2305596038,-0.83,-0.55,-0.10
2305598014,-0.83,-0.55,-0.10
2305600013,-0.83,-0.55,-0.10
2305602000,-0.83,-0.55,-0.10
2305603979,-0.84,-0.54,-0.09
2305605979,-0.84,-0.54,-0.09
2305607979,-0.84,-0.54,-0.09
2305609977,-0.84,-0.54,-0.09
2305611979,-0.84,-0.54,-0.09
2305613978,-0.83,-0.55,-0.09
2305615981,-0.83,-0.55,-0.09
2305617975,-0.83,-0.55,-0.09
2305619979,-0.83,-0.55,-0.09
2305622068,-0.83,-0.55,-0.09
2305624016,-0.83,-0.55,-0.09
2305626014,-0.83,-0.55,-0.09
2305628010,-0.83,-0.55,-0.09
2305630008,-0.83,-0.55,-0.09
2305632006,-0.83,-0.55,-0.09
2305634004,-0.83,-0.55,-0.09
2305636019,-0.83,-0.55,-0.09
2305638060,-0.83,-0.55,-0.09
2305640009,-0.83,-0.55,-0.09
2305641978,-0.83,-0.55,-0.09
2305643977,-0.84,-0.54,-0.09
2305645979,-0.84,-0.54,-0.09
2305647976,-0.84,-0.54,-0.09
2305649976,-0.84,-0.54,-0.09
2305651997,-0.84,-0.54,-0.09
2305653979,-0.83,-0.55,-0.09
2305655979,-0.83,-0.55,-0.09
2305657978,-0.83,-0.55,-0.09
2305659979,-0.83,-0.55,-0.09
2305661974,-0.83,-0.55,-0.09
2305664015,-0.83,-0.55,-0.09
2305666005,-0.83,-0.55,-0.09
2305668006,-0.83,-0.55,-0.09
2305670008,-0.83,-0.55,-0.09
2305672003,-0.83,-0.55,-0.09
2305674004,-0.83,-0.55,-0.09
2305676048,-0.84,-0.55,-0.09
2305677986,-0.84,-0.55,-0.09
2305680004,-0.84,-0.55,-0.09
2305681989,-0.84,-0.55,-0.09
2305684116,-0.84,-0.55,-0.09
2305686019,-0.84,-0.55,-0.09
2305687984,-0.84,-0.55,-0.09
2305689981,-0.84,-0.55,-0.09
2305691977,-0.84,-0.55,-0.09
2305693976,-0.84,-0.55,-0.09
2305695996,-0.83,-0.55,-0.09
2305697986,-0.83,-0.55,-0.09
2305699973,-0.83,-0.55,-0.09
2305702006,-0.83,-0.55,-0.09
2305704024,-0.83,-0.55,-0.09
2305706002,-0.84,-0.54,-0.08
2305708003,-0.84,-0.54,-0.08
2305710005,-0.84,-0.54,-0.08
2305712007,-0.84,-0.54,-0.08
2305714005,-0.84,-0.54,-0.08
2305716008,-0.84,-0.55,-0.07
2305717979,-0.84,-0.55,-0.07
2305719980,-0.84,-0.55,-0.07
2305721977,-0.84,-0.55,-0.07
2305723975,-0.84,-0.55,-0.07
2305726001,-0.84,-0.54,-0.09
2305727981,-0.84,-0.54,-0.09
2305729975,-0.84,-0.54,-0.09
2305731975,-0.84,-0.54,-0.09
2305733977,-0.84,-0.54,-0.09
2305735992,-0.84,-0.54,-0.08
2305737977,-0.84,-0.54,-0.08
2305739978,-0.84,-0.54,-0.08
2305741976,-0.84,-0.54,-0.08
2305744011,-0.84,-0.54,-0.08
2305746011,-0.83,-0.55,-0.08
2305748008,-0.83,-0.55,-0.08
2305750001,-0.83,-0.55,-0.08
2305752115,-0.83,-0.55,-0.08
2305754010,-0.83,-0.55,-0.08
2305756008,-0.84,-0.55,-0.08
2305758060,-0.84,-0.55,-0.08
2305760024,-0.84,-0.55,-0.08
2305761976,-0.84,-0.55,-0.08
2305763977,-0.84,-0.55,-0.08
2305765978,-0.84,-0.55,-0.09
2305767976,-0.84,-0.55,-0.09
2305769975,-0.84,-0.55,-0.09
2305771974,-0.84,-0.55,-0.09
2305773978,-0.84,-0.55,-0.09
2305776091,-0.83,-0.54,-0.09
2305778021,-0.83,-0.54,-0.09
2305780012,-0.83,-0.54,-0.09
2305781974,-0.83,-0.54,-0.09
2305784019,-0.83,-0.54,-0.09
2305786002,-0.84,-0.55,-0.10
2305788005,-0.84,-0.55,-0.10
2305790004,-0.84,-0.55,-0.10
2305792005,-0.84,-0.55,-0.10
2305794006,-0.84,-0.55,-0.10
2305796011,-0.83,-0.55,-0.09
2305797992,-0.83,-0.55,-0.09
2305799976,-0.83,-0.55,-0.09
2305802094,-0.83,-0.55,-0.09
2305803974,-0.83,-0.55,-0.09
2305805998,-0.83,-0.55,-0.09
2305808144,-0.83,-0.55,-0.09
2305810017,-0.83,-0.55,-0.09
2305811979,-0.83,-0.55,-0.09
2305813977,-0.83,-0.55,-0.09
2305815979,-0.83,-0.55,-0.09
2305817976,-0.83,-0.55,-0.09
2305819981,-0.83,-0.55,-0.09
2305821977,-0.83,-0.55,-0.09
2305824024,-0.83,-0.55,-0.09
2305826106,-0.83,-0.55,-0.09
2305828010,-0.83,-0.55,-0.09
2305830007,-0.83,-0.55,-0.09
2305832004,-0.83,-0.55,-0.09
2305834007,-0.83,-0.55,-0.09
2305836003,-0.84,-0.55,-0.09
2305837981,-0.84,-0.55,-0.09
2305839977,-0.84,-0.55,-0.09
2305841981,-0.84,-0.55,-0.09
2305843980,-0.84,-0.55,-0.09
2305845980,-0.83,-0.55,-0.09
2305847981,-0.83,-0.55,-0.09
2305849979,-0.83,-0.55,-0.09
2305852080,-0.83,-0.55,-0.09
2305853979,-0.83,-0.55,-0.09
2305856063,-0.84,-0.55,-0.09
2305858016,-0.84,-0.55,-0.09
2305859975,-0.84,-0.55,-0.09
2305861975,-0.84,-0.55,-0.09
2305864022,-0.84,-0.55,-0.09
2305866003,-0.84,-0.55,-0.09
2305868004,-0.83,-0.55,-0.09
2305870003,-0.83,-0.55,-0.09
2305872004,-0.83,-0.55,-0.09
2305874007,-0.83,-0.55,-0.09
2305876109,-0.83,-0.55,-0.09
2305877990,-0.84,-0.55,-0.09
2305880008,-0.84,-0.55,-0.09
2305881979,-0.84,-0.55,-0.09
2305883976,-0.84,-0.55,-0.09
2305885980,-0.84,-0.55,-0.09
2305887974,-0.84,-0.55,-0.09
2305889975,-0.84,-0.55,-0.09
2305891979,-0.84,-0.55,-0.09
2305893980,-0.84,-0.55,-0.09
2305895996,-0.84,-0.55,-0.09
2305897990,-0.84,-0.55,-0.08
2305899977,-0.84,-0.55,-0.08
2305902080,-0.84,-0.55,-0.08
2305904019,-0.84,-0.55,-0.08
2305906005,-0.84,-0.55,-0.08
2305908002,-0.84,-0.54,-0.09
2305910002,-0.84,-0.54,-0.09
2305912001,-0.84,-0.54,-0.09
2305914002,-0.84,-0.54,-0.09
2305916008,-0.84,-0.54,-0.09
2305917979,-0.84,-0.54,-0.08
2305919980,-0.84,-0.54,-0.08
2305921978,-0.84,-0.54,-0.08
2305924066,-0.84,-0.54,-0.08
2305926117,-0.84,-0.54,-0.08
2305927987,-0.83,-0.55,-0.07
2305929976,-0.83,-0.55,-0.07
2305931975,-0.83,-0.55,-0.07
2305933980,-0.83,-0.55,-0.07
2305935976,-0.83,-0.55,-0.07
2305937978,-0.83,-0.55,-0.07
2305939975,-0.83,-0.55,-0.07
2305941977,-0.83,-0.55,-0.07
2305944017,-0.83,-0.55,-0.07
2305946002,-0.83,-0.55,-0.07
2305948003,-0.84,-0.54,-0.07
2305950008,-0.84,-0.54,-0.07
2305952108,-0.84,-0.54,-0.07
2305954002,-0.84,-0.54,-0.07
2305956007,-0.84,-0.54,-0.07
2305957984,-0.83,-0.54,-0.07
2305959979,-0.83,-0.54,-0.07
2305961980,-0.83,-0.54,-0.07
2305963979,-0.83,-0.54,-0.07
2305965978,-0.83,-0.54,-0.07
2305967975,-0.83,-0.55,-0.09
2305969976,-0.83,-0.55,-0.09
2305971979,-0.83,-0.55,-0.09
2305973979,-0.83,-0.55,-0.09
2305976074,-0.83,-0.55,-0.09
2305978024,-0.84,-0.55,-0.08
2305980045,-0.84,-0.55,-0.08
2305982041,-0.84,-0.55,-0.08
2305984043,-0.84,-0.55,-0.08
2305986016,-0.84,-0.55,-0.08
2305988001,-0.84,-0.55,-0.07
2305990006,-0.84,-0.55,-0.07
2305992006,-0.84,-0.55,-0.07
2305994006,-0.84,-0.55,-0.07
2305996011,-0.84,-0.55,-0.07
2305997991,-0.84,-0.55,-0.08
2305999974,-0.84,-0.55,-0.08
2306002092,-0.84,-0.55,-0.08
2306003974,-0.84,-0.55,-0.08
2306005975,-0.84,-0.55,-0.08
2306007977,-0.84,-0.54,-0.09
2306009974,-0.84,-0.54,-0.09
2306011974,-0.84,-0.54,-0.09
2306013973,-0.84,-0.54,-0.09
2306015977,-0.84,-0.54,-0.09
2306017975,-0.84,-0.55,-0.09
2306019975,-0.84,-0.55,-0.09
2306021976,-0.84,-0.55,-0.09
2306024011,-0.84,-0.55,-0.09
2306026091,-0.84,-0.55,-0.09
2306028004,-0.83,-0.55,-0.09
2306030004,-0.83,-0.55,-0.09
2306032006,-0.83,-0.55,-0.09
2306034005,-0.83,-0.55,-0.09
2306036007,-0.83,-0.55,-0.09
2306037979,-0.83,-0.55,-0.08
2306039978,-0.83,-0.55,-0.08
2306041977,-0.83,-0.55,-0.08
2306043974,-0.83,-0.55,-0.08
2306045976,-0.83,-0.55,-0.08
2306047978,-0.83,-0.55,-0.08
2306049979,-0.84,-0.54,-0.09
2306052076,-0.84,-0.54,-0.09
2306053979,-0.84,-0.54,-0.09
2306055976,-0.84,-0.54,-0.09
2306057976,-0.84,-0.54,-0.09
2306059977,-0.84,-0.55,-0.09
2306061977,-0.84,-0.55,-0.09
2306064010,-0.84,-0.55,-0.09
2306066007,-0.84,-0.55,-0.09
2306068011,-0.84,-0.55,-0.09
2306070065,-0.84,-0.55,-0.10
2306072027,-0.84,-0.55,-0.10
2306074008,-0.84,-0.55,-0.10
2306076102,-0.84,-0.55,-0.10
2306078007,-0.84,-0.55,-0.10
2306079976,-0.83,-0.55,-0.09
2306081982,-0.83,-0.55,-0.09
2306084006,-0.83,-0.55,-0.09
2306085977,-0.83,-0.55,-0.09
2306087977,-0.83,-0.55,-0.09
2306089978,-0.83,-0.55,-0.08
2306092043,-0.83,-0.55,-0.08
2306093981,-0.83,-0.55,-0.08
2306095995,-0.83,-0.55,-0.08
2306097988,-0.83,-0.55,-0.08
2306099977,-0.84,-0.55,-0.09
2306102097,-0.84,-0.55,-0.09
2306104014,-0.84,-0.55,-0.09
2306106002,-0.84,-0.55,-0.09
2306108002,-0.84,-0.55,-0.09
2306110000,-0.84,-0.55,-0.09
2306112003,-0.84,-0.55,-0.09
2306114003,-0.84,-0.55,-0.09
2306116004,-0.84,-0.55,-0.09
2306117984,-0.84,-0.55,-0.09
2306119977,-0.84,-0.55,-0.09
2306121978,-0.84,-0.55,-0.09
2306123976,-0.84,-0.55,-0.09
2306126085,-0.84,-0.55,-0.09
2306127987,-0.84,-0.55,-0.09
2306129976,-0.83,-0.55,-0.08
2306131975,-0.83,-0.55,-0.08
2306134027,-0.83,-0.55,-0.08
2306136038,-0.83,-0.55,-0.08
2306137993,-0.83,-0.55,-0.08
2306139975,-0.84,-0.55,-0.09
2306141976,-0.84,-0.55,-0.09
2306144015,-0.84,-0.55,-0.09
2306146004,-0.84,-0.55,-0.09
2306148006,-0.84,-0.55,-0.09
2306150004,-0.83,-0.55,-0.08
2306152113,-0.83,-0.55,-0.08
2306154002,-0.83,-0.55,-0.08
2306156006,-0.83,-0.55,-0.08
2306157984,-0.83,-0.55,-0.08
2306159979,-0.83,-0.55,-0.08
2306161978,-0.83,-0.55,-0.08
2306163980,-0.83,-0.55,-0.08
2306165979,-0.83,-0.55,-0.08
2306167980,-0.83,-0.55,-0.08
2306169979,-0.84,-0.54,-0.08
2306171979,-0.84,-0.54,-0.08
2306173975,-0.84,-0.54,-0.08
2306176073,-0.84,-0.54,-0.08
2306177986,-0.84,-0.54,-0.08
2306179980,-0.83,-0.55,-0.09
2306182051,-0.83,-0.55,-0.09
2306184048,-0.83,-0.55,-0.09
2306186019,-0.83,-0.55,-0.09
2306188061,-0.83,-0.55,-0.09
2306190005,-0.84,-0.55,-0.08
2306192007,-0.84,-0.55,-0.08
2306194006,-0.84,-0.55,-0.08
2306196011,-0.84,-0.55,-0.08
2306198014,-0.84,-0.55,-0.08
2306200013,-0.83,-0.55,-0.09
2306202100,-0.83,-0.55,-0.09
2306203979,-0.83,-0.55,-0.09
2306205978,-0.83,-0.55,-0.09
2306207979,-0.83,-0.55,-0.09
2306209980,-0.83,-0.55,-0.09
2306211982,-0.83,-0.55,-0.09
2306213980,-0.83,-0.55,-0.09
2306215973,-0.83,-0.55,-0.09
2306217976,-0.83,-0.55,-0.09
2306219975,-0.84,-0.54,-0.09
2306221977,-0.84,-0.54,-0.09
2306223976,-0.84,-0.54,-0.09
2306226203,-0.84,-0.54,-0.09
2306228072,-0.84,-0.54,-0.09
2306230015,-0.84,-0.55,-0.10
2306232004,-0.84,-0.55,-0.10
2306233999,-0.84,-0.55,-0.10
2306236011,-0.84,-0.55,-0.10
2306238003,-0.84,-0.55,-0.10
2306240010,-0.84,-0.55,-0.10
2306241978,-0.83,-0.55,-0.09
2306243983,-0.83,-0.55,-0.09
2306246070,-0.83,-0.55,-0.09
2306248022,-0.83,-0.55,-0.09
2306249975,-0.83,-0.55,-0.09
2306252101,-0.83,-0.55,-0.07
2306253978,-0.83,-0.55,-0.07
2306255977,-0.83,-0.55,-0.07
2306257976,-0.83,-0.55,-0.07
2306259975,-0.83,-0.55,-0.07
2306261977,-0.84,-0.54,-0.08
2306263975,-0.84,-0.54,-0.08
2306266018,-0.84,-0.54,-0.08
2306268005,-0.84,-0.54,-0.08
2306270005,-0.84,-0.54,-0.08
2306272007,-0.84,-0.54,-0.08
2306274004,-0.84,-0.54,-0.08
2306276104,-0.84,-0.54,-0.08
2306278012,-0.84,-0.54,-0.08
2306279986,-0.84,-0.54,-0.08
2306281980,-0.84,-0.54,-0.06
2306283975,-0.84,-0.54,-0.06
2306285978,-0.84,-0.54,-0.06
2306288006,-0.84,-0.54,-0.06
2306290036,-0.84,-0.54,-0.06
2306291976,-0.84,-0.55,-0.08
2306293984,-0.84,-0.55,-0.08
2306295994,-0.84,-0.55,-0.08
2306297988,-0.84,-0.55,-0.08
2306299977,-0.84,-0.55,-0.08
2306302098,-0.84,-0.54,-0.07
2306303974,-0.84,-0.54,-0.07
2306306085,-0.84,-0.54,-0.07
2306308050,-0.84,-0.54,-0.07
2306310005,-0.84,-0.54,-0.07
2306312004,-0.83,-0.54,-0.06
2306314002,-0.83,-0.54,-0.06
2306316004,-0.83,-0.54,-0.06
2306318006,-0.83,-0.54,-0.06
2306320006,-0.83,-0.54,-0.06
2306322000,-0.84,-0.55,-0.08
2306323979,-0.84,-0.55,-0.08
2306326095,-0.84,-0.55,-0.08
2306327992,-0.84,-0.55,-0.08
2306329981,-0.84,-0.55,-0.08
2306331974,-0.84,-0.54,-0.08
2306333974,-0.84,-0.54,-0.08
2306335981,-0.84,-0.54,-0.08
2306337980,-0.84,-0.54,-0.08
2306339981,-0.84,-0.54,-0.08
2306341981,-0.84,-0.54,-0.07
2306343986,-0.84,-0.54,-0.07
2306345979,-0.84,-0.54,-0.07
2306348016,-0.84,-0.54,-0.07
2306350005,-0.84,-0.54,-0.07
2306352101,-0.84,-0.55,-0.08
2306354032,-0.84,-0.55,-0.08
2306356067,-0.84,-0.55,-0.08
2306358044,-0.84,-0.55,-0.08
2306360007,-0.84,-0.55,-0.08
2306362009,-0.84,-0.55,-0.08
2306363979,-0.84,-0.55,-0.08
2306365976,-0.84,-0.55,-0.08
2306367975,-0.84,-0.55,-0.08
2306369974,-0.84,-0.55,-0.08
2306371976,-0.84,-0.55,-0.08
2306373974,-0.84,-0.55,-0.08
2306376090,-0.84,-0.55,-0.08
2306377991,-0.84,-0.55,-0.08
2306379979,-0.84,-0.55,-0.08
2306381977,-0.83,-0.55,-0.09
2306383975,-0.83,-0.55,-0.09
2306385986,-0.83,-0.55,-0.09
2306388049,-0.83,-0.55,-0.09
2306390005,-0.83,-0.55,-0.09
2306392005,-0.84,-0.55,-0.09
2306394010,-0.84,-0.55,-0.09
2306396011,-0.84,-0.55,-0.09
2306398012,-0.84,-0.55,-0.09
2306400008,-0.84,-0.55,-0.09
2306402091,-0.83,-0.55,-0.09
2306403976,-0.83,-0.55,-0.09
2306405976,-0.83,-0.55,-0.09
2306407980,-0.83,-0.55,-0.09
2306409984,-0.83,-0.55,-0.09
2306411977,-0.84,-0.55,-0.08
2306413979,-0.84,-0.55,-0.08
2306415973,-0.84,-0.55,-0.08
2306417975,-0.84,-0.55,-0.08
2306419980,-0.84,-0.55,-0.08
2306421979,-0.84,-0.55,-0.08
2306423976,-0.83,-0.55,-0.09
2306426053,-0.83,-0.55,-0.09
2306428016,-0.83,-0.55,-0.09
2306430005,-0.83,-0.55,-0.09
2306432007,-0.83,-0.55,-0.09
2306434005,-0.83,-0.55,-0.07
2306436006,-0.83,-0.55,-0.07
2306438002,-0.83,-0.55,-0.07
2306439976,-0.83,-0.55,-0.07
2306441975,-0.83,-0.55,-0.07
2306443975,-0.83,-0.56,-0.09
2306445977,-0.83,-0.56,-0.09
2306447977,-0.83,-0.56,-0.09
2306449977,-0.83,-0.56,-0.09
2306452077,-0.83,-0.56,-0.09
2306453979,-0.82,-0.56,-0.08
2306455978,-0.82,-0.56,-0.08
2306457979,-0.82,-0.56,-0.08
2306459979,-0.82,-0.56,-0.08
2306461976,-0.82,-0.56,-0.08
2306463977,-0.82,-0.56,-0.09
2306465977,-0.82,-0.56,-0.09
2306468022,-0.82,-0.56,-0.09
2306470044,-0.82,-0.56,-0.09
2306472006,-0.82,-0.56,-0.09
2306474016,-0.82,-0.56,-0.08
2306476112,-0.82,-0.56,-0.08
2306478014,-0.82,-0.56,-0.08
2306480006,-0.82,-0.56,-0.08
2306482028,-0.82,-0.56,-0.08
2306483962,-0.83,-0.57,-0.09
2306486040,-0.83,-0.57,-0.09
2306488059,-0.83,-0.57,-0.09
2306490035,-0.83,-0.57,-0.09
2306491978,-0.83,-0.57,-0.09
2306494032,-0.82,-0.57,-0.08
2306495995,-0.82,-0.57,-0.08
2306497987,-0.82,-0.57,-0.08
2306499974,-0.82,-0.57,-0.08
2306502103,-0.82,-0.57,-0.08
2306503979,-0.84,-0.56,-0.09
2306505976,-0.84,-0.56,-0.09
2306508017,-0.84,-0.56,-0.09
2306510000,-0.84,-0.56,-0.09
2306512001,-0.84,-0.56,-0.09
2306514005,-0.84,-0.55,-0.09
2306516002,-0.84,-0.55,-0.09
2306518003,-0.84,-0.55,-0.09
2306520006,-0.84,-0.55,-0.09
2306521979,-0.84,-0.55,-0.09
2306523981,-0.84,-0.54,-0.10
2306526078,-0.84,-0.54,-0.10
2306527989,-0.84,-0.54,-0.10
2306529985,-0.84,-0.54,-0.10
2306531981,-0.84,-0.54,-0.10
2306533984,-0.83,-0.54,-0.09
2306535979,-0.83,-0.54,-0.09
2306537976,-0.83,-0.54,-0.09
2306539990,-0.83,-0.54,-0.09
2306541982,-0.83,-0.54,-0.09
2306543976,-0.83,-0.54,-0.10
2306545976,-0.83,-0.54,-0.10
2306548010,-0.83,-0.54,-0.10
2306550006,-0.83,-0.54,-0.10
2306552103,-0.83,-0.54,-0.10
2306554007,-0.84,-0.55,-0.09
2306556000,-0.84,-0.55,-0.09
2306558006,-0.84,-0.55,-0.09
2306560004,-0.84,-0.55,-0.09
2306561981,-0.84,-0.55,-0.09
2306563980,-0.84,-0.55,-0.10
2306565980,-0.84,-0.55,-0.10
2306567977,-0.84,-0.55,-0.10
2306569980,-0.84,-0.55,-0.10
2306571980,-0.84,-0.55,-0.10
2306573976,-0.83,-0.55,-0.09
2306576109,-0.83,-0.55,-0.09
2306578064,-0.83,-0.55,-0.09
2306580023,-0.83,-0.55,-0.09
2306581976,-0.83,-0.55,-0.09
2306583976,-0.82,-0.55,-0.11
2306585972,-0.82,-0.55,-0.11
2306588017,-0.82,-0.55,-0.11
2306590041,-0.82,-0.55,-0.11
2306592003,-0.82,-0.55,-0.11
2306594006,-0.82,-0.56,-0.09
2306596019,-0.82,-0.56,-0.09
2306598042,-0.82,-0.56,-0.09
2306600006,-0.82,-0.56,-0.09
2306602126,-0.82,-0.56,-0.09
2306603981,-0.82,-0.56,-0.10
2306605975,-0.82,-0.56,-0.10
2306607981,-0.82,-0.56,-0.10
2306609976,-0.82,-0.56,-0.10
2306611979,-0.82,-0.56,-0.10
2306613977,-0.82,-0.56,-0.10
2306615979,-0.83,-0.57,-0.10
2306617976,-0.83,-0.57,-0.10
2306619981,-0.83,-0.57,-0.10
2306622051,-0.83,-0.57,-0.10
2306623975,-0.83,-0.57,-0.10
2306626057,-0.84,-0.57,-0.10
2306628007,-0.84,-0.57,-0.10
2306630007,-0.84,-0.57,-0.10
2306632026,-0.84,-0.57,-0.10
2306634063,-0.84,-0.57,-0.10
2306636048,-0.82,-0.57,-0.09
2306638001,-0.82,-0.57,-0.09
2306640004,-0.82,-0.57,-0.09
2306642004,-0.82,-0.57,-0.09
2306644008,-0.82,-0.57,-0.09
2306645976,-0.84,-0.55,-0.07
2306647980,-0.84,-0.55,-0.07
2306649977,-0.84,-0.55,-0.07
2306652101,-0.84,-0.55,-0.07
2306653979,-0.84,-0.55,-0.07
2306655976,-0.83,-0.55,-0.08
2306657976,-0.83,-0.55,-0.08
2306659978,-0.83,-0.55,-0.08
2306661975,-0.83,-0.55,-0.08
2306663979,-0.83,-0.55,-0.08
2306665976,-0.84,-0.53,-0.05
2306668012,-0.84,-0.53,-0.05
2306670006,-0.84,-0.53,-0.05
2306672007,-0.84,-0.53,-0.05
2306674004,-0.84,-0.53,-0.05
2306676091,-0.84,-0.53,-0.06
2306678006,-0.84,-0.53,-0.06
2306680004,-0.84,-0.53,-0.06
2306682065,-0.84,-0.53,-0.06
2306684020,-0.84,-0.53,-0.06
2306685979,-0.83,-0.53,-0.05
2306687977,-0.83,-0.53,-0.05
2306690008,-0.83,-0.53,-0.05
2306691980,-0.83,-0.53,-0.05
2306693984,-0.83,-0.53,-0.05
2306695993,-0.84,-0.54,-0.06
2306697990,-0.84,-0.54,-0.06
2306700028,-0.84,-0.54,-0.06
2306702099,-0.84,-0.54,-0.06
2306703979,-0.84,-0.54,-0.06
2306705970,-0.83,-0.56,-0.07
2306708021,-0.83,-0.56,-0.07
2306710005,-0.83,-0.56,-0.07
2306712003,-0.83,-0.56,-0.07
2306714006,-0.83,-0.56,-0.07
2306716002,-0.83,-0.55,-0.07
2306718006,-0.83,-0.55,-0.07
2306720007,-0.83,-0.55,-0.07
2306721977,-0.83,-0.55,-0.07
2306723980,-0.83,-0.55,-0.07
2306726078,-0.82,-0.54,-0.09
2306728001,-0.82,-0.54,-0.09
2306730074,-0.82,-0.54,-0.09
2306732007,-0.82,-0.54,-0.09
2306733978,-0.82,-0.54,-0.09
2306735987,-0.83,-0.55,-0.10
2306737984,-0.83,-0.55,-0.10
2306739975,-0.83,-0.55,-0.10
2306741977,-0.83,-0.55,-0.10
2306743979,-0.83,-0.55,-0.10
2306745979,-0.83,-0.55,-0.12
2306748026,-0.83,-0.55,-0.12
2306750002,-0.83,-0.55,-0.12
2306752116,-0.83,-0.55,-0.12
2306754005,-0.83,-0.55,-0.12
2306756005,-0.83,-0.56,-0.11
2306758005,-0.83,-0.56,-0.11
2306760007,-0.83,-0.56,-0.11
2306761978,-0.83,-0.56,-0.11
2306763985,-0.83,-0.56,-0.11
2306765979,-0.84,-0.57,-0.12
2306767978,-0.84,-0.57,-0.12
2306769980,-0.84,-0.57,-0.12
2306771980,-0.84,-0.57,-0.12
2306773979,-0.84,-0.57,-0.12
2306776073,-0.83,-0.55,-0.10
2306777989,-0.83,-0.55,-0.10
2306779977,-0.83,-0.55,-0.10
2306781978,-0.83,-0.55,-0.10
2306783975,-0.83,-0.55,-0.10
2306785979,-0.84,-0.55,-0.08
2306788067,-0.84,-0.55,-0.08
2306790043,-0.84,-0.55,-0.08
2306792008,-0.84,-0.55,-0.08
2306794006,-0.84,-0.55,-0.08
2306796007,-0.84,-0.54,-0.07
2306798006,-0.84,-0.54,-0.07
2306800005,-0.84,-0.54,-0.07
2306802173,-0.84,-0.54,-0.07
2306804003,-0.84,-0.54,-0.07
2306806012,-0.84,-0.54,-0.07
2306807979,-0.83,-0.55,-0.07
2306809981,-0.83,-0.55,-0.07
2306811975,-0.83,-0.55,-0.07
2306813978,-0.83,-0.55,-0.07
2306815979,-0.83,-0.55,-0.07
2306817979,-0.84,-0.55,-0.06
2306819979,-0.84,-0.55,-0.06
2306821975,-0.84,-0.55,-0.06
2306823977,-0.84,-0.55,-0.06
2306826080,-0.84,-0.55,-0.06
2306828012,-0.84,-0.57,-0.08
2306830008,-0.84,-0.57,-0.08
2306832006,-0.84,-0.57,-0.08
2306834006,-0.84,-0.57,-0.08
2306836005,-0.84,-0.57,-0.08
2306838061,-0.83,-0.58,-0.12
2306840043,-0.83,-0.58,-0.12
2306841998,-0.83,-0.58,-0.12
2306843981,-0.83,-0.58,-0.12
2306845976,-0.83,-0.58,-0.12
2306847978,-0.82,-0.57,-0.16
2306849975,-0.82,-0.57,-0.16
2306852100,-0.82,-0.57,-0.16
2306853980,-0.82,-0.57,-0.16
2306855977,-0.82,-0.57,-0.16
2306857977,-0.78,-0.56,-0.17
2306859975,-0.78,-0.56,-0.17
2306861974,-0.78,-0.56,-0.17
2306863974,-0.78,-0.56,-0.17
2306865981,-0.78,-0.56,-0.17
2306868011,-0.78,-0.53,-0.15
2306870010,-0.78,-0.53,-0.15
2306872007,-0.78,-0.53,-0.15
2306874005,-0.78,-0.53,-0.15
2306876091,-0.78,-0.53,-0.15
2306878003,-0.81,-0.55,-0.17
2306880004,-0.81,-0.55,-0.17
2306881975,-0.81,-0.55,-0.17
2306883984,-0.81,-0.55,-0.17
2306885981,-0.81,-0.55,-0.17
2306887981,-0.89,-0.56,-0.14
2306890012,-0.89,-0.56,-0.14
2306892067,-0.89,-0.56,-0.14
2306894025,-0.89,-0.56,-0.14
2306895994,-0.89,-0.56,-0.14
2306897992,-0.93,-0.55,-0.08
2306899976,-0.93,-0.55,-0.08
2306902101,-0.93,-0.55,-0.08
2306904020,-0.93,-0.55,-0.08
2306905976,-0.93,-0.55,-0.08
2306908029,-0.93,-0.58,-0.09
2306910003,-0.93,-0.58,-0.09
2306912004,-0.93,-0.58,-0.09
2306914004,-0.93,-0.58,-0.09
2306916005,-0.93,-0.58,-0.09
2306918002,-0.88,-0.57,-0.10
2306920005,-0.88,-0.57,-0.10
2306921980,-0.88,-0.57,-0.10
2306923976,-0.88,-0.57,-0.10
2306926088,-0.88,-0.57,-0.10
2306927987,-0.81,-0.55,-0.08
2306929977,-0.81,-0.55,-0.08
2306931980,-0.81,-0.55,-0.08
2306933985,-0.81,-0.55,-0.08
2306935978,-0.81,-0.55,-0.08
2306937976,-0.78,-0.54,-0.09
2306939981,-0.78,-0.54,-0.09
2306941981,-0.78,-0.54,-0.09
2306943980,-0.78,-0.54,-0.09
2306946064,-0.78,-0.54,-0.09
2306948038,-0.78,-0.53,-0.08
2306950010,-0.78,-0.53,-0.08
2306952124,-0.78,-0.53,-0.08
2306954007,-0.78,-0.53,-0.08
2306956006,-0.78,-0.53,-0.08
2306958007,-0.81,-0.51,-0.07
2306960004,-0.81,-0.51,-0.07
2306962007,-0.81,-0.51,-0.07
2306963979,-0.81,-0.51,-0.07
2306965979,-0.81,-0.51,-0.07
2306967977,-0.89,-0.52,-0.08
2306969979,-0.89,-0.52,-0.08
2306971979,-0.89,-0.52,-0.08
2306973977,-0.89,-0.52,-0.08
2306976080,-0.89,-0.52,-0.08
2306977988,-0.92,-0.52,-0.09
2306979976,-0.92,-0.52,-0.09
2306981975,-0.92,-0.52,-0.09
2306983984,-0.92,-0.52,-0.09
2306985991,-0.92,-0.52,-0.09
2306988010,-0.92,-0.52,-0.09
2306990042,-0.91,-0.53,-0.08
2306992004,-0.91,-0.53,-0.08
2306994060,-0.91,-0.53,-0.08
2306996031,-0.91,-0.53,-0.08
2306998014,-0.91,-0.53,-0.08
2307000005,-0.87,-0.56,-0.11
2307002116,-0.87,-0.56,-0.11
2307004012,-0.87,-0.56,-0.11
2307006021,-0.87,-0.56,-0.11
2307007980,-0.87,-0.56,-0.11
2307009979,-0.84,-0.58,-0.13
2307011979,-0.84,-0.58,-0.13
2307013976,-0.84,-0.58,-0.13
2307015977,-0.84,-0.58,-0.13
2307017975,-0.84,-0.58,-0.13
2307019975,-0.82,-0.57,-0.11
2307021981,-0.82,-0.57,-0.11
2307023979,-0.82,-0.57,-0.11
2307026086,-0.82,-0.57,-0.11
2307028023,-0.82,-0.57,-0.11
2307030002,-0.83,-0.59,-0.16
2307032000,-0.83,-0.59,-0.16
2307034005,-0.83,-0.59,-0.16
2307036005,-0.83,-0.59,-0.16
2307038001,-0.83,-0.59,-0.16
2307040004,-0.87,-0.58,-0.16
2307041980,-0.87,-0.58,-0.16
2307043980,-0.87,-0.58,-0.16
2307045976,-0.87,-0.58,-0.16
2307047978,-0.87,-0.58,-0.16
2307049980,-0.87,-0.57,-0.14
2307052078,-0.87,-0.57,-0.14
2307053976,-0.87,-0.57,-0.14
2307055998,-0.87,-0.57,-0.14
2307058050,-0.87,-0.57,-0.14
2307060016,-0.86,-0.55,-0.12
2307061979,-0.86,-0.55,-0.12
2307063982,-0.86,-0.55,-0.12
2307065979,-0.86,-0.55,-0.12
2307068019,-0.86,-0.55,-0.12
2307070004,-0.84,-0.54,-0.12
2307072003,-0.84,-0.54,-0.12
2307074004,-0.84,-0.54,-0.12
2307076113,-0.84,-0.54,-0.12
2307078007,-0.84,-0.54,-0.12
2307080005,-0.86,-0.53,-0.11
2307081984,-0.86,-0.53,-0.11
2307083981,-0.86,-0.53,-0.11
2307085981,-0.86,-0.53,-0.11
2307087980,-0.86,-0.53,-0.11
2307090010,-0.86,-0.54,-0.12
2307091974,-0.86,-0.54,-0.12
2307093979,-0.86,-0.54,-0.12
2307095993,-0.86,-0.54,-0.12
2307097987,-0.86,-0.54,-0.12
2307099975,-0.85,-0.53,-0.12
2307102132,-0.85,-0.53,-0.12
2307104073,-0.85,-0.53,-0.12
2307106018,-0.85,-0.53,-0.12
2307108042,-0.85,-0.53,-0.12
2307110028,-0.86,-0.55,-0.14
2307112007,-0.86,-0.55,-0.14
2307114003,-0.86,-0.55,-0.14
2307116004,-0.86,-0.55,-0.14
2307118004,-0.86,-0.55,-0.14
2307120006,-0.87,-0.57,-0.17
2307122004,-0.87,-0.57,-0.17
2307123975,-0.87,-0.57,-0.17
2307126091,-0.87,-0.57,-0.17
2307127992,-0.87,-0.57,-0.17
2307129979,-0.97,-0.62,-0.18
2307131974,-0.97,-0.62,-0.18
2307133976,-0.97,-0.62,-0.18
2307135975,-0.97,-0.62,-0.18
2307137980,-0.97,-0.62,-0.18
2307139978,-0.93,-0.50,0.01
2307141978,-0.93,-0.50,0.01
2307143980,-0.93,-0.50,0.01
2307145979,-0.93,-0.50,0.01
2307148025,-0.93,-0.50,0.01
2307150044,-1.02,-0.61,0.00
2307152149,-1.02,-0.61,0.00
2307154005,-1.02,-0.61,0.00
2307156005,-1.02,-0.61,0.00
2307158006,-1.02,-0.61,0.00
2307160003,-1.00,-0.54,-0.06
2307162005,-1.00,-0.54,-0.06
2307164003,-1.00,-0.54,-0.06
2307165977,-1.00,-0.54,-0.06
2307167980,-1.00,-0.54,-0.06
2307169978,-1.13,-0.68,-0.05
2307171975,-1.13,-0.68,-0.05
2307173975,-1.13,-0.68,-0.05
2307176084,-1.13,-0.68,-0.05
2307177988,-1.13,-0.68,-0.05
2307179980,-1.13,-0.68,-0.05
2307181978,-1.06,-0.55,0.02
2307183976,-1.06,-0.55,0.02
2307185975,-1.06,-0.55,0.02
2307188008,-1.06,-0.55,0.02
2307190044,-1.06,-0.55,0.02
2307192002,-1.12,-0.68,0.01
2307194006,-1.12,-0.68,0.01
2307196011,-1.12,-0.68,0.01
2307198007,-1.12,-0.68,0.01
2307200005,-1.12,-0.68,0.01
2307202124,-1.10,-0.64,-0.01
2307204065,-1.10,-0.64,-0.01
2307206025,-1.10,-0.64,-0.01
2307207979,-1.10,-0.64,-0.01
2307209974,-1.10,-0.64,-0.01
2307212015,-1.08,-0.66,-0.02
2307213974,-1.08,-0.66,-0.02
2307215974,-1.08,-0.66,-0.02
2307217979,-1.08,-0.66,-0.02
2307219977,-1.08,-0.66,-0.02
2307221977,-1.06,-0.61,0.01
2307223975,-1.06,-0.61,0.01
2307226095,-1.06,-0.61,0.01
2307228024,-1.06,-0.61,0.01
2307230004,-1.06,-0.61,0.01
2307232006,-1.05,-0.60,0.00
2307234004,-1.05,-0.60,0.00
2307236013,-1.05,-0.60,0.00
2307238005,-1.05,-0.60,0.00
2307240007,-1.05,-0.60,0.00
2307241977,-1.06,-0.56,0.00
2307243980,-1.06,-0.56,0.00
2307245979,-1.06,-0.56,0.00
2307247977,-1.06,-0.56,0.00
2307249980,-1.06,-0.56,0.00
2307252086,-1.07,-0.54,0.03
2307253979,-1.07,-0.54,0.03
2307255979,-1.07,-0.54,0.03
2307257977,-1.07,-0.54,0.03
2307260041,-1.07,-0.54,0.03
2307262029,-1.06,-0.48,0.06
2307263974,-1.06,-0.48,0.06
2307265979,-1.06,-0.48,0.06
2307268017,-1.06,-0.48,0.06
2307270001,-1.06,-0.48,0.06
2307272004,-1.06,-0.49,0.06
2307274009,-1.06,-0.49,0.06
2307276109,-1.06,-0.49,0.06
2307278004,-1.06,-0.49,0.06
2307280006,-1.06,-0.49,0.06
2307281981,-1.02,-0.50,0.02
2307283978,-1.02,-0.50,0.02
2307285977,-1.02,-0.50,0.02
2307287979,-1.02,-0.50,0.02
2307290010,-1.02,-0.50,0.02
2307291975,-0.99,-0.51,0.02
2307293980,-0.99,-0.51,0.02
2307295996,-0.99,-0.51,0.02
2307297985,-0.99,-0.51,0.02
2307299979,-0.99,-0.51,0.02
2307302089,-0.96,-0.50,0.06
2307303978,-0.96,-0.50,0.06
2307305976,-0.96,-0.50,0.06
2307308014,-0.96,-0.50,0.06
2307310001,-0.96,-0.50,0.06
2307312000,-0.95,-0.54,0.01
2307314057,-0.95,-0.54,0.01
2307316006,-0.95,-0.54,0.01
2307318005,-0.95,-0.54,0.01
2307320050,-0.95,-0.54,0.01
2307322035,-0.96,-0.51,0.02
2307324010,-0.96,-0.51,0.02
2307326108,-0.96,-0.51,0.02
2307327988,-0.96,-0.51,0.02
2307329979,-0.96,-0.51,0.02
2307331980,-0.93,-0.47,0.10
2307333978,-0.93,-0.47,0.10
2307335979,-0.93,-0.47,0.10
2307337979,-0.93,-0.47,0.10
2307339979,-0.93,-0.47,0.10
2307341977,-0.92,-0.45,0.08
2307343975,-0.92,-0.45,0.08
2307345977,-0.92,-0.45,0.08
2307348014,-0.92,-0.45,0.08
2307350003,-0.92,-0.45,0.08
2307352106,-0.96,-0.46,0.04
2307354007,-0.96,-0.46,0.04
2307356005,-0.96,-0.46,0.04
2307358004,-0.96,-0.46,0.04
2307359998,-0.96,-0.46,0.04
2307361980,-0.96,-0.46,0.04
2307363978,-0.95,-0.43,0.05
2307365980,-0.95,-0.43,0.05
2307368038,-0.95,-0.43,0.05
2307370026,-0.95,-0.43,0.05
2307371977,-0.95,-0.43,0.05
2307373978,-0.94,-0.39,0.11
2307376092,-0.94,-0.39,0.11
2307377988,-0.94,-0.39,0.11
2307379975,-0.94,-0.39,0.11
2307381977,-0.94,-0.39,0.11
2307383978,-0.93,-0.45,0.06
2307385978,-0.93,-0.45,0.06
2307388015,-0.93,-0.45,0.06
2307390042,-0.93,-0.45,0.06
2307392001,-0.93,-0.45,0.06
2307394011,-0.95,-0.49,0.02
2307396008,-0.95,-0.49,0.02
2307398006,-0.95,-0.49,0.02
2307400010,-0.95,-0.49,0.02
2307402096,-0.95,-0.49,0.02
2307403979,-0.93,-0.48,0.05
2307405979,-0.93,-0.48,0.05
2307407978,-0.93,-0.48,0.05
2307409977,-0.93,-0.48,0.05
2307411978,-0.93,-0.48,0.05
2307413992,-0.93,-0.46,0.12
2307416075,-0.93,-0.46,0.12
2307418022,-0.93,-0.46,0.12
2307419974,-0.93,-0.46,0.12
2307421976,-0.93,-0.46,0.12
2307423976,-0.96,-0.46,0.09
2307426089,-0.96,-0.46,0.09
2307428023,-0.96,-0.46,0.09
2307430005,-0.96,-0.46,0.09
2307432001,-0.96,-0.46,0.09
2307434005,-0.99,-0.47,0.07
2307436002,-0.99,-0.47,0.07
2307438001,-0.99,-0.47,0.07
2307440008,-0.99,-0.47,0.07
2307441977,-0.99,-0.47,0.07
2307443981,-0.95,-0.47,0.04
2307445976,-0.95,-0.47,0.04
2307447984,-0.95,-0.47,0.04
2307449981,-0.95,-0.47,0.04
2307452082,-0.95,-0.47,0.04
2307453978,-0.98,-0.50,0.09
2307455977,-0.98,-0.50,0.09
2307457975,-0.98,-0.50,0.09
2307459980,-0.98,-0.50,0.09
2307461980,-0.98,-0.50,0.09
2307463980,-0.95,-0.52,0.06
2307465978,-0.95,-0.52,0.06
2307468009,-0.95,-0.52,0.06
2307470006,-0.95,-0.52,0.06
2307472006,-0.95,-0.52,0.06
2307474003,-0.91,-0.51,-0.02
2307476115,-0.91,-0.51,-0.02
2307478042,-0.91,-0.51,-0.02
2307480002,-0.91,-0.51,-0.02
2307482003,-0.91,-0.51,-0.02
2307483983,-0.96,-0.57,-0.00
2307485993,-0.96,-0.57,-0.00
2307487978,-0.96,-0.57,-0.00
2307490010,-0.96,-0.57,-0.00
2307491979,-0.96,-0.57,-0.00
2307493984,-0.94,-0.50,0.04
2307495992,-0.94,-0.50,0.04
2307497987,-0.94,-0.50,0.04
2307499978,-0.94,-0.50,0.04
2307502100,-0.94,-0.50,0.04
2307503978,-0.95,-0.48,0.06
2307505977,-0.95,-0.48,0.06
2307508016,-0.95,-0.48,0.06
2307510004,-0.95,-0.48,0.06
2307512005,-0.95,-0.48,0.06
2307514002,-0.96,-0.45,0.04
2307516001,-0.96,-0.45,0.04
2307518055,-0.96,-0.45,0.04
2307520010,-0.96,-0.45,0.04
2307521981,-0.96,-0.45,0.04
2307524064,-0.95,-0.42,0.04
2307526119,-0.95,-0.42,0.04
2307527986,-0.95,-0.42,0.04
2307529974,-0.95,-0.42,0.04
2307531977,-0.95,-0.42,0.04
2307533976,-0.94,-0.41,0.01
2307535977,-0.94,-0.41,0.01
2307537979,-0.94,-0.41,0.01
2307539978,-0.94,-0.41,0.01
2307541975,-0.94,-0.41,0.01
2307543976,-0.92,-0.41,0.04
2307545981,-0.92,-0.41,0.04
2307548023,-0.92,-0.41,0.04
2307550004,-0.92,-0.41,0.04
2307552105,-0.92,-0.41,0.04
2307554007,-0.92,-0.41,0.04
2307556004,-0.91,-0.47,-0.05
2307558005,-0.91,-0.47,-0.05
2307560006,-0.91,-0.47,-0.05
2307561976,-0.91,-0.47,-0.05
2307563981,-0.91,-0.47,-0.05
2307565977,-0.88,-0.49,-0.05
2307567988,-0.88,-0.49,-0.05
2307570092,-0.88,-0.49,-0.05
2307572017,-0.88,-0.49,-0.05
2307573979,-0.88,-0.49,-0.05
2307576091,-0.86,-0.50,-0.04
2307577987,-0.86,-0.50,-0.04
2307579977,-0.86,-0.50,-0.04
2307581979,-0.86,-0.50,-0.04
2307583978,-0.86,-0.50,-0.04
2307585980,-0.79,-0.45,-0.01
2307588015,-0.79,-0.45,-0.01
2307590041,-0.79,-0.45,-0.01
2307592003,-0.79,-0.45,-0.01
2307594007,-0.79,-0.45,-0.01
2307596006,-0.85,-0.45,0.01
2307598004,-0.85,-0.45,0.01
2307600010,-0.85,-0.45,0.01
2307602091,-0.85,-0.45,0.01
2307603981,-0.85,-0.45,0.01
2307605981,-0.86,-0.39,0.02
2307607980,-0.86,-0.39,0.02
2307609975,-0.86,-0.39,0.02
2307611974,-0.86,-0.39,0.02
2307614010,-0.86,-0.39,0.02
2307616071,-0.91,-0.34,0.08
2307618019,-0.91,-0.34,0.08
2307620020,-0.91,-0.34,0.08
2307622070,-0.91,-0.34,0.08
2307623975,-0.91,-0.34,0.08
2307626092,-0.90,-0.32,0.09
2307628029,-0.90,-0.32,0.09
2307630005,-0.90,-0.32,0.09
2307632004,-0.90,-0.32,0.09
2307634006,-0.90,-0.32,0.09
2307636005,-0.90,-0.35,0.09
2307638004,-0.90,-0.35,0.09
2307640004,-0.90,-0.35,0.09
2307641980,-0.90,-0.35,0.09
2307643981,-0.90,-0.35,0.09
2307645981,-0.89,-0.37,0.11
2307647980,-0.89,-0.37,0.11
2307649979,-0.89,-0.37,0.11
2307652085,-0.89,-0.37,0.11
2307653981,-0.89,-0.37,0.11
2307655980,-0.86,-0.39,0.11
2307657980,-0.86,-0.39,0.11
2307659981,-0.86,-0.39,0.11
2307661980,-0.86,-0.39,0.11
2307663979,-0.86,-0.39,0.11
2307665979,-0.87,-0.42,0.11
2307668016,-0.87,-0.42,0.11
2307670007,-0.87,-0.42,0.11
2307672003,-0.87,-0.42,0.11
2307674004,-0.87,-0.42,0.11
2307676099,-0.84,-0.39,0.11
2307678063,-0.84,-0.39,0.11
2307680038,-0.84,-0.39,0.11
2307682012,-0.84,-0.39,0.11
2307684009,-0.84,-0.39,0.11
2307685975,-0.84,-0.37,0.12
2307687980,-0.84,-0.37,0.12
2307690015,-0.84,-0.37,0.12
2307691975,-0.84,-0.37,0.12
2307693981,-0.84,-0.37,0.12
2307695996,-0.83,-0.34,0.14
2307697989,-0.83,-0.34,0.14
2307699977,-0.83,-0.34,0.14
2307702097,-0.83,-0.34,0.14
2307703980,-0.83,-0.34,0.14
2307705979,-0.85,-0.36,0.07
2307708023,-0.85,-0.36,0.07
2307710007,-0.85,-0.36,0.07
2307712008,-0.85,-0.36,0.07
2307714009,-0.85,-0.36,0.07
2307716008,-0.85,-0.37,0.02
2307718012,-0.85,-0.37,0.02
2307719984,-0.85,-0.37,0.02
2307721987,-0.85,-0.37,0.02
2307724053,-0.85,-0.37,0.02
2307726118,-0.80,-0.39,0.00
2307727986,-0.80,-0.39,0.00
2307729979,-0.80,-0.39,0.00
2307731977,-0.80,-0.39,0.00
2307733983,-0.80,-0.39,0.00
2307735993,-0.80,-0.39,0.00
2307737978,-0.78,-0.42,-0.01
2307739977,-0.78,-0.42,-0.01
2307741974,-0.78,-0.42,-0.01
2307743975,-0.78,-0.42,-0.01
2307745979,-0.78,-0.42,-0.01
2307748028,-0.78,-0.46,-0.06
2307750010,-0.78,-0.46,-0.06
2307752110,-0.78,-0.46,-0.06
2307754012,-0.78,-0.46,-0.06
2307756006,-0.78,-0.46,-0.06
2307758009,-0.84,-0.46,0.00
2307760007,-0.84,-0.46,0.00
2307761980,-0.84,-0.46,0.00
2307763980,-0.84,-0.46,0.00
2307765976,-0.84,-0.46,0.00
2307767984,-0.84,-0.42,0.05
2307769979,-0.84,-0.42,0.05
2307772053,-0.84,-0.42,0.05
2307774026,-0.84,-0.42,0.05
2307776091,-0.84,-0.42,0.05
2307777987,-0.81,-0.40,0.04
2307779976,-0.81,-0.40,0.04
2307781979,-0.81,-0.40,0.04
2307783977,-0.81,-0.40,0.04
2307785984,-0.81,-0.40,0.04
2307788014,-0.83,-0.40,0.02
2307790039,-0.83,-0.40,0.02
2307792004,-0.83,-0.40,0.02
2307794008,-0.83,-0.40,0.02
2307796009,-0.83,-0.40,0.02
2307798010,-0.78,-0.36,0.02
2307800006,-0.78,-0.36,0.02
2307802093,-0.78,-0.36,0.02
2307803975,-0.78,-0.36,0.02
2307805980,-0.78,-0.36,0.02
2307807976,-0.74,-0.35,0.00
2307809981,-0.74,-0.35,0.00
2307811978,-0.74,-0.35,0.00
2307813979,-0.74,-0.35,0.00
2307815974,-0.74,-0.35,0.00
2307817978,-0.72,-0.39,-0.04
2307819979,-0.72,-0.39,-0.04
2307821974,-0.72,-0.39,-0.04
2307823986,-0.72,-0.39,-0.04
2307826101,-0.72,-0.39,-0.04
2307828020,-0.71,-0.37,-0.05
2307830004,-0.71,-0.37,-0.05
2307832003,-0.71,-0.37,-0.05
2307834060,-0.71,-0.37,-0.05
2307836044,-0.71,-0.37,-0.05
2307838004,-0.71,-0.38,-0.02
2307840002,-0.71,-0.38,-0.02
2307842005,-0.71,-0.38,-0.02
2307844008,-0.71,-0.38,-0.02
2307845977,-0.71,-0.38,-0.02
2307847974,-0.72,-0.36,0.04
2307849979,-0.72,-0.36,0.04
2307852102,-0.72,-0.36,0.04
2307853974,-0.72,-0.36,0.04
2307855974,-0.72,-0.36,0.04
2307857981,-0.73,-0.36,0.06
2307859980,-0.73,-0.36,0.06
2307861979,-0.73,-0.36,0.06
2307863977,-0.73,-0.36,0.06
2307865976,-0.73,-0.36,0.06
2307868013,-0.74,-0.36,0.06
2307870006,-0.74,-0.36,0.06
2307872004,-0.74,-0.36,0.06
2307874008,-0.74,-0.36,0.06
2307876101,-0.74,-0.36,0.06
2307878011,-0.73,-0.35,0.06
2307880055,-0.73,-0.35,0.06
2307882028,-0.73,-0.35,0.06
2307883972,-0.73,-0.35,0.06
2307885979,-0.73,-0.35,0.06
2307887981,-0.73,-0.37,0.08
2307890011,-0.73,-0.37,0.08
2307891979,-0.73,-0.37,0.08
2307893980,-0.73,-0.37,0.08
2307895996,-0.73,-0.37,0.08
2307897986,-0.71,-0.35,0.11
2307899979,-0.71,-0.35,0.11
2307902101,-0.71,-0.35,0.11
2307903979,-0.71,-0.35,0.11
2307905977,-0.71,-0.35,0.11
2307908021,-0.72,-0.35,0.11
2307910001,-0.72,-0.35,0.11
2307912002,-0.72,-0.35,0.11
2307914005,-0.72,-0.35,0.11
2307916003,-0.72,-0.35,0.11
2307918007,-0.74,-0.36,0.09
2307920005,-0.74,-0.36,0.09
2307921977,-0.74,-0.36,0.09
2307923980,-0.74,-0.36,0.09
2307926112,-0.74,-0.36,0.09
2307928060,-0.73,-0.39,0.05
2307930031,-0.73,-0.39,0.05
2307931977,-0.73,-0.39,0.05
2307933977,-0.73,-0.39,0.05
2307935976,-0.73,-0.39,0.05
2307937977,-0.73,-0.39,0.05
2307939978,-0.71,-0.41,0.05
2307941976,-0.71,-0.41,0.05
2307943975,-0.71,-0.41,0.05
2307945977,-0.71,-0.41,0.05
2307948015,-0.71,-0.41,0.05
2307950005,-0.73,-0.42,0.09
2307952117,-0.73,-0.42,0.09
2307954007,-0.73,-0.42,0.09
2307956002,-0.73,-0.42,0.09
2307958005,-0.73,-0.42,0.09
2307960006,-0.73,-0.45,0.08
2307961978,-0.73,-0.45,0.08
2307963981,-0.73,-0.45,0.08
2307965977,-0.73,-0.45,0.08
2307967974,-0.73,-0.45,0.08
2307969985,-0.75,-0.47,0.06
2307971978,-0.75,-0.47,0.06
2307973979,-0.75,-0.47,0.06
2307976080,-0.75,-0.47,0.06
2307977987,-0.75,-0.47,0.06
2307979981,-0.76,-0.48,0.06
2307981983,-0.76,-0.48,0.06
2307983983,-0.76,-0.48,0.06
2307985994,-0.76,-0.48,0.06
2307988010,-0.76,-0.48,0.06
2307990042,-0.74,-0.48,0.07
2307992009,-0.74,-0.48,0.07
2307994004,-0.74,-0.48,0.07
2307996008,-0.74,-0.48,0.07
2307998011,-0.74,-0.48,0.07
2308000009,-0.76,-0.48,0.04
2308002093,-0.76,-0.48,0.04
2308004006,-0.76,-0.48,0.04
2308006015,-0.76,-0.48,0.04
2308007979,-0.76,-0.48,0.04
2308009979,-0.75,-0.48,0.01
2308011976,-0.75,-0.48,0.01
2308013976,-0.75,-0.48,0.01
2308015975,-0.75,-0.48,0.01
2308017979,-0.75,-0.48,0.01
2308019979,-0.74,-0.49,0.00
2308021998,-0.74,-0.49,0.00
2308023979,-0.74,-0.49,0.00
2308026064,-0.74,-0.49,0.00
2308028022,-0.74,-0.49,0.00
2308030000,-0.73,-0.50,-0.02
2308032001,-0.73,-0.50,-0.02
2308034003,-0.73,-0.50,-0.02
2308036032,-0.73,-0.50,-0.02
2308038015,-0.73,-0.50,-0.02
2308040009,-0.72,-0.50,-0.03
2308042007,-0.72,-0.50,-0.03
2308043979,-0.72,-0.50,-0.03
2308045976,-0.72,-0.50,-0.03
2308047985,-0.72,-0.50,-0.03
2308049979,-0.70,-0.50,-0.04
2308052094,-0.70,-0.50,-0.04
2308053978,-0.70,-0.50,-0.04
2308055979,-0.70,-0.50,-0.04
2308057997,-0.70,-0.50,-0.04
2308060023,-0.72,-0.50,-0.05
2308061979,-0.72,-0.50,-0.05
2308063976,-0.72,-0.50,-0.05
2308065976,-0.72,-0.50,-0.05
2308068018,-0.72,-0.50,-0.05
2308070006,-0.71,-0.50,-0.07
2308072003,-0.71,-0.50,-0.07
2308074005,-0.71,-0.50,-0.07
2308076106,-0.71,-0.50,-0.07
2308078006,-0.71,-0.50,-0.07
2308080006,-0.75,-0.50,-0.05
2308081981,-0.75,-0.50,-0.05
2308083981,-0.75,-0.50,-0.05
2308085980,-0.75,-0.50,-0.05
2308087983,-0.75,-0.50,-0.05
2308090012,-0.75,-0.50,-0.02
2308091981,-0.75,-0.50,-0.02
2308093985,-0.75,-0.50,-0.02
2308095995,-0.75,-0.50,-0.02
2308097988,-0.75,-0.50,-0.02
2308099977,-0.78,-0.49,0.01
2308102089,-0.78,-0.49,0.01
2308103978,-0.78,-0.49,0.01
2308105976,-0.78,-0.49,0.01
2308108013,-0.78,-0.49,0.01
2308110002,-0.79,-0.48,0.06
2308112003,-0.79,-0.48,0.06
2308114068,-0.79,-0.48,0.06
2308116046,-0.79,-0.48,0.06
2308118007,-0.79,-0.48,0.06
2308120005,-0.79,-0.48,0.06
2308122004,-0.80,-0.50,0.05
2308123992,-0.80,-0.50,0.05
2308126098,-0.80,-0.50,0.05
2308127992,-0.80,-0.50,0.05
2308129980,-0.80,-0.50,0.05
2308132013,-0.81,-0.54,0.02
2308134008,-0.81,-0.54,0.02
2308135978,-0.81,-0.54,0.02
2308137975,-0.81,-0.54,0.02
2308139974,-0.81,-0.54,0.02
2308141978,-0.80,-0.54,0.05
2308143978,-0.80,-0.54,0.05
2308145976,-0.80,-0.54,0.05
2308148019,-0.80,-0.54,0.05
2308150003,-0.80,-0.54,0.05
2308152114,-0.80,-0.56,0.04
2308154007,-0.80,-0.56,0.04
2308156003,-0.80,-0.56,0.04
2308158002,-0.80,-0.56,0.04
2308160003,-0.80,-0.56,0.04
2308162069,-0.80,-0.57,0.04
2308164017,-0.80,-0.57,0.04
2308165976,-0.80,-0.57,0.04
2308167973,-0.80,-0.57,0.04
2308169977,-0.80,-0.57,0.04
2308171975,-0.79,-0.57,0.04
2308173977,-0.79,-0.57,0.04
2308176090,-0.79,-0.57,0.04
2308177999,-0.79,-0.57,0.04
2308179984,-0.79,-0.57,0.04
2308181981,-0.79,-0.57,0.07
2308183979,-0.79,-0.57,0.07
2308185980,-0.79,-0.57,0.07
2308188023,-0.79,-0.57,0.07
2308190039,-0.79,-0.57,0.07
2308191999,-0.80,-0.57,0.09
2308194006,-0.80,-0.57,0.09
2308196007,-0.80,-0.57,0.09
2308198013,-0.80,-0.57,0.09
2308200007,-0.80,-0.57,0.09
2308202093,-0.84,-0.58,0.09
2308203973,-0.84,-0.58,0.09
2308205976,-0.84,-0.58,0.09
2308207980,-0.84,-0.58,0.09
2308209986,-0.84,-0.58,0.09
2308212131,-0.83,-0.57,0.10
2308214017,-0.83,-0.57,0.10
2308215977,-0.83,-0.57,0.10
2308217976,-0.83,-0.57,0.10
2308219978,-0.83,-0.57,0.10
2308221974,-0.84,-0.56,0.07
2308223978,-0.84,-0.56,0.07
2308226224,-0.84,-0.56,0.07
2308228052,-0.84,-0.56,0.07
2308230018,-0.84,-0.56,0.07
2308232006,-0.86,-0.57,0.04
2308234004,-0.86,-0.57,0.04
2308236059,-0.86,-0.57,0.04
2308238008,-0.86,-0.57,0.04
2308240000,-0.86,-0.57,0.04
2308242004,-0.86,-0.55,0.03
2308244015,-0.86,-0.55,0.03
2308245979,-0.86,-0.55,0.03
2308247979,-0.86,-0.55,0.03
2308249979,-0.86,-0.55,0.03
2308252104,-0.87,-0.53,0.02
2308253974,-0.87,-0.53,0.02
2308255979,-0.87,-0.53,0.02
2308257973,-0.87,-0.53,0.02
2308259979,-0.87,-0.53,0.02
2308261977,-0.88,-0.53,0.00
2308263980,-0.88,-0.53,0.00
2308265979,-0.88,-0.53,0.00
2308268010,-0.88,-0.53,0.00
2308270058,-0.88,-0.53,0.00
2308272046,-0.89,-0.51,0.01
2308274000,-0.89,-0.51,0.01
2308276108,-0.89,-0.51,0.01
2308278011,-0.89,-0.51,0.01
2308280007,-0.89,-0.51,0.01
2308282001,-0.89,-0.50,0.01
2308283985,-0.89,-0.50,0.01
2308285981,-0.89,-0.50,0.01
2308287982,-0.89,-0.50,0.01
2308290011,-0.89,-0.50,0.01
2308291975,-0.90,-0.50,0.00
2308293979,-0.90,-0.50,0.00
2308295993,-0.90,-0.50,0.00
2308297985,-0.90,-0.50,0.00
2308299974,-0.90,-0.50,0.00
2308302091,-0.91,-0.48,0.01
2308303977,-0.91,-0.48,0.01
2308305976,-0.91,-0.48,0.01
2308308017,-0.91,-0.48,0.01
2308310018,-0.91,-0.48,0.01
2308312007,-0.91,-0.48,0.01
2308314004,-0.87,-0.48,0.01
2308316063,-0.87,-0.48,0.01
2308318030,-0.87,-0.48,0.01
2308320011,-0.87,-0.48,0.01
2308322006,-0.87,-0.48,0.01
2308323979,-0.89,-0.48,-0.01
2308326096,-0.89,-0.48,-0.01
2308327987,-0.89,-0.48,-0.01
2308329977,-0.89,-0.48,-0.01
2308331985,-0.89,-0.48,-0.01
2308333978,-0.87,-0.50,-0.05
2308335980,-0.87,-0.50,-0.05
2308338017,-0.87,-0.50,-0.05
2308339978,-0.87,-0.50,-0.05
2308341975,-0.87,-0.50,-0.05
2308343975,-0.86,-0.49,-0.05
2308345976,-0.86,-0.49,-0.05
2308348017,-0.86,-0.49,-0.05
2308350003,-0.86,-0.49,-0.05
2308352114,-0.86,-0.49,-0.05
2308354006,-0.88,-0.46,-0.05
2308356005,-0.88,-0.46,-0.05
2308358003,-0.88,-0.46,-0.05
2308360007,-0.88,-0.46,-0.05
2308361979,-0.88,-0.46,-0.05
2308363996,-0.89,-0.46,-0.05
2308366054,-0.89,-0.46,-0.05
2308368003,-0.89,-0.46,-0.05
2308369977,-0.89,-0.46,-0.05
2308371976,-0.89,-0.46,-0.05
2308373976,-0.89,-0.45,-0.05
2308376097,-0.89,-0.45,-0.05
2308377992,-0.89,-0.45,-0.05
2308379977,-0.89,-0.45,-0.05
2308381979,-0.89,-0.45,-0.05
2308383975,-0.89,-0.43,-0.04
2308385978,-0.89,-0.43,-0.04
2308388022,-0.89,-0.43,-0.04
2308390042,-0.89,-0.43,-0.04
2308392004,-0.89,-0.43,-0.04
2308394001,-0.89,-0.43,-0.02
2308396010,-0.89,-0.43,-0.02
2308398005,-0.89,-0.43,-0.02
2308400004,-0.89,-0.43,-0.02
2308402094,-0.89,-0.43,-0.02
2308403975,-0.87,-0.40,-0.02
2308405977,-0.87,-0.40,-0.02
2308407978,-0.87,-0.40,-0.02
2308409976,-0.87,-0.40,-0.02
2308411974,-0.87,-0.40,-0.02
2308413981,-0.87,-0.39,-0.03
2308415979,-0.87,-0.39,-0.03
2308417977,-0.87,-0.39,-0.03
2308419977,-0.87,-0.39,-0.03
2308421977,-0.87,-0.39,-0.03
2308423977,-0.86,-0.36,-0.02
2308426054,-0.86,-0.36,-0.02
2308428015,-0.86,-0.36,-0.02
2308430008,-0.86,-0.36,-0.02
2308432007,-0.86,-0.36,-0.02
2308434003,-0.86,-0.35,-0.03
2308436007,-0.86,-0.35,-0.03
2308438003,-0.86,-0.35,-0.03
2308440009,-0.86,-0.35,-0.03
2308441984,-0.86,-0.35,-0.03
2308443984,-0.85,-0.34,-0.04
2308445980,-0.85,-0.34,-0.04
2308447979,-0.85,-0.34,-0.04
2308449981,-0.85,-0.34,-0.04
2308452081,-0.85,-0.34,-0.04
2308453979,-0.83,-0.33,-0.04
2308455976,-0.83,-0.33,-0.04
2308457977,-0.83,-0.33,-0.04
2308460036,-0.83,-0.33,-0.04
2308462033,-0.83,-0.33,-0.04
2308463998,-0.84,-0.33,-0.02
2308465976,-0.84,-0.33,-0.02
2308468020,-0.84,-0.33,-0.02
2308470005,-0.84,-0.33,-0.02
2308472004,-0.84,-0.33,-0.02
2308474007,-0.85,-0.30,-0.00
2308476114,-0.85,-0.30,-0.00
2308478006,-0.85,-0.30,-0.00
2308480005,-0.85,-0.30,-0.00
2308481978,-0.85,-0.30,-0.00
2308483977,-0.85,-0.30,-0.00
2308485990,-0.86,-0.32,0.00
2308487979,-0.86,-0.32,0.00
2308490012,-0.86,-0.32,0.00
2308491974,-0.86,-0.32,0.00
2308493997,-0.86,-0.32,0.00
2308495993,-0.86,-0.34,0.00
2308497988,-0.86,-0.34,0.00
2308499975,-0.86,-0.34,0.00
2308502091,-0.86,-0.34,0.00
2308503977,-0.86,-0.34,0.00
2308505990,-0.86,-0.38,0.02
2308508068,-0.86,-0.38,0.02
2308510041,-0.86,-0.38,0.02
2308512006,-0.86,-0.38,0.02
2308514005,-0.86,-0.38,0.02
2308516004,-0.87,-0.39,0.01
2308518005,-0.87,-0.39,0.01
2308520006,-0.87,-0.39,0.01
2308522005,-0.87,-0.39,0.01
2308524005,-0.87,-0.39,0.01
2308526096,-0.88,-0.39,0.01
2308527989,-0.88,-0.39,0.01
2308529976,-0.88,-0.39,0.01
2308531978,-0.88,-0.39,0.01
2308533978,-0.88,-0.39,0.01
2308535977,-0.89,-0.38,0.02
2308537981,-0.89,-0.38,0.02
2308539979,-0.89,-0.38,0.02
2308542023,-0.89,-0.38,0.02
2308543981,-0.89,-0.38,0.02
2308545980,-0.88,-0.38,0.02
2308547980,-0.88,-0.38,0.02
2308550027,-0.88,-0.38,0.02
2308552131,-0.88,-0.38,0.02
2308554064,-0.88,-0.38,0.02
2308556041,-0.89,-0.39,-0.02
2308558007,-0.89,-0.39,-0.02
2308560004,-0.89,-0.39,-0.02
2308562005,-0.89,-0.39,-0.02
2308564008,-0.89,-0.39,-0.02
2308566012,-0.89,-0.40,-0.03
2308567984,-0.89,-0.40,-0.03
2308569979,-0.89,-0.40,-0.03
2308571977,-0.89,-0.40,-0.03
2308573979,-0.89,-0.40,-0.03
2308576092,-0.89,-0.42,-0.05
2308577991,-0.89,-0.42,-0.05
2308579985,-0.89,-0.42,-0.05
2308581984,-0.89,-0.42,-0.05
2308583979,-0.89,-0.42,-0.05
2308585980,-0.89,-0.44,-0.05
2308587982,-0.89,-0.44,-0.05
2308590040,-0.89,-0.44,-0.05
2308592004,-0.89,-0.44,-0.05
2308594009,-0.89,-0.44,-0.05
2308596009,-0.91,-0.43,-0.05
2308598008,-0.91,-0.43,-0.05
2308600023,-0.91,-0.43,-0.05
2308602198,-0.91,-0.43,-0.05
2308604036,-0.91,-0.43,-0.05
2308606015,-0.94,-0.43,-0.03
2308607979,-0.94,-0.43,-0.03
2308609980,-0.94,-0.43,-0.03
2308611979,-0.94,-0.43,-0.03
2308613979,-0.94,-0.43,-0.03
2308615976,-0.96,-0.46,-0.02
2308617980,-0.96,-0.46,-0.02
2308619979,-0.96,-0.46,-0.02
2308622055,-0.96,-0.46,-0.02
2308623974,-0.96,-0.46,-0.02
2308626084,-0.97,-0.45,-0.02
2308627989,-0.97,-0.45,-0.02
2308630015,-0.97,-0.45,-0.02
2308632006,-0.97,-0.45,-0.02
2308634003,-0.97,-0.45,-0.02
2308636006,-0.99,-0.45,-0.02
2308638008,-0.99,-0.45,-0.02
2308640006,-0.99,-0.45,-0.02
2308642008,-0.99,-0.45,-0.02
2308644020,-0.99,-0.45,-0.02
2308646003,-0.97,-0.45,-0.02
2308647977,-0.97,-0.45,-0.02
2308649978,-0.97,-0.45,-0.02
2308652088,-0.97,-0.45,-0.02
2308653975,-0.97,-0.45,-0.02
2308655976,-0.96,-0.47,-0.04
2308657979,-0.96,-0.47,-0.04
2308659975,-0.96,-0.47,-0.04
2308661981,-0.96,-0.47,-0.04
2308663975,-0.96,-0.47,-0.04
2308665975,-0.96,-0.46,-0.04
2308667978,-0.96,-0.46,-0.04
2308670018,-0.96,-0.46,-0.04
2308672005,-0.96,-0.46,-0.04
2308674005,-0.96,-0.46,-0.04
2308676091,-0.96,-0.46,-0.04
2308678007,-0.95,-0.48,-0.04
2308680005,-0.95,-0.48,-0.04
2308682006,-0.95,-0.48,-0.04
2308683978,-0.95,-0.48,-0.04
2308685976,-0.95,-0.48,-0.04
2308687980,-0.95,-0.47,-0.06
2308690008,-0.95,-0.47,-0.06
2308691977,-0.95,-0.47,-0.06
2308693981,-0.95,-0.47,-0.06
2308695996,-0.95,-0.47,-0.06
2308697987,-0.96,-0.49,-0.06
2308699974,-0.96,-0.49,-0.06
2308702093,-0.96,-0.49,-0.06
2308703981,-0.96,-0.49,-0.06
2308705974,-0.96,-0.49,-0.06
2308707980,-0.98,-0.49,-0.03
2308710018,-0.98,-0.49,-0.03
2308712004,-0.98,-0.49,-0.03
2308714037,-0.98,-0.49,-0.03
2308716036,-0.98,-0.49,-0.03
2308718009,-1.00,-0.50,0.00
2308720003,-1.00,-0.50,0.00
2308722003,-1.00,-0.50,0.00
2308724012,-1.00,-0.50,0.00
2308726089,-1.00,-0.50,0.00
2308727988,-1.01,-0.51,0.00
2308729979,-1.01,-0.51,0.00
2308731980,-1.01,-0.51,0.00
2308733982,-1.01,-0.51,0.00
2308735990,-1.01,-0.51,0.00
2308737980,-1.00,-0.54,0.01
2308739980,-1.00,-0.54,0.01
2308741979,-1.00,-0.54,0.01
2308743977,-1.00,-0.54,0.01
2308745981,-1.00,-0.54,0.01
2308748022,-0.98,-0.54,0.02
2308750025,-0.98,-0.54,0.02
2308752115,-0.98,-0.54,0.02
2308754032,-0.98,-0.54,0.02
2308755990,-0.98,-0.54,0.02
2308757959,-0.96,-0.55,0.00
2308759957,-0.96,-0.55,0.00
2308761957,-0.96,-0.55,0.00
2308763958,-0.96,-0.55,0.00
2308765958,-0.96,-0.55,0.00
2308767962,-0.94,-0.55,0.01
2308769959,-0.94,-0.55,0.01
2308771958,-0.94,-0.55,0.01
2308773957,-0.94,-0.55,0.01
2308776067,-0.94,-0.55,0.01
2308777972,-0.92,-0.55,0.02
2308779957,-0.92,-0.55,0.02
2308781958,-0.92,-0.55,0.02
2308783957,-0.92,-0.55,0.02
2308785957,-0.92,-0.55,0.02
2308787960,-0.89,-0.55,0.01
2308790005,-0.89,-0.55,0.01
2308791958,-0.89,-0.55,0.01
2308793958,-0.89,-0.55,0.01
2308795982,-0.89,-0.55,0.01
2308797972,-0.88,-0.54,0.02
2308860051,-0.84,-0.59,0.08
2308862004,-0.84,-0.59,0.08
2308864007,-0.84,-0.59,0.08
2308866000,-0.84,-0.59,0.08
2308868005,-0.84,-0.59,0.08
2308870009,-0.85,-0.59,0.11
2308872007,-0.85,-0.59,0.11
2308873981,-0.85,-0.59,0.11
2308876093,-0.85,-0.59,0.11
2308877990,-0.85,-0.59,0.11
2308879985,-0.86,-0.58,0.16
2308881978,-0.86,-0.58,0.16
2308883979,-0.86,-0.58,0.16
2308885979,-0.86,-0.58,0.16
2308887980,-0.86,-0.58,0.16
2308890010,-0.86,-0.55,0.18
2308891974,-0.86,-0.55,0.18
2308893981,-0.86,-0.55,0.18
2308895993,-0.86,-0.55,0.18
2308897988,-0.86,-0.55,0.18
2308900057,-0.86,-0.56,0.17
2308902149,-0.86,-0.56,0.17
2308904010,-0.86,-0.56,0.17
2308906005,-0.86,-0.56,0.17
2308908003,-0.86,-0.56,0.17
2308910001,-0.82,-0.55,0.16
2308912005,-0.82,-0.55,0.16
2308914003,-0.82,-0.55,0.16
2308916006,-0.82,-0.55,0.16
2308917984,-0.82,-0.55,0.16
2308919981,-0.83,-0.57,0.15
2308921978,-0.83,-0.57,0.15
2308923979,-0.83,-0.57,0.15
2308926079,-0.83,-0.57,0.15
2308927987,-0.83,-0.57,0.15
2308929977,-0.80,-0.56,0.14
2308931979,-0.80,-0.56,0.14
2308933977,-0.80,-0.56,0.14
2308935979,-0.80,-0.56,0.14
2308937981,-0.80,-0.56,0.14
2308939980,-0.80,-0.55,0.11
2308942009,-0.80,-0.55,0.11
2308944004,-0.80,-0.55,0.11
2308946001,-0.80,-0.55,0.11
2308948002,-0.80,-0.55,0.11
2308950007,-0.80,-0.57,0.09
2308952159,-0.80,-0.57,0.09
2308954010,-0.80,-0.57,0.09
2308955977,-0.80,-0.57,0.09
2308957977,-0.80,-0.57,0.09
2308960041,-0.80,-0.54,0.12
2308962027,-0.80,-0.54,0.12
2308963975,-0.80,-0.54,0.12
2308965980,-0.80,-0.54,0.12
2308967979,-0.80,-0.54,0.12
2308969975,-0.79,-0.54,0.11
2308971976,-0.79,-0.54,0.11
2308973976,-0.79,-0.54,0.11
2308976089,-0.79,-0.54,0.11
2308977987,-0.79,-0.54,0.11
2308979975,-0.79,-0.54,0.09
2308982020,-0.79,-0.54,0.09
2308984001,-0.79,-0.54,0.09
2308986017,-0.79,-0.54,0.09
2308988005,-0.79,-0.54,0.09
2308990040,-0.81,-0.53,0.10
2308992008,-0.81,-0.53,0.10
2308994007,-0.81,-0.53,0.10
2308995992,-0.81,-0.53,0.10
2308997987,-0.81,-0.53,0.10
2308999975,-0.82,-0.55,0.14
2309002094,-0.82,-0.55,0.14
2309003975,-0.82,-0.55,0.14
2309005977,-0.82,-0.55,0.14
2309007979,-0.82,-0.55,0.14
2309010138,-0.82,-0.55,0.12
2309012015,-0.82,-0.55,0.12
2309013979,-0.82,-0.55,0.12
2309015978,-0.82,-0.55,0.12
2309017979,-0.82,-0.55,0.12
2309019979,-0.82,-0.55,0.11
2309022020,-0.82,-0.55,0.11
2309024006,-0.82,-0.55,0.11
2309026107,-0.82,-0.55,0.11
2309028009,-0.82,-0.55,0.11
2309030010,-0.83,-0.57,0.11
2309032006,-0.83,-0.57,0.11
2309034007,-0.83,-0.57,0.11
2309035981,-0.83,-0.57,0.11
2309037975,-0.83,-0.57,0.11
2309039976,-0.83,-0.56,0.10
2309041978,-0.83,-0.56,0.10
2309043980,-0.83,-0.56,0.10
2309045980,-0.83,-0.56,0.10
2309047977,-0.83,-0.56,0.10
2309049979,-0.83,-0.56,0.10
2309052082,-0.84,-0.57,0.10
2309053983,-0.84,-0.57,0.10
2309056045,-0.84,-0.57,0.10
2309058029,-0.84,-0.57,0.10
2309059976,-0.84,-0.57,0.10
2309062021,-0.84,-0.55,0.11
2309064000,-0.84,-0.55,0.11
2309066000,-0.84,-0.55,0.11
2309068003,-0.84,-0.55,0.11
2309070006,-0.84,-0.55,0.11
2309072007,-0.84,-0.55,0.09
2309074010,-0.84,-0.55,0.09
2309076096,-0.84,-0.55,0.09
2309077986,-0.84,-0.55,0.09
2309079979,-0.84,-0.55,0.09
2309081977,-0.84,-0.56,0.06
2309083975,-0.84,-0.56,0.06
2309085979,-0.84,-0.56,0.06
2309087981,-0.84,-0.56,0.06
2309090010,-0.84,-0.56,0.06
2309091979,-0.81,-0.64,-0.11
2309093981,-0.81,-0.64,-0.11
2309095995,-0.81,-0.64,-0.11
2309097987,-0.81,-0.64,-0.11
2309099971,-0.81,-0.64,-0.11
2309102127,-0.91,-0.66,-0.06
2309104006,-0.91,-0.66,-0.06
2309106007,-0.91,-0.66,-0.06
2309108004,-0.91,-0.66,-0.06
2309110002,-0.91,-0.66,-0.06
2309112006,-0.90,-0.67,-0.11
2309114004,-0.90,-0.67,-0.11
2309116071,-0.90,-0.67,-0.11
2309118022,-0.90,-0.67,-0.11
2309119979,-0.90,-0.67,-0.11
2309121979,-0.84,-0.39,0.35
2309123977,-0.84,-0.39,0.35
2309126091,-0.84,-0.39,0.35
2309127991,-0.84,-0.39,0.35
2309129978,-0.84,-0.39,0.35
2309131976,-0.96,-0.65,0.15
2309133976,-0.96,-0.65,0.15
2309135977,-0.96,-0.65,0.15
2309137977,-0.96,-0.65,0.15
2309139979,-0.96,-0.65,0.15
2309142018,-0.72,-0.32,0.28
2309144004,-0.72,-0.32,0.28
2309146005,-0.72,-0.32,0.28
2309148003,-0.72,-0.32,0.28
2309150004,-0.72,-0.32,0.28
2309152106,-0.86,-0.60,0.35
2309154005,-0.86,-0.60,0.35
2309156013,-0.86,-0.60,0.35
2309158006,-0.86,-0.60,0.35
2309159975,-0.86,-0.60,0.35
2309162052,-0.71,-0.55,0.14
2309164029,-0.71,-0.55,0.14
2309165979,-0.71,-0.55,0.14
2309167974,-0.71,-0.55,0.14
2309169975,-0.71,-0.55,0.14
2309171974,-0.88,-0.72,0.07
2309173977,-0.88,-0.72,0.07
2309176094,-0.88,-0.72,0.07
2309177988,-0.88,-0.72,0.07
2309179974,-0.88,-0.72,0.07
2309182025,-0.73,-0.64,0.13
2309184002,-0.73,-0.64,0.13
2309186004,-0.73,-0.64,0.13
2309188002,-0.73,-0.64,0.13
2309190043,-0.73,-0.64,0.13
2309192004,-0.79,-0.66,0.28
2309194009,-0.79,-0.66,0.28
2309195996,-0.79,-0.66,0.28
2309197985,-0.79,-0.66,0.28
2309199976,-0.79,-0.66,0.28
2309202095,-0.75,-0.54,0.29
2309203976,-0.75,-0.54,0.29
2309205979,-0.75,-0.54,0.29
2309207977,-0.75,-0.54,0.29
2309209977,-0.75,-0.54,0.29
2309211976,-0.88,-0.64,0.16
2309213974,-0.88,-0.64,0.16
2309215979,-0.88,-0.64,0.16
2309217977,-0.88,-0.64,0.16
2309219976,-0.88,-0.64,0.16
2309222014,-0.70,-0.47,0.23
2309224005,-0.70,-0.47,0.23
2309226093,-0.70,-0.47,0.23
2309228007,-0.70,-0.47,0.23
2309230005,-0.70,-0.47,0.23
2309232008,-0.87,-0.55,0.29
2309234009,-0.87,-0.55,0.29
2309235992,-0.87,-0.55,0.29
2309237977,-0.87,-0.55,0.29
2309239980,-0.87,-0.55,0.29
2309241977,-0.87,-0.55,0.29
2309243978,-0.80,-0.50,0.16
2309245975,-0.80,-0.50,0.16
2309247975,-0.80,-0.50,0.16
2309249977,-0.80,-0.50,0.16
2309252105,-0.80,-0.50,0.16
2309254056,-0.83,-0.49,0.16
2309256021,-0.83,-0.49,0.16
2309257973,-0.83,-0.49,0.16
2309260016,-0.83,-0.49,0.16
2309262026,-0.83,-0.49,0.16
2309264008,-0.83,-0.59,0.11
2309266002,-0.83,-0.59,0.11
2309268008,-0.83,-0.59,0.11
2309270000,-0.83,-0.59,0.11
2309271999,-0.83,-0.59,0.11
2309274008,-0.86,-0.53,0.18
2309276093,-0.86,-0.53,0.18
2309277987,-0.86,-0.53,0.18
2309279980,-0.86,-0.53,0.18
2309281979,-0.86,-0.53,0.18
2309283979,-0.76,-0.58,0.06
2309285979,-0.76,-0.58,0.06
2309287979,-0.76,-0.58,0.06
2309290013,-0.76,-0.58,0.06
2309291977,-0.76,-0.58,0.06
2309293986,-0.87,-0.54,0.13
2309295994,-0.87,-0.54,0.13
2309297987,-0.87,-0.54,0.13
2309299980,-0.87,-0.54,0.13
2309302170,-0.87,-0.54,0.13
2309304035,-0.77,-0.56,0.14
2309306010,-0.77,-0.56,0.14
2309308003,-0.77,-0.56,0.14
2309310003,-0.77,-0.56,0.14
2309312005,-0.77,-0.56,0.14
2309314002,-0.87,-0.55,0.09
2309316005,-0.87,-0.55,0.09
2309317993,-0.87,-0.55,0.09
2309319980,-0.87,-0.55,0.09
2309321979,-0.87,-0.55,0.09
2309323974,-0.87,-0.57,0.05
2309326089,-0.87,-0.57,0.05
2309327987,-0.87,-0.57,0.05
2309329979,-0.87,-0.57,0.05
2309331979,-0.87,-0.57,0.05
2309333979,-0.84,-0.57,0.08
2309335978,-0.84,-0.57,0.08
2309337979,-0.84,-0.57,0.08
2309339980,-0.84,-0.57,0.08
2309342016,-0.84,-0.57,0.08
2309344005,-0.86,-0.61,0.04
2309346003,-0.86,-0.61,0.04
2309348005,-0.86,-0.61,0.04
2309350002,-0.86,-0.61,0.04
2309352105,-0.86,-0.61,0.04
2309354006,-0.81,-0.59,0.05
2309355979,-0.81,-0.59,0.05
2309357983,-0.81,-0.59,0.05
2309359982,-0.81,-0.59,0.05
2309362023,-0.81,-0.59,0.05
2309364059,-0.80,-0.63,0.03
2309366013,-0.80,-0.63,0.03
2309367981,-0.80,-0.63,0.03
2309369979,-0.80,-0.63,0.03
2309371979,-0.80,-0.63,0.03
2309373976,-0.80,-0.59,0.00
2309376096,-0.80,-0.59,0.00
2309377990,-0.80,-0.59,0.00
2309379978,-0.80,-0.59,0.00
2309382018,-0.80,-0.59,0.00
2309384003,-0.81,-0.57,-0.02
2309386003,-0.81,-0.57,-0.02
2309388003,-0.81,-0.57,-0.02
2309390036,-0.81,-0.57,-0.02
2309392005,-0.81,-0.57,-0.02
2309394008,-0.79,-0.53,-0.04
2309395994,-0.79,-0.53,-0.04
2309397988,-0.79,-0.53,-0.04
2309399977,-0.79,-0.53,-0.04
2309402092,-0.79,-0.53,-0.04
2309403978,-0.84,-0.53,-0.05
2309405978,-0.84,-0.53,-0.05
2309407976,-0.84,-0.53,-0.05
2309409988,-0.84,-0.53,-0.05
2309412141,-0.84,-0.53,-0.05
2309414018,-0.82,-0.46,-0.03
2309415980,-0.82,-0.46,-0.03
2309417978,-0.82,-0.46,-0.03
2309419978,-0.82,-0.46,-0.03
2309422019,-0.82,-0.46,-0.03
2309424001,-0.82,-0.46,-0.03
2309426108,-0.88,-0.44,0.00
2309428010,-0.88,-0.44,0.00
2309430005,-0.88,-0.44,0.00
2309432006,-0.88,-0.44,0.00
2309434007,-0.88,-0.44,0.00
2309435979,-0.84,-0.40,-0.02
2309437977,-0.84,-0.40,-0.02
2309439977,-0.84,-0.40,-0.02
2309441979,-0.84,-0.40,-0.02
2309443976,-0.84,-0.40,-0.02
2309445980,-0.88,-0.40,-0.04
2309447980,-0.88,-0.40,-0.04
2309449976,-0.88,-0.40,-0.04
2309452077,-0.88,-0.40,-0.04
2309453978,-0.88,-0.40,-0.04
2309455978,-0.84,-0.39,-0.02
2309457978,-0.84,-0.39,-0.02
2309460000,-0.84,-0.39,-0.02
2309462048,-0.84,-0.39,-0.02
2309464043,-0.84,-0.39,-0.02
2309466010,-0.84,-0.39,0.02
2309468006,-0.84,-0.39,0.02
2309470005,-0.84,-0.39,0.02
2309472005,-0.84,-0.39,0.02
2309474006,-0.84,-0.39,0.02
2309476117,-0.85,-0.43,0.00
2309478006,-0.85,-0.43,0.00
2309480006,-0.85,-0.43,0.00
2309481976,-0.85,-0.43,0.00
2309483983,-0.85,-0.43,0.00
2309485993,-0.86,-0.44,0.03
2309487979,-0.86,-0.44,0.03
2309490018,-0.86,-0.44,0.03
2309491974,-0.86,-0.44,0.03
2309493985,-0.86,-0.44,0.03
2309495995,-0.84,-0.48,0.07
2309497986,-0.84,-0.48,0.07
2309499979,-0.84,-0.48,0.07
2309502091,-0.84,-0.48,0.07
2309504020,-0.84,-0.48,0.07
2309506004,-0.85,-0.50,0.09
2309507998,-0.85,-0.50,0.09
2309510003,-0.85,-0.50,0.09
2309512002,-0.85,-0.50,0.09
2309514001,-0.85,-0.50,0.09
2309516002,-0.83,-0.50,0.11
2309517982,-0.83,-0.50,0.11
2309520040,-0.83,-0.50,0.11
2309522042,-0.83,-0.50,0.11
2309523975,-0.83,-0.50,0.11
2309526093,-0.84,-0.57,0.08
2309527986,-0.84,-0.57,0.08
2309529978,-0.84,-0.57,0.08
2309531975,-0.84,-0.57,0.08
2309533976,-0.84,-0.57,0.08
2309535973,-0.84,-0.54,0.12
2309537979,-0.84,-0.54,0.12
2309539976,-0.84,-0.54,0.12
2309541979,-0.84,-0.54,0.12
2309544024,-0.84,-0.54,0.12
2309546003,-0.86,-0.59,0.12
2309548002,-0.86,-0.59,0.12
2309550005,-0.86,-0.59,0.12
2309552108,-0.86,-0.59,0.12
2309554003,-0.86,-0.59,0.12
2309556007,-0.87,-0.60,0.11
2309557976,-0.87,-0.60,0.11
2309559977,-0.87,-0.60,0.11
2309561976,-0.87,-0.60,0.11
2309563976,-0.87,-0.60,0.11
2309566030,-0.86,-0.60,0.12
2309567980,-0.86,-0.60,0.12
2309569976,-0.86,-0.60,0.12
2309571976,-0.86,-0.60,0.12
2309573981,-0.86,-0.60,0.12
2309576086,-0.85,-0.61,0.15
2309577987,-0.85,-0.61,0.15
2309579979,-0.85,-0.61,0.15
2309581979,-0.85,-0.61,0.15
2309584022,-0.85,-0.61,0.15
2309586004,-0.82,-0.62,0.12
2309588005,-0.82,-0.62,0.12
2309590044,-0.82,-0.62,0.12
2309592003,-0.82,-0.62,0.12
2309594003,-0.82,-0.62,0.12
2309596009,-0.82,-0.62,0.08
2309597987,-0.82,-0.62,0.08
2309599977,-0.82,-0.62,0.08
2309602096,-0.82,-0.62,0.08
2309603975,-0.82,-0.62,0.08
2309605980,-0.81,-0.60,0.12
2309607979,-0.81,-0.60,0.12
2309609981,-0.81,-0.60,0.12
2309611976,-0.81,-0.60,0.12
2309613976,-0.81,-0.60,0.12
2309615974,-0.81,-0.60,0.12
2309617980,-0.81,-0.57,0.14
2309619989,-0.81,-0.57,0.14
2309622057,-0.81,-0.57,0.14
2309624013,-0.81,-0.57,0.14
2309626098,-0.81,-0.57,0.14
2309628007,-0.86,-0.54,0.15
2309630006,-0.86,-0.54,0.15
2309632094,-0.86,-0.54,0.15
2309634033,-0.86,-0.54,0.15
2309636008,-0.86,-0.54,0.15
2309638010,-0.83,-0.51,0.20
2309640035,-0.83,-0.51,0.20
2309641977,-0.83,-0.51,0.20
2309643977,-0.83,-0.51,0.20
2309645975,-0.83,-0.51,0.20
2309647979,-0.85,-0.50,0.21
2309649977,-0.85,-0.50,0.21
2309652100,-0.85,-0.50,0.21
2309653976,-0.85,-0.50,0.21
2309655974,-0.85,-0.50,0.21
2309657979,-0.86,-0.50,0.21
2309659977,-0.86,-0.50,0.21
2309661977,-0.86,-0.50,0.21
2309664017,-0.86,-0.50,0.21
2309666003,-0.86,-0.50,0.21
2309668044,-0.86,-0.50,0.19
2309670026,-0.86,-0.50,0.19
2309672007,-0.86,-0.50,0.19
2309674002,-0.86,-0.50,0.19
2309676105,-0.86,-0.50,0.19
2309678010,-0.89,-0.54,0.11
2309679980,-0.89,-0.54,0.11
2309681980,-0.89,-0.54,0.11
2309683979,-0.89,-0.54,0.11
2309686010,-0.89,-0.54,0.11
2309688076,-0.84,-0.52,0.14
2309690030,-0.84,-0.52,0.14
2309691974,-0.84,-0.52,0.14
2309693981,-0.84,-0.52,0.14
2309695993,-0.84,-0.52,0.14
2309697986,-0.85,-0.55,0.17
2309699979,-0.85,-0.55,0.17
2309702099,-0.85,-0.55,0.17
2309704027,-0.85,-0.55,0.17
2309706004,-0.85,-0.55,0.17
2309708005,-0.88,-0.53,0.13
2309710003,-0.88,-0.53,0.13
2309712006,-0.88,-0.53,0.13
2309714002,-0.88,-0.53,0.13
2309716006,-0.88,-0.53,0.13
2309717977,-0.86,-0.50,0.16
2309719976,-0.86,-0.50,0.16
2309721980,-0.86,-0.50,0.16
2309723979,-0.86,-0.50,0.16
2309726081,-0.86,-0.50,0.16
2309727990,-0.86,-0.50,0.24
2309729977,-0.86,-0.50,0.24
2309731980,-0.86,-0.50,0.24
2309734142,-0.86,-0.50,0.24
2309736019,-0.86,-0.50,0.24
2309737977,-0.88,-0.51,0.24
2309739977,-0.88,-0.51,0.24
2309741974,-0.88,-0.51,0.24
2309744022,-0.88,-0.51,0.24
2309746001,-0.88,-0.51,0.24
2309748003,-0.84,-0.48,0.26
2309750006,-0.84,-0.48,0.26
2309752122,-0.84,-0.48,0.26
2309754007,-0.84,-0.48,0.26
2309756009,-0.84,-0.48,0.26
2309757980,-0.90,-0.52,0.26
2309759978,-0.90,-0.52,0.26
2309761979,-0.90,-0.52,0.26
2309763981,-0.90,-0.52,0.26
2309765976,-0.90,-0.52,0.26
2309767974,-0.79,-0.52,0.19
2309769980,-0.79,-0.52,0.19
2309771977,-0.79,-0.52,0.19
2309773981,-0.79,-0.52,0.19
2309776083,-0.79,-0.52,0.19
2309777991,-0.87,-0.61,0.17
2309779979,-0.87,-0.61,0.17
2309781978,-0.87,-0.61,0.17
2309784041,-0.87,-0.61,0.17
2309786014,-0.87,-0.61,0.17
2309788007,-0.82,-0.56,0.17
2309790042,-0.82,-0.56,0.17
2309792003,-0.82,-0.56,0.17
2309794008,-0.82,-0.56,0.17
2309796008,-0.82,-0.56,0.17
2309798015,-0.79,-0.55,0.20
2309799977,-0.79,-0.55,0.20
2309802099,-0.79,-0.55,0.20
2309803980,-0.79,-0.55,0.20
2309805979,-0.79,-0.55,0.20
2309807978,-0.79,-0.55,0.20
2309809974,-0.79,-0.54,0.19
2309811975,-0.79,-0.54,0.19
2309813979,-0.79,-0.54,0.19
2309815980,-0.79,-0.54,0.19
2309817979,-0.79,-0.54,0.19
2309819979,-0.78,-0.53,0.17
2309821976,-0.78,-0.53,0.17
2309824012,-0.78,-0.53,0.17
2309826095,-0.78,-0.53,0.17
2309828008,-0.78,-0.53,0.17
2309830000,-0.79,-0.56,0.15
2309832036,-0.79,-0.56,0.15
2309834008,-0.79,-0.56,0.15
2309836055,-0.79,-0.56,0.15
2309838008,-0.79,-0.56,0.15
2309840010,-0.81,-0.55,0.16
2309841979,-0.81,-0.55,0.16
2309843980,-0.81,-0.55,0.16
2309845979,-0.81,-0.55,0.16
2309847974,-0.81,-0.55,0.16
2309849978,-0.85,-0.60,0.14
2309852097,-0.85,-0.60,0.14
2309853979,-0.85,-0.60,0.14
2309855977,-0.85,-0.60,0.14
2309857984,-0.85,-0.60,0.14
2309859981,-0.82,-0.57,0.16
2309861979,-0.82,-0.57,0.16
2309864008,-0.82,-0.57,0.16
2309866005,-0.82,-0.57,0.16
2309868002,-0.82,-0.57,0.16
2309870001,-0.86,-0.65,0.14
2309872005,-0.86,-0.65,0.14
2309874005,-0.86,-0.65,0.14
2309876078,-0.86,-0.65,0.14
2309877987,-0.86,-0.65,0.14
2309879979,-0.83,-0.61,0.16
2309881983,-0.83,-0.61,0.16
2309883976,-0.83,-0.61,0.16
2309885999,-0.83,-0.61,0.16
2309888041,-0.83,-0.61,0.16
2309890114,-0.83,-0.66,0.14
2309892035,-0.83,-0.66,0.14
2309893981,-0.83,-0.66,0.14
2309895994,-0.83,-0.66,0.14
2309897987,-0.83,-0.66,0.14
2309899978,-0.79,-0.61,0.12
2309902099,-0.79,-0.61,0.12
