timestamp,accX,accY,accZ
2384986045,-0.84,-0.54,-0.08
2384987994,-0.84,-0.54,-0.08
2384989991,-0.84,-0.54,-0.08
2384991985,-0.84,-0.55,-0.08
2384993992,-0.84,-0.55,-0.08
2384995998,-0.84,-0.55,-0.08
2384997992,-0.84,-0.55,-0.08
2384999997,-0.84,-0.55,-0.08
2385002109,-0.83,-0.49,-0.14
2385003992,-0.83,-0.49,-0.14
2385005987,-0.83,-0.49,-0.14
2385007987,-0.83,-0.49,-0.14
2385009992,-0.83,-0.49,-0.14
2385011985,-0.84,-0.56,-0.11
2385013984,-0.84,-0.56,-0.11
2385015990,-0.84,-0.56,-0.11
2385017989,-0.84,-0.56,-0.11
2385019992,-0.84,-0.56,-0.11
2385021990,-0.85,-0.53,-0.07
2385023989,-0.85,-0.53,-0.07
2385026112,-0.85,-0.53,-0.07
2385028028,-0.85,-0.53,-0.07
2385030006,-0.85,-0.53,-0.07
2385032006,-0.84,-0.52,-0.09
2385034007,-0.84,-0.52,-0.09
2385036054,-0.84,-0.52,-0.09
2385038009,-0.84,-0.52,-0.09
2385040010,-0.84,-0.52,-0.09
2385041990,-0.83,-0.46,-0.12
2385043986,-0.83,-0.46,-0.12
2385045991,-0.83,-0.46,-0.12
2385047989,-0.83,-0.46,-0.12
2385049990,-0.83,-0.46,-0.12
2385052113,-0.86,-0.52,-0.10
2385053992,-0.86,-0.52,-0.10
2385055989,-0.86,-0.52,-0.10
2385057984,-0.86,-0.52,-0.10
2385059992,-0.86,-0.52,-0.10
2385061991,-0.83,-0.53,-0.09
2385063987,-0.83,-0.53,-0.09
2385066017,-0.83,-0.53,-0.09
2385068008,-0.83,-0.53,-0.09
2385070014,-0.83,-0.53,-0.09
2385072013,-0.84,-0.57,-0.08
2385074009,-0.84,-0.57,-0.08
2385076105,-0.84,-0.57,-0.08
2385078023,-0.84,-0.57,-0.08
2385079984,-0.84,-0.57,-0.08
2385081987,-0.83,-0.57,-0.09
2385083987,-0.83,-0.57,-0.09
2385085987,-0.83,-0.57,-0.09
2385087989,-0.83,-0.57,-0.09
2385089986,-0.83,-0.57,-0.09
2385091989,-0.83,-0.57,-0.09
2385093990,-0.83,-0.55,-0.10
2385095997,-0.83,-0.55,-0.10
2385097987,-0.83,-0.55,-0.10
2385099989,-0.83,-0.55,-0.10
2385102094,-0.83,-0.55,-0.10
2385103986,-0.83,-0.56,-0.11
2385106021,-0.83,-0.56,-0.11
2385108014,-0.83,-0.56,-0.11
2385110009,-0.83,-0.56,-0.11
2385112032,-0.83,-0.56,-0.11
2385114051,-0.83,-0.55,-0.09
2385116014,-0.83,-0.55,-0.09
2385118011,-0.83,-0.55,-0.09
2385120011,-0.83,-0.55,-0.09
2385121992,-0.83,-0.55,-0.09
2385123995,-0.84,-0.55,-0.08
2385126122,-0.84,-0.55,-0.08
2385127995,-0.84,-0.55,-0.08
2385129991,-0.84,-0.55,-0.08
2385131992,-0.84,-0.55,-0.08
2385134013,-0.82,-0.56,-0.09
2385136026,-0.82,-0.56,-0.09
2385138017,-0.82,-0.56,-0.09
2385139987,-0.82,-0.56,-0.09
2385141990,-0.82,-0.56,-0.09
2385143987,-0.83,-0.57,-0.09
2385146021,-0.83,-0.57,-0.09
2385148009,-0.83,-0.57,-0.09
2385150008,-0.83,-0.57,-0.09
2385152123,-0.83,-0.57,-0.09
2385154016,-0.83,-0.56,-0.08
2385156016,-0.83,-0.56,-0.08
2385158014,-0.83,-0.56,-0.08
2385159992,-0.83,-0.56,-0.08
2385161992,-0.83,-0.56,-0.08
2385163991,-0.83,-0.56,-0.09
2385165987,-0.83,-0.56,-0.09
2385167990,-0.83,-0.56,-0.09
2385169992,-0.83,-0.56,-0.09
2385172119,-0.83,-0.56,-0.09
2385174018,-0.84,-0.54,-0.09
2385176107,-0.84,-0.54,-0.09
2385178017,-0.84,-0.54,-0.09
2385179989,-0.84,-0.54,-0.09
2385181991,-0.84,-0.54,-0.09
2385183991,-0.84,-0.54,-0.10
2385186031,-0.84,-0.54,-0.10
2385188009,-0.84,-0.54,-0.10
2385190009,-0.84,-0.54,-0.10
2385192014,-0.84,-0.54,-0.10
2385194008,-0.84,-0.54,-0.08
2385196015,-0.84,-0.54,-0.08
2385198015,-0.84,-0.54,-0.08
2385199994,-0.84,-0.54,-0.08
2385202112,-0.84,-0.54,-0.08
2385203991,-0.84,-0.54,-0.08
2385205982,-0.84,-0.54,-0.08
2385207986,-0.84,-0.54,-0.08
2385209986,-0.84,-0.54,-0.08
2385211984,-0.84,-0.54,-0.08
2385213986,-0.84,-0.53,-0.08
2385215985,-0.84,-0.53,-0.08
2385218003,-0.84,-0.53,-0.08
2385220160,-0.84,-0.53,-0.08
2385222018,-0.84,-0.53,-0.08
2385223991,-0.84,-0.53,-0.08
2385226117,-0.84,-0.53,-0.08
2385228015,-0.84,-0.53,-0.08
2385230009,-0.84,-0.53,-0.08
2385232016,-0.84,-0.53,-0.08
2385234014,-0.84,-0.53,-0.09
2385236014,-0.84,-0.53,-0.09
2385238012,-0.84,-0.53,-0.09
2385239990,-0.84,-0.53,-0.09
2385241991,-0.84,-0.53,-0.09
2385243991,-0.84,-0.54,-0.09
2385245992,-0.84,-0.54,-0.09
2385247992,-0.84,-0.54,-0.09
2385249997,-0.84,-0.54,-0.09
2385252087,-0.84,-0.54,-0.09
2385253989,-0.84,-0.54,-0.09
2385255987,-0.84,-0.54,-0.09
2385257991,-0.84,-0.54,-0.09
2385259989,-0.84,-0.54,-0.09
2385261991,-0.84,-0.54,-0.09
2385263987,-0.84,-0.55,-0.09
2385266021,-0.84,-0.55,-0.09
2385268016,-0.84,-0.55,-0.09
2385270013,-0.84,-0.55,-0.09
2385272009,-0.84,-0.55,-0.09
2385274012,-0.83,-0.55,-0.09
2385276104,-0.83,-0.55,-0.09
2385278038,-0.83,-0.55,-0.09
2385279991,-0.83,-0.55,-0.09
2385281992,-0.83,-0.55,-0.09
2385283991,-0.83,-0.55,-0.09
2385286080,-0.83,-0.55,-0.09
2385288025,-0.83,-0.55,-0.09
2385289990,-0.83,-0.55,-0.09
2385291992,-0.83,-0.55,-0.09
2385293991,-0.83,-0.55,-0.09
2385295996,-0.83,-0.55,-0.09
2385297987,-0.83,-0.55,-0.09
2385299993,-0.83,-0.55,-0.09
2385302110,-0.83,-0.55,-0.09
2385303990,-0.83,-0.55,-0.09
2385306029,-0.83,-0.55,-0.10
2385308010,-0.83,-0.55,-0.10
2385310010,-0.83,-0.55,-0.10
2385312011,-0.83,-0.55,-0.10
2385314014,-0.83,-0.55,-0.10
2385316015,-0.83,-0.55,-0.09
2385318008,-0.83,-0.55,-0.09
2385319991,-0.83,-0.55,-0.09
2385321990,-0.83,-0.55,-0.09
2385323992,-0.83,-0.55,-0.09
2385326094,-0.84,-0.55,-0.09
2385327998,-0.84,-0.55,-0.09
2385329994,-0.84,-0.55,-0.09
2385331991,-0.84,-0.55,-0.09
2385333990,-0.84,-0.55,-0.09
2385335992,-0.83,-0.55,-0.09
2385337991,-0.83,-0.55,-0.09
2385340010,-0.83,-0.55,-0.09
2385342035,-0.83,-0.55,-0.09
2385344048,-0.83,-0.55,-0.09
2385346037,-0.84,-0.55,-0.10
2385348023,-0.84,-0.55,-0.10
2385350012,-0.84,-0.55,-0.10
2385352129,-0.84,-0.55,-0.10
2385354017,-0.84,-0.55,-0.10
2385356008,-0.83,-0.54,-0.09
2385358014,-0.83,-0.54,-0.09
2385360011,-0.83,-0.54,-0.09
2385361986,-0.83,-0.54,-0.09
2385363991,-0.83,-0.54,-0.09
2385365991,-0.84,-0.55,-0.09
2385367990,-0.84,-0.55,-0.09
2385369992,-0.84,-0.55,-0.09
2385371991,-0.84,-0.55,-0.09
2385373990,-0.84,-0.55,-0.09
2385376090,-0.84,-0.54,-0.09
2385378012,-0.84,-0.54,-0.09
2385379993,-0.84,-0.54,-0.09
2385381990,-0.84,-0.54,-0.09
2385383986,-0.84,-0.54,-0.09
2385386023,-0.85,-0.54,-0.08
2385388012,-0.85,-0.54,-0.08
2385390011,-0.85,-0.54,-0.08
2385392036,-0.85,-0.54,-0.08
2385394114,-0.85,-0.54,-0.08
2385396037,-0.84,-0.53,-0.07
2385398015,-0.84,-0.53,-0.07
2385400012,-0.84,-0.53,-0.07
2385402138,-0.84,-0.53,-0.07
2385403990,-0.84,-0.53,-0.07
2385405991,-0.84,-0.54,-0.09
2385407992,-0.84,-0.54,-0.09
2385409989,-0.84,-0.54,-0.09
2385411989,-0.84,-0.54,-0.09
2385413991,-0.84,-0.54,-0.09
2385415987,-0.84,-0.54,-0.08
2385417984,-0.84,-0.54,-0.08
2385419987,-0.84,-0.54,-0.08
2385421987,-0.84,-0.54,-0.08
2385423986,-0.84,-0.54,-0.08
2385426099,-0.84,-0.54,-0.07
2385428022,-0.84,-0.54,-0.07
2385430013,-0.84,-0.54,-0.07
2385432015,-0.84,-0.54,-0.07
2385434014,-0.84,-0.54,-0.07
2385436013,-0.84,-0.54,-0.08
2385437998,-0.84,-0.54,-0.08
2385439989,-0.84,-0.54,-0.08
2385441990,-0.84,-0.54,-0.08
2385443992,-0.84,-0.54,-0.08
2385445994,-0.84,-0.55,-0.08
2385447987,-0.84,-0.55,-0.08
2385449990,-0.84,-0.55,-0.08
2385452081,-0.84,-0.55,-0.08
2385453991,-0.84,-0.55,-0.08
2385455992,-0.84,-0.55,-0.08
2385457990,-0.84,-0.55,-0.08
2385459986,-0.84,-0.55,-0.08
2385461986,-0.84,-0.55,-0.08
2385463991,-0.84,-0.55,-0.08
2385466020,-0.83,-0.55,-0.08
2385468014,-0.83,-0.55,-0.08
2385470016,-0.83,-0.55,-0.08
2385472014,-0.83,-0.55,-0.08
2385474018,-0.83,-0.55,-0.08
2385476104,-0.83,-0.55,-0.08
2385478018,-0.84,-0.55,-0.08
2385479987,-0.84,-0.55,-0.08
2385481986,-0.84,-0.55,-0.08
2385483987,-0.84,-0.55,-0.08
2385485989,-0.84,-0.55,-0.08
2385487987,-0.83,-0.55,-0.08
2385489990,-0.83,-0.55,-0.08
2385491987,-0.83,-0.55,-0.08
2385493987,-0.83,-0.55,-0.08
2385495996,-0.83,-0.55,-0.08
2385498056,-0.84,-0.55,-0.08
2385500032,-0.84,-0.55,-0.08
2385502130,-0.84,-0.55,-0.08
2385503991,-0.84,-0.55,-0.08
2385506024,-0.84,-0.55,-0.08
2385508017,-0.83,-0.55,-0.09
2385510016,-0.83,-0.55,-0.09
2385512011,-0.83,-0.55,-0.09
2385514013,-0.83,-0.55,-0.09
2385516014,-0.83,-0.55,-0.09
2385518009,-0.84,-0.55,-0.09
2385519991,-0.84,-0.55,-0.09
2385521992,-0.84,-0.55,-0.09
2385523991,-0.84,-0.55,-0.09
2385526085,-0.84,-0.55,-0.09
2385527996,-0.84,-0.54,-0.09
2385529994,-0.84,-0.54,-0.09
2385531991,-0.84,-0.54,-0.09
2385533991,-0.84,-0.54,-0.09
2385535992,-0.84,-0.54,-0.09
2385537990,-0.83,-0.55,-0.09
2385539989,-0.83,-0.55,-0.09
2385541990,-0.83,-0.55,-0.09
2385543987,-0.83,-0.55,-0.09
2385546020,-0.83,-0.55,-0.09
2385548076,-0.83,-0.54,-0.09
2385550036,-0.83,-0.54,-0.09
2385552128,-0.83,-0.54,-0.09
2385554009,-0.83,-0.54,-0.09
2385556009,-0.83,-0.54,-0.09
2385558015,-0.84,-0.55,-0.09
2385560007,-0.84,-0.55,-0.09
2385562015,-0.84,-0.55,-0.09
2385563991,-0.84,-0.55,-0.09
2385565990,-0.84,-0.55,-0.09
2385567991,-0.84,-0.54,-0.09
2385569991,-0.84,-0.54,-0.09
2385571992,-0.84,-0.54,-0.09
2385573990,-0.84,-0.54,-0.09
2385576095,-0.84,-0.54,-0.09
2385578008,-0.84,-0.54,-0.09
2385579990,-0.84,-0.54,-0.09
2385581992,-0.84,-0.54,-0.09
2385583990,-0.84,-0.54,-0.09
2385586023,-0.84,-0.54,-0.09
2385588008,-0.83,-0.55,-0.09
2385590007,-0.83,-0.55,-0.09
2385592010,-0.83,-0.55,-0.09
2385594006,-0.83,-0.55,-0.09
2385596021,-0.83,-0.55,-0.09
2385598015,-0.83,-0.54,-0.09
2385599992,-0.83,-0.54,-0.09
2385602110,-0.83,-0.54,-0.09
2385603986,-0.83,-0.54,-0.09
2385605989,-0.83,-0.54,-0.09
2385607987,-0.85,-0.55,-0.09
2385609985,-0.85,-0.55,-0.09
2385612078,-0.85,-0.55,-0.09
2385614026,-0.85,-0.55,-0.09
2385615991,-0.85,-0.55,-0.09
2385617990,-0.84,-0.55,-0.10
2385619987,-0.84,-0.55,-0.10
2385622055,-0.84,-0.55,-0.10
2385623987,-0.84,-0.55,-0.10
2385626124,-0.84,-0.55,-0.10
2385628016,-0.84,-0.55,-0.09
2385630010,-0.84,-0.55,-0.09
2385632011,-0.84,-0.55,-0.09
2385634012,-0.84,-0.55,-0.09
2385636012,-0.84,-0.55,-0.09
2385638012,-0.84,-0.55,-0.10
2385639991,-0.84,-0.55,-0.10
2385641994,-0.84,-0.55,-0.10
2385643990,-0.84,-0.55,-0.10
2385645987,-0.84,-0.55,-0.10
2385647992,-0.83,-0.55,-0.11
2385649992,-0.83,-0.55,-0.11
2385652085,-0.83,-0.55,-0.11
2385653992,-0.83,-0.55,-0.11
2385655991,-0.83,-0.55,-0.11
2385657991,-0.83,-0.55,-0.11
2385659991,-0.82,-0.55,-0.12
2385661987,-0.82,-0.55,-0.12
2385663986,-0.82,-0.55,-0.12
2385666034,-0.82,-0.55,-0.12
2385668059,-0.82,-0.55,-0.12
2385670056,-0.82,-0.55,-0.11
2385672039,-0.82,-0.55,-0.11
2385674020,-0.82,-0.55,-0.11
2385676120,-0.82,-0.55,-0.11
2385678042,-0.82,-0.55,-0.11
2385680009,-0.84,-0.55,-0.12
2385682009,-0.84,-0.55,-0.12
2385684010,-0.84,-0.55,-0.12
2385685985,-0.84,-0.55,-0.12
2385687985,-0.84,-0.55,-0.12
2385689991,-0.84,-0.55,-0.11
2385691991,-0.84,-0.55,-0.11
2385693991,-0.84,-0.55,-0.11
2385695998,-0.84,-0.55,-0.11
2385697987,-0.84,-0.55,-0.11
2385699988,-0.83,-0.56,-0.10
2385702107,-0.83,-0.56,-0.10
2385703989,-0.83,-0.56,-0.10
2385706017,-0.83,-0.56,-0.10
2385708023,-0.83,-0.56,-0.10
2385710009,-0.83,-0.54,-0.09
2385712014,-0.83,-0.54,-0.09
2385714007,-0.83,-0.54,-0.09
2385716011,-0.83,-0.54,-0.09
2385718072,-0.83,-0.54,-0.09
2385720059,-0.84,-0.55,-0.10
2385721991,-0.84,-0.55,-0.10
2385723991,-0.84,-0.55,-0.10
2385726105,-0.84,-0.55,-0.10
2385727996,-0.84,-0.55,-0.10
2385729989,-0.83,-0.54,-0.08
2385731987,-0.83,-0.54,-0.08
2385733991,-0.83,-0.54,-0.08
2385735987,-0.83,-0.54,-0.08
2385737989,-0.83,-0.54,-0.08
2385739989,-0.84,-0.54,-0.08
2385741989,-0.84,-0.54,-0.08
2385743990,-0.84,-0.54,-0.08
2385746020,-0.84,-0.54,-0.08
2385748014,-0.84,-0.54,-0.08
2385750019,-0.84,-0.54,-0.07
2385752110,-0.84,-0.54,-0.07
2385754012,-0.84,-0.54,-0.07
2385756010,-0.84,-0.54,-0.07
2385758013,-0.84,-0.54,-0.07
2385759989,-0.84,-0.54,-0.07
2385761987,-0.84,-0.54,-0.07
2385763992,-0.84,-0.54,-0.07
2385765991,-0.84,-0.54,-0.07
2385767990,-0.84,-0.54,-0.07
2385769991,-0.84,-0.55,-0.06
2385771992,-0.84,-0.55,-0.06
2385773993,-0.84,-0.55,-0.06
2385776094,-0.84,-0.55,-0.06
2385778016,-0.84,-0.55,-0.06
2385779986,-0.84,-0.54,-0.06
2385781986,-0.84,-0.54,-0.06
2385783986,-0.84,-0.54,-0.06
2385786020,-0.84,-0.54,-0.06
2385788019,-0.84,-0.54,-0.06
2385790009,-0.84,-0.55,-0.06
2385792012,-0.84,-0.55,-0.06
2385794014,-0.84,-0.55,-0.06
2385796019,-0.84,-0.55,-0.06
2385798010,-0.84,-0.55,-0.06
2385799994,-0.84,-0.54,-0.05
2385802109,-0.84,-0.54,-0.05
2385803990,-0.84,-0.54,-0.05
2385805987,-0.84,-0.54,-0.05
2385807986,-0.84,-0.54,-0.05
2385809985,-0.84,-0.54,-0.07
2385811989,-0.84,-0.54,-0.07
2385813986,-0.84,-0.54,-0.07
2385815987,-0.84,-0.54,-0.07
2385817986,-0.84,-0.54,-0.07
2385819987,-0.84,-0.54,-0.06
2385821987,-0.84,-0.54,-0.06
2385823992,-0.84,-0.54,-0.06
2385826110,-0.84,-0.54,-0.06
2385828047,-0.84,-0.54,-0.06
2385830021,-0.84,-0.53,-0.07
2385832011,-0.84,-0.53,-0.07
2385834017,-0.84,-0.53,-0.07
2385836011,-0.84,-0.53,-0.07
2385838013,-0.84,-0.53,-0.07
2385840014,-0.84,-0.53,-0.07
2385842010,-0.84,-0.53,-0.07
2385843992,-0.84,-0.53,-0.07
2385845992,-0.84,-0.53,-0.07
2385847982,-0.84,-0.53,-0.07
2385849992,-0.84,-0.53,-0.07
2385852096,-0.85,-0.53,-0.07
2385854027,-0.85,-0.53,-0.07
2385855991,-0.85,-0.53,-0.07
2385857990,-0.85,-0.53,-0.07
2385859989,-0.85,-0.53,-0.07
2385861987,-0.85,-0.53,-0.07
2385863986,-0.85,-0.53,-0.07
2385865989,-0.85,-0.53,-0.07
2385868026,-0.85,-0.53,-0.07
2385870009,-0.85,-0.53,-0.07
2385872078,-0.85,-0.53,-0.08
2385874049,-0.85,-0.53,-0.08
2385876122,-0.85,-0.53,-0.08
2385878052,-0.85,-0.53,-0.08
2385880011,-0.85,-0.53,-0.08
2385882015,-0.85,-0.53,-0.08
2385884011,-0.85,-0.53,-0.08
2385885991,-0.85,-0.53,-0.08
2385887993,-0.85,-0.53,-0.08
2385889990,-0.85,-0.53,-0.08
2385891987,-0.84,-0.53,-0.09
2385893991,-0.84,-0.53,-0.09
2385895997,-0.84,-0.53,-0.09
2385897985,-0.84,-0.53,-0.09
2385899992,-0.84,-0.53,-0.09
2385902107,-0.84,-0.54,-0.09
2385903996,-0.84,-0.54,-0.09
2385905989,-0.84,-0.54,-0.09
2385908020,-0.84,-0.54,-0.09
2385910013,-0.84,-0.54,-0.09
2385912009,-0.83,-0.54,-0.09
2385914017,-0.83,-0.54,-0.09
2385916010,-0.83,-0.54,-0.09
2385918008,-0.83,-0.54,-0.09
2385920007,-0.83,-0.54,-0.09
2385921987,-0.83,-0.54,-0.11
2385923991,-0.83,-0.54,-0.11
2385926090,-0.83,-0.54,-0.11
2385927995,-0.83,-0.54,-0.11
2385929992,-0.83,-0.54,-0.11
2385931991,-0.84,-0.56,-0.10
2385934031,-0.84,-0.56,-0.10
2385936067,-0.84,-0.56,-0.10
2385938013,-0.84,-0.56,-0.10
2385939987,-0.84,-0.56,-0.10
2385941991,-0.84,-0.56,-0.10
2385943989,-0.84,-0.56,-0.10
2385945986,-0.84,-0.56,-0.10
2385948027,-0.84,-0.56,-0.10
2385950008,-0.84,-0.56,-0.10
2385952126,-0.83,-0.56,-0.11
2385954017,-0.83,-0.56,-0.11
2385956028,-0.83,-0.56,-0.11
2385958052,-0.83,-0.56,-0.11
2385960010,-0.83,-0.56,-0.11
2385962006,-0.82,-0.56,-0.11
2385963990,-0.82,-0.56,-0.11
2385965987,-0.82,-0.56,-0.11
2385967990,-0.82,-0.56,-0.11
2385969989,-0.82,-0.56,-0.11
2385971992,-0.83,-0.56,-0.11
2385973987,-0.83,-0.56,-0.11
2385976098,-0.83,-0.56,-0.11
2385978019,-0.83,-0.56,-0.11
2385980045,-0.83,-0.56,-0.11
2385982029,-0.83,-0.56,-0.11
2385983976,-0.83,-0.56,-0.11
2385985976,-0.83,-0.56,-0.11
2385988017,-0.83,-0.56,-0.11
2385990004,-0.83,-0.56,-0.11
2385992004,-0.83,-0.56,-0.11
2385994005,-0.83,-0.56,-0.11
2385996010,-0.83,-0.56,-0.11
2385998002,-0.83,-0.56,-0.11
2386000014,-0.83,-0.56,-0.11
2386002102,-0.83,-0.56,-0.11
2386003976,-0.83,-0.56,-0.11
2386005976,-0.83,-0.56,-0.11
2386007974,-0.83,-0.56,-0.11
2386009974,-0.83,-0.56,-0.11
2386011979,-0.84,-0.55,-0.10
2386013974,-0.84,-0.55,-0.10
2386015980,-0.84,-0.55,-0.10
2386017978,-0.84,-0.55,-0.10
2386019976,-0.84,-0.55,-0.10
2386021974,-0.84,-0.55,-0.10
2386023974,-0.84,-0.55,-0.10
2386026106,-0.84,-0.55,-0.10
2386028042,-0.84,-0.55,-0.10
2386030003,-0.84,-0.55,-0.10
2386032001,-0.84,-0.55,-0.10
2386034003,-0.84,-0.55,-0.10
2386036004,-0.84,-0.55,-0.10
2386038005,-0.84,-0.55,-0.10
2386040002,-0.84,-0.55,-0.10
2386041973,-0.84,-0.55,-0.10
2386043980,-0.84,-0.54,-0.10
2386045977,-0.84,-0.54,-0.10
2386047978,-0.84,-0.54,-0.10
2386049979,-0.84,-0.54,-0.10
2386052094,-0.84,-0.54,-0.10
2386053979,-0.84,-0.54,-0.09
2386055974,-0.84,-0.54,-0.09
2386057976,-0.84,-0.54,-0.09
2386059974,-0.84,-0.54,-0.09
2386061979,-0.84,-0.54,-0.09
2386063979,-0.84,-0.53,-0.08
2386065975,-0.84,-0.53,-0.08
2386068007,-0.84,-0.53,-0.08
2386070005,-0.84,-0.53,-0.08
2386072002,-0.84,-0.53,-0.08
2386074002,-0.85,-0.52,-0.08
2386076092,-0.85,-0.52,-0.08
2386078044,-0.85,-0.52,-0.08
2386080009,-0.85,-0.52,-0.08
2386081979,-0.85,-0.52,-0.08
2386083978,-0.84,-0.53,-0.07
2386085976,-0.84,-0.53,-0.07
2386087981,-0.84,-0.53,-0.07
2386089979,-0.84,-0.53,-0.07
2386091977,-0.84,-0.53,-0.07
2386093977,-0.84,-0.54,-0.08
2386095992,-0.84,-0.54,-0.08
2386098059,-0.84,-0.54,-0.08
2386100023,-0.84,-0.54,-0.08
2386102113,-0.84,-0.54,-0.08
2386103974,-0.84,-0.54,-0.06
2386105977,-0.84,-0.54,-0.06
2386108019,-0.84,-0.54,-0.06
2386110002,-0.84,-0.54,-0.06
2386112000,-0.84,-0.54,-0.06
2386114001,-0.84,-0.53,-0.06
2386116002,-0.84,-0.53,-0.06
2386118003,-0.84,-0.53,-0.06
2386120006,-0.84,-0.53,-0.06
2386121979,-0.84,-0.53,-0.06
2386123978,-0.84,-0.54,-0.07
2386125996,-0.84,-0.54,-0.07
2386127985,-0.84,-0.54,-0.07
2386129978,-0.84,-0.54,-0.07
2386131979,-0.84,-0.54,-0.07
2386133979,-0.84,-0.54,-0.07
2386135976,-0.84,-0.54,-0.07
2386137980,-0.84,-0.54,-0.07
2386139977,-0.84,-0.54,-0.07
2386141976,-0.84,-0.54,-0.07
2386143981,-0.84,-0.54,-0.07
2386145976,-0.84,-0.54,-0.07
2386148011,-0.84,-0.54,-0.07
2386150017,-0.84,-0.54,-0.07
2386152125,-0.84,-0.54,-0.07
2386154035,-0.84,-0.55,-0.07
2386156000,-0.84,-0.55,-0.07
2386158004,-0.84,-0.55,-0.07
2386160005,-0.84,-0.55,-0.07
2386162045,-0.84,-0.55,-0.07
2386164009,-0.83,-0.56,-0.08
2386165981,-0.83,-0.56,-0.08
2386167981,-0.83,-0.56,-0.08
2386169976,-0.83,-0.56,-0.08
2386171979,-0.83,-0.56,-0.08
2386173981,-0.83,-0.55,-0.09
2386176007,-0.83,-0.55,-0.09
2386178011,-0.83,-0.55,-0.09
2386179973,-0.83,-0.55,-0.09
2386181976,-0.83,-0.55,-0.09
2386183973,-0.83,-0.56,-0.09
2386185977,-0.83,-0.56,-0.09
2386188015,-0.83,-0.56,-0.09
2386190002,-0.83,-0.56,-0.09
2386192000,-0.83,-0.56,-0.09
2386194005,-0.83,-0.55,-0.10
2386196004,-0.83,-0.55,-0.10
2386198058,-0.83,-0.55,-0.10
2386200043,-0.83,-0.55,-0.10
2386202039,-0.83,-0.55,-0.10
2386204015,-0.83,-0.55,-0.10
2386205979,-0.83,-0.55,-0.10
2386207979,-0.83,-0.55,-0.10
2386209979,-0.83,-0.55,-0.10
2386211977,-0.83,-0.55,-0.10
2386213980,-0.84,-0.55,-0.10
2386215977,-0.84,-0.55,-0.10
2386217977,-0.84,-0.55,-0.10
2386219977,-0.84,-0.55,-0.10
2386221974,-0.84,-0.55,-0.10
2386223977,-0.84,-0.55,-0.10
2386226154,-0.84,-0.55,-0.11
2386228042,-0.84,-0.55,-0.11
2386230018,-0.84,-0.55,-0.11
2386232010,-0.84,-0.55,-0.11
2386233999,-0.84,-0.55,-0.11
2386236001,-0.84,-0.55,-0.11
2386237997,-0.84,-0.55,-0.11
2386240005,-0.84,-0.55,-0.11
2386242006,-0.84,-0.55,-0.11
2386243984,-0.84,-0.55,-0.11
2386245977,-0.84,-0.55,-0.11
2386247983,-0.84,-0.55,-0.11
2386249991,-0.84,-0.55,-0.11
2386251998,-0.84,-0.55,-0.11
2386253979,-0.84,-0.55,-0.11
2386255978,-0.83,-0.54,-0.11
2386257977,-0.83,-0.54,-0.11
2386259978,-0.83,-0.54,-0.11
2386262073,-0.83,-0.54,-0.11
2386264032,-0.83,-0.54,-0.11
2386265975,-0.84,-0.54,-0.11
2386267979,-0.84,-0.54,-0.11
2386270015,-0.84,-0.54,-0.11
2386272000,-0.84,-0.54,-0.11
2386274001,-0.84,-0.54,-0.11
2386276029,-0.84,-0.54,-0.10
2386278042,-0.84,-0.54,-0.10
2386280001,-0.84,-0.54,-0.10
2386282005,-0.84,-0.54,-0.10
2386283981,-0.84,-0.54,-0.10
2386285979,-0.84,-0.55,-0.10
2386287976,-0.84,-0.55,-0.10
2386289979,-0.84,-0.55,-0.10
2386291977,-0.84,-0.55,-0.10
2386293984,-0.84,-0.55,-0.10
2386295992,-0.84,-0.54,-0.09
2386297979,-0.84,-0.54,-0.09
2386299978,-0.84,-0.54,-0.09
2386302012,-0.84,-0.54,-0.09
2386303978,-0.84,-0.54,-0.09
2386305978,-0.83,-0.55,-0.09
2386307979,-0.83,-0.55,-0.09
2386310008,-0.83,-0.55,-0.09
2386312006,-0.83,-0.55,-0.09
2386314003,-0.83,-0.55,-0.09
2386316003,-0.84,-0.55,-0.08
2386318005,-0.84,-0.55,-0.08
2386320001,-0.84,-0.55,-0.08
2386322000,-0.84,-0.55,-0.08
2386323980,-0.84,-0.55,-0.08
2386325997,-0.84,-0.55,-0.09
2386327981,-0.84,-0.55,-0.09
2386329979,-0.84,-0.55,-0.09
2386331977,-0.84,-0.55,-0.09
2386333975,-0.84,-0.55,-0.09
2386336001,-0.84,-0.55,-0.09
2386338067,-0.84,-0.55,-0.09
2386340021,-0.84,-0.55,-0.09
2386341977,-0.84,-0.55,-0.09
2386343974,-0.84,-0.55,-0.09
2386345974,-0.84,-0.55,-0.09
2386347979,-0.84,-0.55,-0.09
2386350023,-0.84,-0.55,-0.09
2386352034,-0.84,-0.55,-0.09
2386354003,-0.84,-0.55,-0.09
2386356007,-0.83,-0.55,-0.09
2386358003,-0.83,-0.55,-0.09
2386360005,-0.83,-0.55,-0.09
2386362007,-0.83,-0.55,-0.09
2386363985,-0.83,-0.55,-0.09
2386366020,-0.83,-0.54,-0.08
2386367977,-0.83,-0.54,-0.08
2386369977,-0.83,-0.54,-0.08
2386371975,-0.83,-0.54,-0.08
2386373977,-0.83,-0.54,-0.08
2386376003,-0.84,-0.54,-0.08
2386378017,-0.84,-0.54,-0.08
2386379979,-0.84,-0.54,-0.08
2386381978,-0.84,-0.54,-0.08
2386383978,-0.84,-0.54,-0.08
2386385980,-0.84,-0.55,-0.08
2386387975,-0.84,-0.55,-0.08
2386390020,-0.84,-0.55,-0.08
2386392005,-0.84,-0.55,-0.08
2386394006,-0.84,-0.55,-0.08
2386396009,-0.84,-0.55,-0.08
2386398005,-0.84,-0.55,-0.08
2386400005,-0.84,-0.55,-0.08
2386402041,-0.84,-0.55,-0.08
2386403976,-0.84,-0.55,-0.08
2386405979,-0.84,-0.55,-0.08
2386407975,-0.84,-0.54,-0.08
2386409979,-0.84,-0.54,-0.08
2386411980,-0.84,-0.54,-0.08
2386413979,-0.84,-0.54,-0.08
2386415979,-0.84,-0.54,-0.08
2386417978,-0.84,-0.54,-0.07
2386419975,-0.84,-0.54,-0.07
2386421976,-0.84,-0.54,-0.07
2386423984,-0.84,-0.54,-0.07
2386425990,-0.84,-0.54,-0.07
2386427985,-0.83,-0.54,-0.08
2386430012,-0.83,-0.54,-0.08
2386432001,-0.83,-0.54,-0.08
2386434062,-0.83,-0.54,-0.08
2386436032,-0.83,-0.54,-0.08
2386438008,-0.84,-0.54,-0.08
2386440001,-0.84,-0.54,-0.08
2386442005,-0.84,-0.54,-0.08
2386444003,-0.84,-0.54,-0.08
2386445993,-0.84,-0.54,-0.08
2386447979,-0.84,-0.54,-0.08
2386449979,-0.84,-0.54,-0.08
2386452007,-0.84,-0.54,-0.08
2386453977,-0.84,-0.54,-0.08
2386455979,-0.84,-0.54,-0.08
2386457978,-0.84,-0.54,-0.08
2386459976,-0.84,-0.54,-0.08
2386461979,-0.84,-0.54,-0.08
2386463977,-0.84,-0.54,-0.08
2386465979,-0.84,-0.54,-0.08
2386467994,-0.84,-0.54,-0.08
2386470039,-0.84,-0.54,-0.08
2386472003,-0.84,-0.54,-0.08
2386474006,-0.84,-0.54,-0.08
2386476027,-0.84,-0.54,-0.08
2386478042,-0.84,-0.55,-0.08
2386479999,-0.84,-0.55,-0.08
2386482001,-0.84,-0.55,-0.08
2386483988,-0.84,-0.55,-0.08
2386485977,-0.84,-0.55,-0.08
2386487975,-0.84,-0.55,-0.09
2386489979,-0.84,-0.55,-0.09
2386491979,-0.84,-0.55,-0.09
2386494109,-0.84,-0.55,-0.09
2386496053,-0.84,-0.55,-0.09
2386498025,-0.83,-0.55,-0.09
2386499993,-0.83,-0.55,-0.09
2386502012,-0.83,-0.55,-0.09
2386503977,-0.83,-0.55,-0.09
2386505976,-0.83,-0.55,-0.09
2386507975,-0.84,-0.55,-0.09
2386510020,-0.84,-0.55,-0.09
2386511999,-0.84,-0.55,-0.09
2386514003,-0.84,-0.55,-0.09
2386516006,-0.84,-0.55,-0.09
2386518006,-0.83,-0.55,-0.09
2386520008,-0.83,-0.55,-0.09
2386522007,-0.83,-0.55,-0.09
2386523981,-0.83,-0.55,-0.09
2386525998,-0.83,-0.55,-0.09
2386527982,-0.83,-0.55,-0.09
2386529975,-0.83,-0.55,-0.09
2386531978,-0.83,-0.55,-0.09
2386533979,-0.83,-0.55,-0.09
2386535976,-0.83,-0.55,-0.09
2386537974,-0.84,-0.55,-0.09
2386539979,-0.84,-0.55,-0.09
2386541977,-0.84,-0.55,-0.09
2386543976,-0.84,-0.55,-0.09
2386545981,-0.84,-0.55,-0.09
2386547978,-0.84,-0.56,-0.10
2386550012,-0.84,-0.56,-0.10
2386552033,-0.84,-0.56,-0.10
2386554006,-0.84,-0.56,-0.10
2386556001,-0.84,-0.56,-0.10
2386558000,-0.84,-0.55,-0.09
2386560016,-0.84,-0.55,-0.09
2386562004,-0.84,-0.55,-0.09
2386563976,-0.84,-0.55,-0.09
2386565979,-0.84,-0.55,-0.09
2386567977,-0.84,-0.55,-0.10
2386569978,-0.84,-0.55,-0.10
2386571976,-0.84,-0.55,-0.10
2386573981,-0.84,-0.55,-0.10
2386576002,-0.84,-0.55,-0.10
2386578008,-0.83,-0.55,-0.09
2386579974,-0.83,-0.55,-0.09
2386581976,-0.83,-0.55,-0.09
2386583992,-0.83,-0.55,-0.09
2386586064,-0.83,-0.55,-0.09
2386588019,-0.83,-0.55,-0.10
2386590015,-0.83,-0.55,-0.10
2386592001,-0.83,-0.55,-0.10
2386594004,-0.83,-0.55,-0.10
2386596010,-0.83,-0.55,-0.10
2386598006,-0.83,-0.55,-0.10
2386600003,-0.83,-0.55,-0.10
2386602039,-0.83,-0.55,-0.10
2386603978,-0.83,-0.55,-0.10
2386605979,-0.83,-0.55,-0.10
2386607977,-0.83,-0.55,-0.10
2386609975,-0.83,-0.55,-0.09
2386611975,-0.83,-0.55,-0.09
2386613974,-0.83,-0.55,-0.09
2386615977,-0.83,-0.55,-0.09
2386617975,-0.83,-0.55,-0.09
2386619974,-0.84,-0.54,-0.10
2386622049,-0.84,-0.54,-0.10
2386623979,-0.84,-0.54,-0.10
2386625988,-0.84,-0.54,-0.10
2386627981,-0.84,-0.54,-0.10
2386630014,-0.84,-0.54,-0.09
2386632002,-0.84,-0.54,-0.09
2386634060,-0.84,-0.54,-0.09
2386636033,-0.84,-0.54,-0.09
2386638006,-0.84,-0.54,-0.09
2386640004,-0.84,-0.54,-0.09
2386642006,-0.84,-0.54,-0.09
2386644006,-0.84,-0.54,-0.09
2386645993,-0.84,-0.54,-0.09
2386647978,-0.84,-0.54,-0.09
2386649977,-0.84,-0.54,-0.09
2386652001,-0.84,-0.54,-0.09
2386653975,-0.84,-0.54,-0.09
2386655977,-0.84,-0.54,-0.09
2386657978,-0.84,-0.54,-0.09
2386659975,-0.83,-0.55,-0.09
2386661981,-0.83,-0.55,-0.09
2386663978,-0.83,-0.55,-0.09
2386665979,-0.83,-0.55,-0.09
2386667976,-0.83,-0.55,-0.09
2386670013,-0.84,-0.54,-0.09
2386672007,-0.84,-0.54,-0.09
2386674050,-0.84,-0.54,-0.09
2386676026,-0.84,-0.54,-0.09
2386678049,-0.84,-0.54,-0.09
2386680004,-0.84,-0.55,-0.09
2386682051,-0.84,-0.55,-0.09
2386684037,-0.84,-0.55,-0.09
2386686000,-0.84,-0.55,-0.09
2386688007,-0.84,-0.55,-0.09
2386689979,-0.84,-0.54,-0.08
2386691985,-0.84,-0.54,-0.08
2386693984,-0.84,-0.54,-0.08
2386695990,-0.84,-0.54,-0.08
2386697977,-0.84,-0.54,-0.08
2386699977,-0.84,-0.54,-0.08
2386702014,-0.84,-0.54,-0.08
2386703979,-0.84,-0.54,-0.08
2386705976,-0.84,-0.54,-0.08
2386707977,-0.84,-0.54,-0.08
2386710009,-0.84,-0.55,-0.08
2386712004,-0.84,-0.55,-0.08
2386714006,-0.84,-0.55,-0.08
2386716001,-0.84,-0.55,-0.08
2386718003,-0.84,-0.55,-0.08
2386720006,-0.84,-0.55,-0.08
2386721992,-0.84,-0.55,-0.08
2386723975,-0.84,-0.55,-0.08
2386725994,-0.84,-0.55,-0.08
2386727981,-0.84,-0.55,-0.08
2386730127,-0.84,-0.54,-0.08
2386732015,-0.84,-0.54,-0.08
2386733974,-0.84,-0.54,-0.08
2386735975,-0.84,-0.54,-0.08
2386737978,-0.84,-0.54,-0.08
2386739975,-0.84,-0.54,-0.08
2386741977,-0.84,-0.54,-0.08
2386743977,-0.84,-0.54,-0.08
2386745977,-0.84,-0.54,-0.08
2386747977,-0.84,-0.54,-0.08
2386750019,-0.84,-0.55,-0.09
2386752032,-0.84,-0.55,-0.09
2386754005,-0.84,-0.55,-0.09
2386756009,-0.84,-0.55,-0.09
2386758009,-0.84,-0.55,-0.09
2386760003,-0.84,-0.55,-0.08
2386762009,-0.84,-0.55,-0.08
2386763976,-0.84,-0.55,-0.08
2386765976,-0.84,-0.55,-0.08
2386767980,-0.84,-0.55,-0.08
2386769976,-0.84,-0.55,-0.08
2386771978,-0.84,-0.55,-0.08
2386774006,-0.84,-0.55,-0.08
2386776036,-0.84,-0.55,-0.08
2386778112,-0.84,-0.55,-0.08
2386780031,-0.84,-0.54,-0.08
2386781976,-0.84,-0.54,-0.08
2386783976,-0.84,-0.54,-0.08
2386785974,-0.84,-0.54,-0.08
2386787975,-0.84,-0.54,-0.08
2386790020,-0.84,-0.54,-0.08
2386792005,-0.84,-0.54,-0.08
2386794006,-0.84,-0.54,-0.08
2386796012,-0.84,-0.54,-0.08
2386798004,-0.84,-0.54,-0.08
2386800005,-0.84,-0.54,-0.08
2386802039,-0.84,-0.54,-0.09
2386803979,-0.84,-0.54,-0.09
2386805980,-0.84,-0.54,-0.09
2386807981,-0.84,-0.54,-0.09
2386809981,-0.84,-0.54,-0.09
2386811981,-0.84,-0.54,-0.09
2386813984,-0.84,-0.54,-0.09
2386815979,-0.84,-0.54,-0.09
2386817978,-0.84,-0.54,-0.09
2386819984,-0.84,-0.54,-0.09
2386822146,-0.84,-0.54,-0.09
2386824014,-0.84,-0.54,-0.09
2386826094,-0.84,-0.54,-0.09
2386827988,-0.84,-0.54,-0.09
2386830019,-0.84,-0.54,-0.09
2386832003,-0.84,-0.54,-0.09
2386834002,-0.84,-0.54,-0.09
2386836005,-0.84,-0.54,-0.09
2386838007,-0.84,-0.54,-0.09
2386840004,-0.84,-0.54,-0.09
2386842007,-0.84,-0.54,-0.09
2386843979,-0.84,-0.54,-0.09
2386845980,-0.84,-0.54,-0.09
2386847976,-0.84,-0.54,-0.09
2386849978,-0.84,-0.54,-0.09
2386851995,-0.84,-0.54,-0.09
2386853976,-0.84,-0.54,-0.09
2386855979,-0.84,-0.54,-0.09
2386857978,-0.84,-0.54,-0.09
2386859979,-0.84,-0.54,-0.09
2386861977,-0.84,-0.54,-0.09
2386863978,-0.84,-0.54,-0.09
2386865979,-0.84,-0.54,-0.09
2386867977,-0.84,-0.54,-0.09
2386870095,-0.84,-0.54,-0.09
2386872046,-0.84,-0.54,-0.09
2386874005,-0.84,-0.54,-0.09
2386876112,-0.84,-0.54,-0.09
2386878050,-0.84,-0.54,-0.09
2386880040,-0.84,-0.54,-0.09
2386882007,-0.83,-0.55,-0.10
2386884002,-0.83,-0.55,-0.10
2386886005,-0.83,-0.55,-0.10
2386888008,-0.83,-0.55,-0.10
2386889980,-0.83,-0.55,-0.10
2386891976,-0.83,-0.55,-0.10
2386893977,-0.83,-0.55,-0.10
2386895987,-0.83,-0.55,-0.10
2386897975,-0.83,-0.55,-0.10
2386899983,-0.83,-0.55,-0.10
2386902012,-0.83,-0.55,-0.09
2386903977,-0.83,-0.55,-0.09
2386905976,-0.83,-0.55,-0.09
2386907978,-0.83,-0.55,-0.09
2386909974,-0.83,-0.55,-0.09
2386912006,-0.84,-0.55,-0.09
2386914000,-0.84,-0.55,-0.09
2386916070,-0.84,-0.55,-0.09
2386918044,-0.84,-0.55,-0.09
2386920003,-0.84,-0.55,-0.09
2386922005,-0.83,-0.55,-0.09
2386924007,-0.83,-0.55,-0.09
2386926022,-0.83,-0.55,-0.09
2386927991,-0.83,-0.55,-0.09
2386929978,-0.83,-0.55,-0.09
2386931979,-0.83,-0.55,-0.09
2386933976,-0.83,-0.55,-0.09
2386935979,-0.83,-0.55,-0.09
2386937978,-0.83,-0.55,-0.09
2386939977,-0.83,-0.55,-0.09
2386941977,-0.84,-0.55,-0.09
2386943977,-0.84,-0.55,-0.09
2386945975,-0.84,-0.55,-0.09
2386947975,-0.84,-0.55,-0.09
2386949980,-0.84,-0.55,-0.09
2386952031,-0.83,-0.55,-0.08
2386954005,-0.83,-0.55,-0.08
2386956003,-0.83,-0.55,-0.08
2386958008,-0.83,-0.55,-0.08
2386960008,-0.83,-0.55,-0.08
2386962005,-0.83,-0.55,-0.09
2386964010,-0.83,-0.55,-0.09
2386965979,-0.83,-0.55,-0.09
2386967979,-0.83,-0.55,-0.09
2386969977,-0.83,-0.55,-0.09
2386971976,-0.83,-0.55,-0.09
2386973980,-0.83,-0.55,-0.10
2386975996,-0.83,-0.55,-0.10
2386978040,-0.83,-0.55,-0.10
2386980036,-0.83,-0.55,-0.10
2386982034,-0.83,-0.55,-0.10
2386983975,-0.83,-0.55,-0.09
2386985980,-0.83,-0.55,-0.09
2386987974,-0.83,-0.55,-0.09
2386989974,-0.83,-0.55,-0.09
2386992019,-0.83,-0.55,-0.09
2386994001,-0.84,-0.54,-0.09
2386996007,-0.84,-0.54,-0.09
2386998003,-0.84,-0.54,-0.09
2387000012,-0.84,-0.54,-0.09
2387002041,-0.84,-0.54,-0.09
2387004009,-0.84,-0.55,-0.09
2387005978,-0.84,-0.55,-0.09
2387007979,-0.84,-0.55,-0.09
2387009979,-0.84,-0.55,-0.09
2387011976,-0.84,-0.55,-0.09
2387013981,-0.83,-0.54,-0.07
2387015980,-0.83,-0.54,-0.07
2387017983,-0.83,-0.54,-0.07
2387019984,-0.83,-0.54,-0.07
2387021981,-0.83,-0.54,-0.07
2387023977,-0.84,-0.54,-0.09
2387026005,-0.84,-0.54,-0.09
2387028067,-0.84,-0.54,-0.09
2387030023,-0.84,-0.54,-0.09
2387032018,-0.84,-0.54,-0.09
2387034005,-0.83,-0.54,-0.09
2387036005,-0.83,-0.54,-0.09
2387038005,-0.83,-0.54,-0.09
2387040003,-0.83,-0.54,-0.09
2387042005,-0.83,-0.54,-0.09
2387044005,-0.84,-0.54,-0.08
2387045980,-0.84,-0.54,-0.08
2387047981,-0.84,-0.54,-0.08
2387049979,-0.84,-0.54,-0.08
2387052008,-0.84,-0.54,-0.08
2387053973,-0.84,-0.54,-0.08
2387055980,-0.84,-0.54,-0.08
2387057978,-0.84,-0.54,-0.08
2387059980,-0.84,-0.54,-0.08
2387061973,-0.84,-0.54,-0.08
2387063978,-0.84,-0.54,-0.08
2387065976,-0.84,-0.54,-0.08
2387067984,-0.84,-0.54,-0.08
2387069978,-0.84,-0.54,-0.08
2387072011,-0.84,-0.54,-0.08
2387074009,-0.84,-0.54,-0.08
2387076015,-0.84,-0.54,-0.08
2387078007,-0.84,-0.54,-0.08
2387080006,-0.84,-0.54,-0.08
2387082036,-0.84,-0.54,-0.08
2387084055,-0.83,-0.54,-0.08
2387086006,-0.83,-0.54,-0.08
2387087978,-0.83,-0.54,-0.08
2387089981,-0.83,-0.54,-0.08
2387091980,-0.83,-0.54,-0.08
2387093977,-0.83,-0.54,-0.08
2387095992,-0.83,-0.54,-0.08
2387097975,-0.83,-0.54,-0.08
2387099975,-0.83,-0.54,-0.08
2387102019,-0.83,-0.54,-0.08
2387104062,-0.84,-0.55,-0.08
2387106025,-0.84,-0.55,-0.08
2387107980,-0.84,-0.55,-0.08
2387109979,-0.84,-0.55,-0.08
2387112019,-0.84,-0.55,-0.08
2387114004,-0.84,-0.55,-0.08
2387116003,-0.84,-0.55,-0.08
2387118003,-0.84,-0.55,-0.08
2387119999,-0.84,-0.55,-0.08
2387122000,-0.84,-0.55,-0.08
2387124006,-0.84,-0.55,-0.09
2387126010,-0.84,-0.55,-0.09
2387127987,-0.84,-0.55,-0.09
2387129976,-0.84,-0.55,-0.09
2387131976,-0.84,-0.55,-0.09
2387133981,-0.83,-0.55,-0.09
2387135978,-0.83,-0.55,-0.09
2387137979,-0.83,-0.55,-0.09
2387139977,-0.83,-0.55,-0.09
2387141978,-0.83,-0.55,-0.09
2387143978,-0.84,-0.55,-0.08
2387145976,-0.84,-0.55,-0.08
2387147987,-0.84,-0.55,-0.08
2387150106,-0.84,-0.55,-0.08
2387152076,-0.84,-0.55,-0.08
2387154004,-0.84,-0.55,-0.08
2387156005,-0.84,-0.55,-0.08
2387158002,-0.84,-0.55,-0.08
2387160006,-0.84,-0.55,-0.08
2387162007,-0.84,-0.55,-0.08
2387164008,-0.84,-0.55,-0.08
2387165976,-0.84,-0.55,-0.08
2387167981,-0.84,-0.55,-0.08
2387169980,-0.84,-0.55,-0.08
2387171980,-0.84,-0.55,-0.08
2387173979,-0.84,-0.55,-0.08
2387175995,-0.84,-0.54,-0.09
2387177979,-0.84,-0.54,-0.09
2387179981,-0.84,-0.54,-0.09
2387182003,-0.84,-0.54,-0.09
2387183980,-0.84,-0.54,-0.09
2387186023,-0.84,-0.54,-0.09
2387187979,-0.84,-0.54,-0.09
2387189978,-0.84,-0.54,-0.09
2387192020,-0.84,-0.54,-0.09
2387194009,-0.84,-0.54,-0.09
2387196051,-0.84,-0.54,-0.09
2387198039,-0.84,-0.54,-0.09
2387200004,-0.84,-0.54,-0.09
2387202036,-0.84,-0.54,-0.09
2387204005,-0.84,-0.54,-0.09
2387206003,-0.84,-0.54,-0.09
2387208009,-0.84,-0.54,-0.09
2387209979,-0.84,-0.54,-0.09
2387211977,-0.84,-0.54,-0.09
2387213977,-0.84,-0.54,-0.09
2387215986,-0.84,-0.54,-0.09
2387217979,-0.84,-0.54,-0.09
2387219980,-0.84,-0.54,-0.09
2387221977,-0.84,-0.54,-0.09
2387223977,-0.84,-0.54,-0.09
2387226089,-0.84,-0.54,-0.10
2387227987,-0.84,-0.54,-0.10
2387229979,-0.84,-0.54,-0.10
2387232008,-0.84,-0.54,-0.10
2387234004,-0.84,-0.54,-0.10
2387236002,-0.84,-0.54,-0.10
2387238006,-0.84,-0.54,-0.10
2387240006,-0.84,-0.54,-0.10
2387242007,-0.84,-0.54,-0.10
2387244055,-0.84,-0.54,-0.10
2387246045,-0.84,-0.54,-0.10
2387248007,-0.84,-0.54,-0.10
2387249990,-0.84,-0.54,-0.10
2387252005,-0.84,-0.54,-0.10
2387253980,-0.84,-0.54,-0.10
2387255979,-0.83,-0.55,-0.09
2387257979,-0.83,-0.55,-0.09
2387259977,-0.83,-0.55,-0.09
2387261976,-0.83,-0.55,-0.09
2387263979,-0.83,-0.55,-0.09
2387265979,-0.83,-0.55,-0.09
2387267978,-0.83,-0.55,-0.09
2387269976,-0.83,-0.55,-0.09
2387272018,-0.83,-0.55,-0.09
2387274004,-0.83,-0.55,-0.09
2387276101,-0.83,-0.55,-0.09
2387278006,-0.83,-0.55,-0.09
2387280008,-0.83,-0.55,-0.09
2387282048,-0.83,-0.55,-0.09
2387284012,-0.83,-0.55,-0.09
2387286028,-0.84,-0.55,-0.10
2387287979,-0.84,-0.55,-0.10
2387289991,-0.84,-0.55,-0.10
2387292014,-0.84,-0.55,-0.10
2387293991,-0.84,-0.55,-0.10
2387296063,-0.84,-0.55,-0.10
2387298021,-0.84,-0.55,-0.10
2387299981,-0.84,-0.55,-0.10
2387302009,-0.84,-0.55,-0.10
2387303973,-0.84,-0.55,-0.10
2387305975,-0.83,-0.56,-0.10
2387307980,-0.83,-0.56,-0.10
2387309980,-0.83,-0.56,-0.10
2387312028,-0.83,-0.56,-0.10
2387314000,-0.83,-0.56,-0.10
2387316002,-0.83,-0.55,-0.10
2387318005,-0.83,-0.55,-0.10
2387320003,-0.83,-0.55,-0.10
2387322005,-0.83,-0.55,-0.10
2387324006,-0.83,-0.55,-0.10
2387326004,-0.83,-0.56,-0.10
2387327985,-0.83,-0.56,-0.10
2387329975,-0.83,-0.56,-0.10
2387331981,-0.83,-0.56,-0.10
2387333977,-0.83,-0.56,-0.10
2387335978,-0.83,-0.55,-0.10
2387337976,-0.83,-0.55,-0.10
2387339979,-0.83,-0.55,-0.10
2387341977,-0.83,-0.55,-0.10
2387343980,-0.83,-0.55,-0.10
2387345977,-0.83,-0.55,-0.10
2387347981,-0.83,-0.55,-0.10
2387349980,-0.83,-0.55,-0.10
2387352094,-0.83,-0.55,-0.10
2387354038,-0.83,-0.55,-0.10
2387356003,-0.83,-0.55,-0.10
2387358003,-0.83,-0.55,-0.10
2387360001,-0.83,-0.55,-0.10
2387362002,-0.83,-0.55,-0.10
2387364004,-0.83,-0.55,-0.10
2387366013,-0.83,-0.55,-0.10
2387367977,-0.84,-0.54,-0.09
2387369984,-0.84,-0.54,-0.09
2387371981,-0.84,-0.54,-0.09
2387373979,-0.84,-0.54,-0.09
2387376002,-0.84,-0.54,-0.09
2387377986,-0.84,-0.54,-0.09
2387379977,-0.84,-0.54,-0.09
2387382009,-0.84,-0.54,-0.09
2387383974,-0.84,-0.54,-0.09
2387385976,-0.84,-0.54,-0.09
2387387977,-0.84,-0.54,-0.08
2387390024,-0.84,-0.54,-0.08
2387392018,-0.84,-0.54,-0.08
2387394008,-0.84,-0.54,-0.08
2387396010,-0.84,-0.54,-0.08
2387398054,-0.84,-0.54,-0.08
2387400045,-0.84,-0.54,-0.08
2387402041,-0.84,-0.54,-0.08
2387404008,-0.84,-0.54,-0.08
2387406007,-0.84,-0.54,-0.08
2387408008,-0.83,-0.54,-0.08
2387409976,-0.83,-0.54,-0.08
2387411988,-0.83,-0.54,-0.08
2387413986,-0.83,-0.54,-0.08
2387415977,-0.83,-0.54,-0.08
2387417975,-0.84,-0.54,-0.09
2387419981,-0.84,-0.54,-0.09
2387421980,-0.84,-0.54,-0.09
2387423980,-0.84,-0.54,-0.09
2387425997,-0.84,-0.54,-0.09
2387427985,-0.84,-0.54,-0.08
2387429976,-0.84,-0.54,-0.08
2387432019,-0.84,-0.54,-0.08
2387434006,-0.84,-0.54,-0.08
2387436006,-0.84,-0.54,-0.08
2387438005,-0.83,-0.55,-0.08
2387440006,-0.83,-0.55,-0.08
2387442011,-0.83,-0.55,-0.08
2387444018,-0.83,-0.55,-0.08
2387446050,-0.83,-0.55,-0.08
2387448007,-0.84,-0.55,-0.08
2387449977,-0.84,-0.55,-0.08
2387451998,-0.84,-0.55,-0.08
2387453976,-0.84,-0.55,-0.08
2387455979,-0.84,-0.55,-0.08
2387457977,-0.84,-0.55,-0.08
2387459979,-0.84,-0.55,-0.08
2387461975,-0.84,-0.55,-0.08
2387463979,-0.84,-0.55,-0.08
2387465979,-0.84,-0.55,-0.08
2387467978,-0.83,-0.54,-0.09
2387469975,-0.83,-0.54,-0.09
2387472018,-0.83,-0.54,-0.09
2387474003,-0.83,-0.54,-0.09
2387476015,-0.83,-0.54,-0.09
2387478011,-0.84,-0.55,-0.08
2387480006,-0.84,-0.55,-0.08
2387482046,-0.84,-0.55,-0.08
2387484011,-0.84,-0.55,-0.08
2387485984,-0.84,-0.55,-0.08
2387487984,-0.84,-0.54,-0.08
2387489984,-0.84,-0.54,-0.08
2387491995,-0.84,-0.54,-0.08
2387494065,-0.84,-0.54,-0.08
2387496023,-0.84,-0.54,-0.08
2387497978,-0.84,-0.54,-0.09
2387499992,-0.84,-0.54,-0.09
2387502013,-0.84,-0.54,-0.09
2387503978,-0.84,-0.54,-0.09
2387505978,-0.84,-0.54,-0.09
2387507977,-0.83,-0.55,-0.08
2387509974,-0.83,-0.55,-0.08
2387512025,-0.83,-0.55,-0.08
2387514003,-0.83,-0.55,-0.08
2387516001,-0.83,-0.55,-0.08
2387518008,-0.84,-0.54,-0.09
2387520003,-0.84,-0.54,-0.09
2387522000,-0.84,-0.54,-0.09
2387524009,-0.84,-0.54,-0.09
2387525995,-0.84,-0.54,-0.09
2387527986,-0.84,-0.54,-0.09
2387529979,-0.84,-0.55,-0.08
2387531975,-0.84,-0.55,-0.08
2387533979,-0.84,-0.55,-0.08
2387535977,-0.84,-0.55,-0.08
2387537977,-0.84,-0.55,-0.08
2387539977,-0.84,-0.54,-0.08
2387541978,-0.84,-0.54,-0.08
2387543985,-0.84,-0.54,-0.08
2387545980,-0.84,-0.54,-0.08
2387547977,-0.84,-0.54,-0.08
2387549979,-0.84,-0.55,-0.09
2387552027,-0.84,-0.55,-0.09
2387554001,-0.84,-0.55,-0.09
2387555999,-0.84,-0.55,-0.09
2387558005,-0.84,-0.55,-0.09
2387560001,-0.84,-0.55,-0.09
2387562003,-0.84,-0.55,-0.09
2387564002,-0.84,-0.55,-0.09
2387565980,-0.84,-0.55,-0.09
2387567980,-0.84,-0.55,-0.09
2387569978,-0.84,-0.55,-0.09
2387571980,-0.84,-0.55,-0.09
2387573977,-0.84,-0.55,-0.09
2387575997,-0.84,-0.55,-0.09
2387577978,-0.84,-0.55,-0.09
2387579980,-0.84,-0.54,-0.09
2387582012,-0.84,-0.54,-0.09
2387583977,-0.84,-0.54,-0.09
2387585977,-0.84,-0.54,-0.09
2387587978,-0.84,-0.54,-0.09
2387589978,-0.84,-0.54,-0.09
2387592014,-0.84,-0.54,-0.09
2387594008,-0.84,-0.54,-0.09
2387596061,-0.84,-0.54,-0.09
2387598005,-0.84,-0.54,-0.09
2387600025,-0.84,-0.54,-0.09
2387602056,-0.84,-0.54,-0.09
2387604008,-0.84,-0.54,-0.09
2387606005,-0.84,-0.54,-0.09
2387608017,-0.84,-0.54,-0.09
2387609981,-0.84,-0.55,-0.09
2387611980,-0.84,-0.55,-0.09
2387613979,-0.84,-0.55,-0.09
2387615976,-0.84,-0.55,-0.09
2387617976,-0.84,-0.55,-0.09
2387619976,-0.84,-0.55,-0.09
2387622052,-0.84,-0.55,-0.09
2387623979,-0.84,-0.55,-0.09
2387626086,-0.84,-0.55,-0.09
2387627987,-0.84,-0.55,-0.09
2387629976,-0.84,-0.55,-0.09
2387632009,-0.84,-0.55,-0.09
2387634002,-0.84,-0.55,-0.09
2387636006,-0.84,-0.55,-0.09
2387638003,-0.84,-0.55,-0.09
2387640005,-0.83,-0.55,-0.09
2387642001,-0.83,-0.55,-0.09
2387643991,-0.83,-0.55,-0.09
2387645978,-0.83,-0.55,-0.09
2387647980,-0.83,-0.55,-0.09
2387649980,-0.82,-0.56,-0.09
2387651995,-0.82,-0.56,-0.09
2387653979,-0.82,-0.56,-0.09
2387655975,-0.82,-0.56,-0.09
2387657979,-0.82,-0.56,-0.09
2387659977,-0.83,-0.55,-0.10
2387661980,-0.83,-0.55,-0.10
2387663979,-0.83,-0.55,-0.10
2387665979,-0.83,-0.55,-0.10
2387667978,-0.83,-0.55,-0.10
2387669975,-0.84,-0.55,-0.11
2387672029,-0.84,-0.55,-0.11
2387673974,-0.84,-0.55,-0.11
2387676067,-0.84,-0.55,-0.11
2387677970,-0.84,-0.55,-0.11
2387679960,-0.84,-0.55,-0.09
2387682011,-0.84,-0.55,-0.09
2387683953,-0.84,-0.55,-0.09
2387685957,-0.84,-0.55,-0.09
2387687958,-0.84,-0.55,-0.09
2387689955,-0.84,-0.55,-0.09
2387691958,-0.84,-0.55,-0.09
2387693957,-0.84,-0.55,-0.09
2387695988,-0.84,-0.55,-0.09
2387698026,-0.84,-0.55,-0.09
2387699963,-0.84,-0.55,-0.09
2387701995,-0.84,-0.55,-0.09
2387703957,-0.84,-0.55,-0.09
2387705953,-0.84,-0.55,-0.09
2387707955,-0.84,-0.55,-0.09
2387709955,-0.84,-0.55,-0.09
2387711957,-0.84,-0.55,-0.09
2387713955,-0.84,-0.55,-0.09
2387715955,-0.84,-0.55,-0.09
2387717957,-0.84,-0.55,-0.09
2387719958,-0.84,-0.55,-0.09
2387824051,-0.84,-0.54,-0.09
2387826019,-0.84,-0.54,-0.09
2387828008,-0.84,-0.54,-0.09
2387830007,-0.84,-0.54,-0.09
2387832006,-0.84,-0.55,-0.08
2387834001,-0.84,-0.55,-0.08
2387836006,-0.84,-0.55,-0.08
2387838006,-0.84,-0.55,-0.08
2387839981,-0.84,-0.55,-0.08
2387841980,-0.83,-0.56,-0.09
2387843981,-0.83,-0.56,-0.09
2387846000,-0.83,-0.56,-0.09
2387847979,-0.83,-0.56,-0.09
2387849978,-0.83,-0.56,-0.09
2387851994,-0.84,-0.55,-0.09
2387853979,-0.84,-0.55,-0.09
2387855977,-0.84,-0.55,-0.09
2387857977,-0.84,-0.55,-0.09
2387859977,-0.84,-0.55,-0.09
2387861976,-0.84,-0.54,-0.08
2387864016,-0.84,-0.54,-0.08
2387866004,-0.84,-0.54,-0.08
2387868001,-0.84,-0.54,-0.08
2387870017,-0.84,-0.54,-0.08
2387872038,-0.83,-0.54,-0.09
2387874010,-0.83,-0.54,-0.09
2387876018,-0.83,-0.54,-0.09
2387877997,-0.83,-0.54,-0.09
2387879984,-0.83,-0.54,-0.09
2387882013,-0.83,-0.55,-0.09
2387883980,-0.83,-0.55,-0.09
2387885979,-0.83,-0.55,-0.09
2387887978,-0.83,-0.55,-0.09
2387889978,-0.83,-0.55,-0.09
2387891978,-0.84,-0.54,-0.08
2387894038,-0.84,-0.54,-0.08
2387895988,-0.84,-0.54,-0.08
2387897977,-0.84,-0.54,-0.08
2387899980,-0.84,-0.54,-0.08
2387902046,-0.84,-0.55,-0.09
2387904022,-0.84,-0.55,-0.09
2387906002,-0.84,-0.55,-0.09
2387908003,-0.84,-0.55,-0.09
2387910005,-0.84,-0.55,-0.09
2387912000,-0.84,-0.55,-0.09
2387914004,-0.83,-0.54,-0.09
2387916002,-0.83,-0.54,-0.09
2387917979,-0.83,-0.54,-0.09
2387919984,-0.83,-0.54,-0.09
2387921980,-0.83,-0.54,-0.09
2387923979,-0.84,-0.54,-0.09
2387925996,-0.84,-0.54,-0.09
2387927981,-0.84,-0.54,-0.09
2387929980,-0.84,-0.54,-0.09
2387931980,-0.84,-0.54,-0.09
2387933980,-0.84,-0.54,-0.09
2387935979,-0.84,-0.54,-0.09
2387937979,-0.84,-0.54,-0.09
2387939980,-0.84,-0.54,-0.09
2387941979,-0.84,-0.54,-0.09
2387944008,-0.83,-0.55,-0.09
2387946005,-0.83,-0.55,-0.09
2387948002,-0.83,-0.55,-0.09
2387950001,-0.83,-0.55,-0.09
2387952018,-0.83,-0.55,-0.09
2387954007,-0.84,-0.54,-0.09
2387955976,-0.84,-0.54,-0.09
2387957976,-0.84,-0.54,-0.09
2387959975,-0.84,-0.54,-0.09
2387961976,-0.84,-0.54,-0.09
2387963976,-0.83,-0.55,-0.09
2387965981,-0.83,-0.55,-0.09
2387967981,-0.83,-0.55,-0.09
2387969980,-0.83,-0.55,-0.09
2387971987,-0.83,-0.55,-0.09
2387974060,-0.84,-0.55,-0.09
2387976030,-0.84,-0.55,-0.09
2387977985,-0.84,-0.55,-0.09
2387979980,-0.84,-0.55,-0.09
2387982012,-0.84,-0.55,-0.09
2387984020,-0.84,-0.54,-0.09
2387986005,-0.84,-0.54,-0.09
2387988005,-0.84,-0.54,-0.09
2387990007,-0.84,-0.54,-0.09
2387992006,-0.84,-0.54,-0.09
2387994002,-0.84,-0.55,-0.09
2387996010,-0.84,-0.55,-0.09
2387997981,-0.84,-0.55,-0.09
2387999996,-0.84,-0.55,-0.09
2388002012,-0.84,-0.55,-0.09
2388003997,-0.83,-0.55,-0.09
2388006012,-0.83,-0.55,-0.09
2388007975,-0.83,-0.55,-0.09
2388009977,-0.83,-0.55,-0.09
2388011976,-0.83,-0.55,-0.09
2388013976,-0.84,-0.55,-0.09
2388015975,-0.84,-0.55,-0.09
2388017975,-0.84,-0.55,-0.09
2388019979,-0.84,-0.55,-0.09
2388021976,-0.84,-0.55,-0.09
2388024020,-0.83,-0.55,-0.09
2388026107,-0.83,-0.55,-0.09
2388028008,-0.83,-0.55,-0.09
2388030000,-0.83,-0.55,-0.09
2388032005,-0.83,-0.55,-0.09
2388034002,-0.83,-0.55,-0.09
2388036007,-0.83,-0.55,-0.09
2388037978,-0.83,-0.55,-0.09
2388039981,-0.83,-0.55,-0.09
2388041980,-0.83,-0.55,-0.09
2388043980,-0.84,-0.55,-0.09
2388045980,-0.84,-0.55,-0.09
2388047977,-0.84,-0.55,-0.09
2388049979,-0.84,-0.55,-0.09
2388051992,-0.84,-0.55,-0.09
2388053980,-0.84,-0.55,-0.09
2388055979,-0.84,-0.55,-0.09
2388057979,-0.84,-0.55,-0.09
2388059978,-0.84,-0.55,-0.09
2388061980,-0.84,-0.55,-0.09
2388064008,-0.84,-0.55,-0.10
2388066007,-0.84,-0.55,-0.10
2388068008,-0.84,-0.55,-0.10
2388070035,-0.84,-0.55,-0.10
2388072038,-0.84,-0.55,-0.10
2388074029,-0.84,-0.55,-0.10
2388076082,-0.84,-0.55,-0.10
2388077971,-0.84,-0.55,-0.10
2388079960,-0.84,-0.55,-0.10
2388082003,-0.84,-0.55,-0.10
2388083958,-0.84,-0.55,-0.10
2388085958,-0.83,-0.55,-0.09
2388087957,-0.83,-0.55,-0.09
2388089958,-0.83,-0.55,-0.09
2388091958,-0.83,-0.55,-0.09
2388093954,-0.83,-0.55,-0.09
2388095978,-0.84,-0.54,-0.08
2388097953,-0.84,-0.54,-0.08
2388099960,-0.84,-0.54,-0.08
2388101992,-0.84,-0.54,-0.08
2388103958,-0.84,-0.54,-0.08
2388105986,-0.84,-0.54,-0.08
2388108062,-0.84,-0.54,-0.08
2388110045,-0.84,-0.54,-0.08
2388112027,-0.84,-0.54,-0.08
2388116010,-0.84,-0.54,-0.09
2388118000,-0.84,-0.54,-0.09
2388120004,-0.84,-0.54,-0.09
2388122004,-0.84,-0.54,-0.09
2388124003,-0.84,-0.54,-0.09
2388126023,-0.83,-0.54,-0.09
2388128006,-0.83,-0.54,-0.09
2388129979,-0.83,-0.54,-0.09
2388131980,-0.83,-0.54,-0.09
2388133980,-0.83,-0.54,-0.09
2388135977,-0.84,-0.54,-0.08
2388137977,-0.84,-0.54,-0.08
2388139975,-0.84,-0.54,-0.08
2388141980,-0.84,-0.54,-0.08
2388143980,-0.84,-0.54,-0.08
2388145975,-0.83,-0.55,-0.09
2388147978,-0.83,-0.55,-0.09
2388149977,-0.83,-0.55,-0.09
2388151992,-0.83,-0.55,-0.09
2388153974,-0.83,-0.55,-0.09
2388156007,-0.82,-0.55,-0.09
2388158005,-0.82,-0.55,-0.09
2388160004,-0.82,-0.55,-0.09
2388162005,-0.82,-0.55,-0.09
2388164008,-0.82,-0.55,-0.09
2388166005,-0.84,-0.54,-0.08
2388168028,-0.84,-0.54,-0.08
2388169984,-0.84,-0.54,-0.08
2388171980,-0.84,-0.54,-0.08
2388173976,-0.84,-0.54,-0.08
2388176002,-0.83,-0.55,-0.09
2388177987,-0.83,-0.55,-0.09
2388179980,-0.83,-0.55,-0.09
2388182007,-0.83,-0.55,-0.09
2388183975,-0.83,-0.55,-0.09
2388185977,-0.83,-0.55,-0.09
2388187977,-0.83,-0.55,-0.09
2388189975,-0.83,-0.55,-0.09
2388191975,-0.83,-0.55,-0.09
2388193976,-0.83,-0.55,-0.09
2388196017,-0.83,-0.55,-0.09
2388198006,-0.83,-0.55,-0.09
2388200006,-0.83,-0.55,-0.09
2388202035,-0.83,-0.55,-0.09
2388204005,-0.83,-0.55,-0.09
2388206006,-0.84,-0.55,-0.09
2388208008,-0.84,-0.55,-0.09
2388210031,-0.84,-0.55,-0.09
2388211974,-0.84,-0.55,-0.09
2388213980,-0.84,-0.55,-0.09
2388215977,-0.84,-0.55,-0.10
2388217978,-0.84,-0.55,-0.10
2388219977,-0.84,-0.55,-0.10
2388221978,-0.84,-0.55,-0.10
2388223977,-0.84,-0.55,-0.10
2388226154,-0.84,-0.55,-0.09
2388228033,-0.84,-0.55,-0.09
2388229989,-0.84,-0.55,-0.09
2388231977,-0.84,-0.55,-0.09
2388233977,-0.84,-0.55,-0.09
2388236019,-0.83,-0.54,-0.09
2388238005,-0.83,-0.54,-0.09
2388240001,-0.83,-0.54,-0.09
2388242004,-0.83,-0.54,-0.09
2388244007,-0.83,-0.54,-0.09
2388246005,-0.84,-0.55,-0.09
2388248030,-0.84,-0.55,-0.09
2388250025,-0.84,-0.55,-0.09
2388252001,-0.84,-0.55,-0.09
2388253980,-0.84,-0.55,-0.09
2388255979,-0.83,-0.55,-0.09
2388257979,-0.83,-0.55,-0.09
2388259977,-0.83,-0.55,-0.09
2388261979,-0.83,-0.55,-0.09
2388263979,-0.83,-0.55,-0.09
2388265974,-0.84,-0.54,-0.09
2388267976,-0.84,-0.54,-0.09
2388269975,-0.84,-0.54,-0.09
2388271977,-0.84,-0.54,-0.09
2388273975,-0.84,-0.54,-0.09
2388276018,-0.84,-0.54,-0.09
2388278007,-0.84,-0.54,-0.09
2388280005,-0.84,-0.54,-0.09
2388282065,-0.84,-0.54,-0.09
2388284010,-0.84,-0.54,-0.09
2388285958,-0.84,-0.54,-0.09
2388287959,-0.84,-0.54,-0.09
2388290057,-0.84,-0.54,-0.09
2388292040,-0.84,-0.54,-0.09
2388294004,-0.84,-0.54,-0.09
2388296008,-0.84,-0.54,-0.09
2388298016,-0.84,-0.54,-0.09
2388299981,-0.84,-0.54,-0.09
2388302011,-0.84,-0.54,-0.09
2388303980,-0.84,-0.54,-0.09
2388305979,-0.84,-0.54,-0.09
2388307979,-0.83,-0.54,-0.09
2388309977,-0.83,-0.54,-0.09
2388311977,-0.83,-0.54,-0.09
2388313990,-0.83,-0.54,-0.09
2388316053,-0.83,-0.54,-0.09
2388318005,-0.84,-0.54,-0.09
2388320006,-0.84,-0.54,-0.09
2388322004,-0.84,-0.54,-0.09
2388324007,-0.84,-0.54,-0.09
2388326019,-0.84,-0.54,-0.09
2388328013,-0.84,-0.55,-0.09
2388329981,-0.84,-0.55,-0.09
2388331976,-0.84,-0.55,-0.09
2388333977,-0.84,-0.55,-0.09
2388335979,-0.84,-0.55,-0.09
2388337980,-0.84,-0.54,-0.08
2388339979,-0.84,-0.54,-0.08
2388341980,-0.84,-0.54,-0.08
2388343976,-0.84,-0.54,-0.08
2388345979,-0.84,-0.54,-0.08
2388347979,-0.84,-0.55,-0.08
2388349980,-0.84,-0.55,-0.08
2388351993,-0.84,-0.55,-0.08
2388353975,-0.84,-0.55,-0.08
2388356012,-0.84,-0.55,-0.08
2388358003,-0.84,-0.55,-0.08
2388360002,-0.84,-0.55,-0.08
2388362002,-0.84,-0.55,-0.08
2388364008,-0.84,-0.55,-0.08
2388366006,-0.84,-0.55,-0.08
2388367977,-0.83,-0.55,-0.09
2388369979,-0.83,-0.55,-0.09
2388371980,-0.83,-0.55,-0.09
2388373981,-0.83,-0.55,-0.09
2388375997,-0.83,-0.55,-0.09
2388377982,-0.83,-0.55,-0.09
2388379983,-0.83,-0.55,-0.09
2388382012,-0.83,-0.55,-0.09
2388383977,-0.83,-0.55,-0.09
2388385975,-0.83,-0.55,-0.09
2388387977,-0.84,-0.55,-0.09
2388389976,-0.84,-0.55,-0.09
2388391976,-0.84,-0.55,-0.09
2388393980,-0.84,-0.55,-0.09
2388396047,-0.84,-0.55,-0.09
2388398039,-0.83,-0.55,-0.09
2388400002,-0.83,-0.55,-0.09
2388402037,-0.83,-0.55,-0.09
2388404008,-0.83,-0.55,-0.09
2388406008,-0.83,-0.55,-0.09
2388408003,-0.83,-0.55,-0.09
2388410008,-0.83,-0.55,-0.09
2388411979,-0.83,-0.55,-0.09
2388414028,-0.83,-0.55,-0.09
2388415977,-0.83,-0.55,-0.09
2388417977,-0.84,-0.54,-0.09
2388419976,-0.84,-0.54,-0.09
2388421976,-0.84,-0.54,-0.09
2388423976,-0.84,-0.54,-0.09
2388426091,-0.84,-0.54,-0.09
2388427990,-0.84,-0.55,-0.09
2388429976,-0.84,-0.55,-0.09
2388431977,-0.84,-0.55,-0.09
2388433977,-0.84,-0.55,-0.09
2388436026,-0.84,-0.55,-0.09
2388438009,-0.83,-0.54,-0.09
2388440006,-0.83,-0.54,-0.09
2388442006,-0.83,-0.54,-0.09
2388444004,-0.83,-0.54,-0.09
2388446012,-0.83,-0.54,-0.09
2388447980,-0.83,-0.55,-0.09
2388449979,-0.83,-0.55,-0.09
2388451995,-0.83,-0.55,-0.09
2388454037,-0.83,-0.55,-0.09
2388455977,-0.83,-0.55,-0.09
2388457976,-0.83,-0.55,-0.09
2388459980,-0.84,-0.54,-0.09
2388461980,-0.84,-0.54,-0.09
2388463980,-0.84,-0.54,-0.09
2388465977,-0.84,-0.54,-0.09
2388467977,-0.84,-0.54,-0.09
2388469976,-0.84,-0.54,-0.08
2388471978,-0.84,-0.54,-0.08
2388473977,-0.84,-0.54,-0.08
2388476117,-0.84,-0.54,-0.08
2388478008,-0.84,-0.54,-0.08
2388479999,-0.84,-0.54,-0.09
2388482047,-0.84,-0.54,-0.09
2388484025,-0.84,-0.54,-0.09
2388485958,-0.84,-0.54,-0.09
2388488055,-0.84,-0.54,-0.09
2388490038,-0.84,-0.54,-0.09
2388492003,-0.84,-0.54,-0.09
2388494008,-0.84,-0.54,-0.09
2388496025,-0.84,-0.54,-0.09
2388497981,-0.84,-0.54,-0.09
2388499996,-0.83,-0.55,-0.09
2388502016,-0.83,-0.55,-0.09
2388503976,-0.83,-0.55,-0.09
2388505979,-0.83,-0.55,-0.09
2388507975,-0.83,-0.55,-0.09
2388509980,-0.84,-0.55,-0.09
2388511979,-0.84,-0.55,-0.09
2388513977,-0.84,-0.55,-0.09
2388516021,-0.84,-0.55,-0.09
2388518042,-0.84,-0.55,-0.09
2388520007,-0.84,-0.55,-0.09
2388522000,-0.84,-0.55,-0.09
2388524005,-0.84,-0.55,-0.09
2388526017,-0.84,-0.55,-0.09
2388528013,-0.84,-0.55,-0.09
2388529976,-0.84,-0.55,-0.09
2388531984,-0.84,-0.55,-0.09
2388533977,-0.84,-0.55,-0.09
2388535976,-0.84,-0.55,-0.09
2388537984,-0.84,-0.55,-0.09
2388539980,-0.84,-0.55,-0.09
2388541981,-0.84,-0.55,-0.09
2388543976,-0.84,-0.55,-0.09
2388545981,-0.84,-0.55,-0.09
2388547980,-0.84,-0.55,-0.09
2388549980,-0.83,-0.55,-0.09
2388551992,-0.83,-0.55,-0.09
2388553979,-0.83,-0.55,-0.09
2388556006,-0.83,-0.55,-0.09
2388558003,-0.83,-0.55,-0.09
2388560004,-0.84,-0.55,-0.09
2388562009,-0.84,-0.55,-0.09
2388564005,-0.84,-0.55,-0.09
2388566004,-0.84,-0.55,-0.09
2388567978,-0.84,-0.55,-0.09
2388569977,-0.83,-0.55,-0.10
2388571978,-0.83,-0.55,-0.10
2388573979,-0.83,-0.55,-0.10
2388576000,-0.83,-0.55,-0.10
2388577980,-0.83,-0.55,-0.10
2388579978,-0.83,-0.55,-0.09
2388582015,-0.83,-0.55,-0.09
2388583977,-0.83,-0.55,-0.09
2388585978,-0.83,-0.55,-0.09
2388587977,-0.83,-0.55,-0.09
2388589978,-0.84,-0.55,-0.10
2388591980,-0.84,-0.55,-0.10
2388593974,-0.84,-0.55,-0.10
2388596029,-0.84,-0.55,-0.10
2388598039,-0.84,-0.55,-0.10
2388600004,-0.84,-0.55,-0.09
2388602035,-0.84,-0.55,-0.09
2388604007,-0.84,-0.55,-0.09
2388606001,-0.84,-0.55,-0.09
2388608005,-0.84,-0.55,-0.09
2388610007,-0.84,-0.55,-0.09
2388611978,-0.84,-0.55,-0.09
2388613974,-0.84,-0.55,-0.09
2388615979,-0.84,-0.55,-0.09
2388617982,-0.84,-0.55,-0.09
2388620024,-0.84,-0.55,-0.09
2388622049,-0.84,-0.55,-0.09
2388623976,-0.84,-0.55,-0.09
2388626001,-0.84,-0.55,-0.09
2388627986,-0.84,-0.55,-0.09
2388629979,-0.84,-0.54,-0.09
2388631977,-0.84,-0.54,-0.09
2388633977,-0.84,-0.54,-0.09
2388636019,-0.84,-0.54,-0.09
2388638006,-0.84,-0.54,-0.09
2388640004,-0.84,-0.54,-0.09
2388642007,-0.84,-0.54,-0.09
2388644004,-0.84,-0.54,-0.09
2388646056,-0.84,-0.54,-0.09
2388648008,-0.84,-0.54,-0.09
2388649981,-0.84,-0.54,-0.09
2388652005,-0.84,-0.55,-0.09
2388653981,-0.84,-0.55,-0.09
2388655976,-0.84,-0.55,-0.09
2388657986,-0.84,-0.55,-0.09
2388659979,-0.84,-0.55,-0.09
2388661977,-0.84,-0.55,-0.08
2388663980,-0.84,-0.55,-0.08
2388665979,-0.84,-0.55,-0.08
2388667980,-0.84,-0.55,-0.08
2388669981,-0.84,-0.55,-0.08
2388671979,-0.84,-0.54,-0.09
2388673978,-0.84,-0.54,-0.09
2388676014,-0.84,-0.54,-0.09
2388678008,-0.84,-0.54,-0.09
2388680003,-0.84,-0.54,-0.09
2388682043,-0.84,-0.54,-0.10
2388684028,-0.84,-0.54,-0.10
2388685958,-0.84,-0.54,-0.10
2388688108,-0.84,-0.54,-0.10
2388690033,-0.84,-0.54,-0.10
2388692004,-0.84,-0.54,-0.09
2388694004,-0.84,-0.54,-0.09
2388695999,-0.84,-0.54,-0.09
2388697979,-0.84,-0.54,-0.09
2388699981,-0.84,-0.54,-0.09
2388702008,-0.84,-0.54,-0.09
2388703979,-0.84,-0.54,-0.09
2388705978,-0.84,-0.54,-0.09
2388707976,-0.84,-0.54,-0.09
2388709974,-0.84,-0.54,-0.09
2388711975,-0.84,-0.54,-0.09
2388713979,-0.84,-0.54,-0.09
2388716010,-0.84,-0.54,-0.09
2388718001,-0.84,-0.54,-0.09
2388720003,-0.84,-0.54,-0.09
2388722055,-0.84,-0.54,-0.08
2388724007,-0.84,-0.54,-0.08
2388726017,-0.84,-0.54,-0.08
2388728012,-0.84,-0.54,-0.08
2388729980,-0.84,-0.54,-0.08
2388731979,-0.84,-0.55,-0.09
2388733976,-0.84,-0.55,-0.09
2388735975,-0.84,-0.55,-0.09
2388737979,-0.84,-0.55,-0.09
2388739978,-0.84,-0.55,-0.09
2388741974,-0.84,-0.54,-0.09
2388743981,-0.84,-0.54,-0.09
2388745979,-0.84,-0.54,-0.09
2388747979,-0.84,-0.54,-0.09
2388749992,-0.84,-0.54,-0.09
2388751993,-0.84,-0.54,-0.09
2388753976,-0.84,-0.54,-0.09
2388756015,-0.84,-0.54,-0.09
2388758006,-0.84,-0.54,-0.09
2388760005,-0.84,-0.54,-0.09
2388762004,-0.84,-0.55,-0.10
2388764005,-0.84,-0.55,-0.10
2388765999,-0.84,-0.55,-0.10
2388767978,-0.84,-0.55,-0.10
2388769976,-0.84,-0.55,-0.10
2388771978,-0.83,-0.55,-0.09
2388773976,-0.83,-0.55,-0.09
2388776001,-0.83,-0.55,-0.09
2388777982,-0.83,-0.55,-0.09
2388779983,-0.83,-0.55,-0.09
2388782014,-0.84,-0.55,-0.09
2388783977,-0.84,-0.55,-0.09
2388785975,-0.84,-0.55,-0.09
2388787974,-0.84,-0.55,-0.09
2388789978,-0.84,-0.55,-0.09
2388791976,-0.84,-0.55,-0.09
2388793979,-0.84,-0.55,-0.09
2388796013,-0.84,-0.55,-0.09
2388798041,-0.84,-0.55,-0.09
2388800005,-0.84,-0.55,-0.09
2388802036,-0.84,-0.55,-0.09
2388804007,-0.84,-0.55,-0.09
2388806004,-0.84,-0.55,-0.09
2388808006,-0.84,-0.55,-0.09
2388810008,-0.84,-0.55,-0.09
2388811979,-0.84,-0.54,-0.09
2388813978,-0.84,-0.54,-0.09
2388815980,-0.84,-0.54,-0.09
2388817979,-0.84,-0.54,-0.09
2388819973,-0.84,-0.54,-0.09
2388822041,-0.84,-0.55,-0.09
2388824016,-0.84,-0.55,-0.09
2388826005,-0.84,-0.55,-0.09
2388827986,-0.84,-0.55,-0.09
2388829975,-0.84,-0.55,-0.09
2388831976,-0.84,-0.55,-0.09
2388833973,-0.84,-0.55,-0.09
2388836022,-0.84,-0.55,-0.09
2388838008,-0.84,-0.55,-0.09
2388840006,-0.84,-0.55,-0.09
2388842001,-0.84,-0.55,-0.09
2388844005,-0.84,-0.55,-0.10
2388846001,-0.84,-0.55,-0.10
2388848031,-0.84,-0.55,-0.10
2388850040,-0.84,-0.55,-0.10
2388852001,-0.84,-0.55,-0.10
2388853986,-0.84,-0.54,-0.09
2388855977,-0.84,-0.54,-0.09
2388857976,-0.84,-0.54,-0.09
2388859979,-0.84,-0.54,-0.09
2388861975,-0.84,-0.54,-0.09
2388863980,-0.84,-0.55,-0.09
2388865977,-0.84,-0.55,-0.09
2388867979,-0.84,-0.55,-0.09
2388869974,-0.84,-0.55,-0.09
2388871979,-0.84,-0.55,-0.09
2388873981,-0.83,-0.55,-0.09
2388876019,-0.83,-0.55,-0.09
2388878005,-0.83,-0.55,-0.09
2388880001,-0.83,-0.55,-0.09
2388882041,-0.83,-0.55,-0.09
2388884042,-0.83,-0.54,-0.09
2388886007,-0.83,-0.54,-0.09
2388888024,-0.83,-0.54,-0.09
2388890045,-0.83,-0.54,-0.09
2388892015,-0.83,-0.54,-0.09
2388894009,-0.84,-0.54,-0.09
2388896015,-0.84,-0.54,-0.09
2388897977,-0.84,-0.54,-0.09
2388899980,-0.84,-0.54,-0.09
2388902017,-0.84,-0.54,-0.09
2388903979,-0.83,-0.55,-0.09
2388905979,-0.83,-0.55,-0.09
2388907975,-0.83,-0.55,-0.09
2388909977,-0.83,-0.55,-0.09
2388911977,-0.83,-0.55,-0.09
2388913977,-0.84,-0.54,-0.09
2388916009,-0.84,-0.54,-0.09
2388918005,-0.84,-0.54,-0.09
2388920008,-0.84,-0.54,-0.09
2388922000,-0.84,-0.54,-0.09
2388924001,-0.84,-0.55,-0.09
2388926057,-0.84,-0.55,-0.09
2388928013,-0.84,-0.55,-0.09
2388929981,-0.84,-0.55,-0.09
2388931980,-0.84,-0.55,-0.09
2388933979,-0.83,-0.55,-0.09
2388935977,-0.83,-0.55,-0.09
2388937976,-0.83,-0.55,-0.09
2388939981,-0.83,-0.55,-0.09
2388941977,-0.83,-0.55,-0.09
2388943981,-0.84,-0.55,-0.08
2388945980,-0.84,-0.55,-0.08
2388947977,-0.84,-0.55,-0.08
2388949981,-0.84,-0.55,-0.08
2388951991,-0.84,-0.55,-0.08
2388953980,-0.83,-0.55,-0.09
2388956006,-0.83,-0.55,-0.09
2388958002,-0.83,-0.55,-0.09
2388960004,-0.83,-0.55,-0.09
2388962004,-0.83,-0.55,-0.09
2388964008,-0.84,-0.54,-0.09
2388966009,-0.84,-0.54,-0.09
2388967977,-0.84,-0.54,-0.09
2388969980,-0.84,-0.54,-0.09
2388971976,-0.84,-0.54,-0.09
2388973976,-0.84,-0.54,-0.08
2388975997,-0.84,-0.54,-0.08
2388977982,-0.84,-0.54,-0.08
2388979980,-0.84,-0.54,-0.08
2388982011,-0.84,-0.54,-0.08
2388983975,-0.83,-0.55,-0.09
2388985979,-0.83,-0.55,-0.09
2388987974,-0.83,-0.55,-0.09
2388989980,-0.83,-0.55,-0.09
2388991976,-0.83,-0.55,-0.09
2388993979,-0.84,-0.54,-0.09
2388996013,-0.84,-0.54,-0.09
2388998045,-0.84,-0.54,-0.09
2389000034,-0.84,-0.54,-0.09
2389002035,-0.84,-0.54,-0.09
2389004006,-0.84,-0.54,-0.08
2389006001,-0.84,-0.54,-0.08
2389008005,-0.84,-0.54,-0.08
2389010009,-0.84,-0.54,-0.08
2389011979,-0.84,-0.54,-0.08
2389013977,-0.84,-0.55,-0.09
2389015977,-0.84,-0.55,-0.09
2389017979,-0.84,-0.55,-0.09
2389019980,-0.84,-0.55,-0.09
2389021979,-0.84,-0.55,-0.09
2389023979,-0.84,-0.55,-0.09
2389025999,-0.84,-0.55,-0.09
2389028029,-0.84,-0.55,-0.09
2389030011,-0.84,-0.55,-0.09
2389031979,-0.84,-0.55,-0.09
2389033978,-0.84,-0.55,-0.09
2389036026,-0.84,-0.54,-0.09
2389038001,-0.84,-0.54,-0.09
2389040008,-0.84,-0.54,-0.09
2389042008,-0.84,-0.54,-0.09
2389044006,-0.84,-0.54,-0.09
2389046004,-0.84,-0.55,-0.09
2389048002,-0.84,-0.55,-0.09
2389049981,-0.84,-0.55,-0.09
2389052006,-0.84,-0.55,-0.09
2389053979,-0.84,-0.55,-0.09
2389055979,-0.84,-0.54,-0.09
2389057998,-0.84,-0.54,-0.09
2389060025,-0.84,-0.54,-0.09
2389061977,-0.84,-0.54,-0.09
2389063976,-0.84,-0.54,-0.09
2389065975,-0.84,-0.54,-0.08
2389067976,-0.84,-0.54,-0.08
2389069976,-0.84,-0.54,-0.08
2389071976,-0.84,-0.54,-0.08
2389073978,-0.84,-0.54,-0.08
2389076022,-0.83,-0.55,-0.08
2389078009,-0.83,-0.55,-0.08
2389080005,-0.83,-0.55,-0.08
2389082042,-0.83,-0.55,-0.08
2389084033,-0.83,-0.55,-0.08
2389086022,-0.84,-0.55,-0.09
2389087958,-0.84,-0.55,-0.09
2389090096,-0.84,-0.55,-0.09
2389092032,-0.84,-0.55,-0.09
2389094006,-0.84,-0.55,-0.09
2389096018,-0.84,-0.54,-0.09
2389097981,-0.84,-0.54,-0.09
2389099983,-0.84,-0.54,-0.09
2389102014,-0.84,-0.54,-0.09
2389103977,-0.84,-0.54,-0.09
2389105977,-0.84,-0.54,-0.08
2389107976,-0.84,-0.54,-0.08
2389109976,-0.84,-0.54,-0.08
2389111979,-0.84,-0.54,-0.08
2389113977,-0.84,-0.54,-0.08
2389116014,-0.84,-0.55,-0.09
2389118000,-0.84,-0.55,-0.09
2389120005,-0.84,-0.55,-0.09
2389122003,-0.84,-0.55,-0.09
2389124004,-0.84,-0.55,-0.09
2389126014,-0.84,-0.54,-0.09
2389127979,-0.84,-0.54,-0.09
2389129980,-0.84,-0.54,-0.09
2389132024,-0.84,-0.54,-0.09
2389133981,-0.84,-0.54,-0.09
2389135975,-0.84,-0.54,-0.09
2389137979,-0.84,-0.54,-0.09
2389139972,-0.84,-0.54,-0.09
2389141977,-0.84,-0.54,-0.09
2389143978,-0.84,-0.54,-0.09
2389145977,-0.84,-0.54,-0.08
2389147977,-0.84,-0.54,-0.08
2389149979,-0.84,-0.54,-0.08
2389151996,-0.84,-0.54,-0.08
2389153978,-0.84,-0.54,-0.08
2389156017,-0.84,-0.54,-0.09
2389158006,-0.84,-0.54,-0.09
2389160006,-0.84,-0.54,-0.09
2389162005,-0.84,-0.54,-0.09
2389164004,-0.84,-0.54,-0.09
2389166004,-0.84,-0.54,-0.09
2389167993,-0.84,-0.54,-0.09
2389169981,-0.84,-0.54,-0.09
2389171980,-0.84,-0.54,-0.09
2389173978,-0.84,-0.54,-0.09
2389176003,-0.83,-0.55,-0.08
2389177981,-0.83,-0.55,-0.08
2389179983,-0.83,-0.55,-0.08
2389182018,-0.83,-0.55,-0.08
2389183976,-0.83,-0.55,-0.08
2389185977,-0.84,-0.54,-0.08
2389187977,-0.84,-0.54,-0.08
2389189975,-0.84,-0.54,-0.08
2389191977,-0.84,-0.54,-0.08
2389193981,-0.84,-0.54,-0.08
2389196014,-0.83,-0.54,-0.08
2389198028,-0.83,-0.54,-0.08
2389200043,-0.83,-0.54,-0.08
2389202035,-0.83,-0.54,-0.08
2389204003,-0.83,-0.54,-0.08
2389206006,-0.83,-0.55,-0.09
2389208004,-0.83,-0.55,-0.09
2389210010,-0.83,-0.55,-0.09
2389211979,-0.83,-0.55,-0.09
2389213979,-0.83,-0.55,-0.09
2389215979,-0.83,-0.55,-0.09
2389217980,-0.84,-0.54,-0.08
2389219979,-0.84,-0.54,-0.08
2389221978,-0.84,-0.54,-0.08
2389223980,-0.84,-0.54,-0.08
2389226005,-0.84,-0.54,-0.08
2389227982,-0.85,-0.54,-0.09
2389229978,-0.85,-0.54,-0.09
2389231988,-0.85,-0.54,-0.09
2389234020,-0.85,-0.54,-0.09
2389236017,-0.85,-0.54,-0.09
2389238007,-0.84,-0.54,-0.10
2389240005,-0.84,-0.54,-0.10
2389242007,-0.84,-0.54,-0.10
2389244006,-0.84,-0.54,-0.10
2389246019,-0.84,-0.54,-0.10
2389248008,-0.84,-0.54,-0.10
2389249991,-0.84,-0.54,-0.10
2389252101,-0.84,-0.54,-0.10
2389253979,-0.84,-0.54,-0.10
2389255975,-0.84,-0.54,-0.10
2389257978,-0.83,-0.54,-0.10
2389260040,-0.83,-0.54,-0.10
2389261977,-0.83,-0.54,-0.10
2389263977,-0.83,-0.54,-0.10
2389265973,-0.83,-0.54,-0.10
2389267980,-0.83,-0.55,-0.10
2389269980,-0.83,-0.55,-0.10
2389271977,-0.83,-0.55,-0.10
2389273977,-0.83,-0.55,-0.10
2389276116,-0.83,-0.55,-0.10
2389278011,-0.84,-0.55,-0.10
2389280000,-0.84,-0.55,-0.10
2389282042,-0.84,-0.55,-0.10
2389284002,-0.84,-0.55,-0.10
2389286038,-0.84,-0.55,-0.10
2389287993,-0.83,-0.55,-0.09
2389290032,-0.83,-0.55,-0.09
2389292043,-0.83,-0.55,-0.09
2389294011,-0.83,-0.55,-0.09
2389296014,-0.83,-0.55,-0.09
2389297978,-0.84,-0.55,-0.09
2389299982,-0.84,-0.55,-0.09
2389302106,-0.84,-0.55,-0.09
2389303977,-0.84,-0.55,-0.09
2389305975,-0.84,-0.55,-0.09
2389307975,-0.83,-0.55,-0.09
2389309981,-0.83,-0.55,-0.09
2389311981,-0.83,-0.55,-0.09
2389313978,-0.83,-0.55,-0.09
2389316014,-0.83,-0.55,-0.09
2389318001,-0.83,-0.56,-0.09
2389320005,-0.83,-0.56,-0.09
2389322002,-0.83,-0.56,-0.09
2389324001,-0.83,-0.56,-0.09
2389326093,-0.83,-0.56,-0.09
2389327995,-0.83,-0.55,-0.08
2389329979,-0.83,-0.55,-0.08
2389331980,-0.83,-0.55,-0.08
2389334007,-0.83,-0.55,-0.08
2389336029,-0.83,-0.55,-0.08
2389337979,-0.83,-0.55,-0.07
2389339976,-0.83,-0.55,-0.07
2389341977,-0.83,-0.55,-0.07
2389343979,-0.83,-0.55,-0.07
2389345979,-0.83,-0.55,-0.07
2389347977,-0.82,-0.56,-0.07
2389349977,-0.82,-0.56,-0.07
2389352078,-0.82,-0.56,-0.07
2389353978,-0.82,-0.56,-0.07
2389356013,-0.82,-0.56,-0.07
2389358005,-0.83,-0.55,-0.08
2389360006,-0.83,-0.55,-0.08
2389362005,-0.83,-0.55,-0.08
2389364009,-0.83,-0.55,-0.08
2389366001,-0.83,-0.55,-0.08
2389368007,-0.84,-0.54,-0.07
2389369979,-0.84,-0.54,-0.07
2389371980,-0.84,-0.54,-0.07
2389373981,-0.84,-0.54,-0.07
2389376086,-0.84,-0.54,-0.07
2389377994,-0.84,-0.55,-0.07
2389379982,-0.84,-0.55,-0.07
2389382016,-0.84,-0.55,-0.07
2389383975,-0.84,-0.55,-0.07
2389385977,-0.84,-0.55,-0.07
2389387977,-0.85,-0.55,-0.06
2389389980,-0.85,-0.55,-0.06
2389391977,-0.85,-0.55,-0.06
2389393980,-0.85,-0.55,-0.06
2389396015,-0.85,-0.55,-0.06
2389398004,-0.84,-0.54,-0.08
2389400039,-0.84,-0.54,-0.08
2389402128,-0.84,-0.54,-0.08
2389404005,-0.84,-0.54,-0.08
2389406001,-0.84,-0.54,-0.08
2389408004,-0.84,-0.54,-0.08
2389410005,-0.84,-0.54,-0.08
2389411981,-0.84,-0.54,-0.08
2389413980,-0.84,-0.54,-0.08
2389415979,-0.84,-0.54,-0.08
2389417980,-0.84,-0.54,-0.08
2389419975,-0.84,-0.53,-0.08
2389421976,-0.84,-0.53,-0.08
2389423981,-0.84,-0.53,-0.08
2389426078,-0.84,-0.53,-0.08
2389427988,-0.84,-0.53,-0.08
2389429980,-0.84,-0.54,-0.09
2389431981,-0.84,-0.54,-0.09
2389433979,-0.84,-0.54,-0.09
2389436009,-0.84,-0.54,-0.09
2389438006,-0.84,-0.54,-0.09
2389440004,-0.84,-0.52,-0.07
2389442051,-0.84,-0.52,-0.07
2389444010,-0.84,-0.52,-0.07
2389446005,-0.84,-0.52,-0.07
2389448010,-0.84,-0.52,-0.07
2389449977,-0.84,-0.53,-0.09
2389452091,-0.84,-0.53,-0.09
2389453976,-0.84,-0.53,-0.09
2389455977,-0.84,-0.53,-0.09
2389457979,-0.84,-0.53,-0.09
2389459978,-0.84,-0.53,-0.07
2389461981,-0.84,-0.53,-0.07
2389463977,-0.84,-0.53,-0.07
2389465974,-0.84,-0.53,-0.07
2389467978,-0.84,-0.53,-0.07
2389469977,-0.84,-0.54,-0.09
2389471980,-0.84,-0.54,-0.09
2389473979,-0.84,-0.54,-0.09
2389476099,-0.84,-0.54,-0.09
2389478009,-0.84,-0.54,-0.09
2389480004,-0.84,-0.53,-0.08
2389482043,-0.84,-0.53,-0.08
2389484003,-0.84,-0.53,-0.08
2389486069,-0.84,-0.53,-0.08
2389487994,-0.84,-0.53,-0.08
2389489953,-0.83,-0.54,-0.10
2389491958,-0.83,-0.54,-0.10
2389493955,-0.83,-0.54,-0.10
2389495976,-0.83,-0.54,-0.10
2389497961,-0.83,-0.54,-0.10
2389499985,-0.84,-0.54,-0.10
2389502090,-0.84,-0.54,-0.10
2389503957,-0.84,-0.54,-0.10
2389505957,-0.84,-0.54,-0.10
2389507958,-0.84,-0.54,-0.10
2389509962,-0.83,-0.54,-0.09
2389511958,-0.83,-0.54,-0.09
2389513958,-0.83,-0.54,-0.09
2389515955,-0.83,-0.54,-0.09
2389517958,-0.83,-0.54,-0.09
2389519958,-0.84,-0.54,-0.10
2389521957,-0.84,-0.54,-0.10
2389523961,-0.84,-0.54,-0.10
2389556044,-0.84,-0.55,-0.10
2389558028,-0.84,-0.55,-0.10
2389560033,-0.84,-0.55,-0.09
2389562005,-0.84,-0.55,-0.09
2389564003,-0.84,-0.55,-0.09
2389566005,-0.84,-0.55,-0.09
2389568008,-0.84,-0.55,-0.09
2389569979,-0.83,-0.55,-0.10
2389571980,-0.83,-0.55,-0.10
2389573981,-0.83,-0.55,-0.10
2389576096,-0.83,-0.55,-0.10
2389577990,-0.83,-0.55,-0.10
2389579983,-0.83,-0.55,-0.09
2389582018,-0.83,-0.55,-0.09
2389583977,-0.83,-0.55,-0.09
2389585980,-0.83,-0.55,-0.09
2389587979,-0.83,-0.55,-0.09
2389589978,-0.83,-0.55,-0.09
2389591977,-0.83,-0.55,-0.10
2389593980,-0.83,-0.55,-0.10
2389596014,-0.83,-0.55,-0.10
2389598004,-0.83,-0.55,-0.10
2389600004,-0.83,-0.55,-0.10
2389602123,-0.84,-0.55,-0.08
2389604002,-0.84,-0.55,-0.08
2389606004,-0.84,-0.55,-0.08
2389608011,-0.84,-0.55,-0.08
2389609981,-0.84,-0.55,-0.08
2389611979,-0.83,-0.55,-0.09
2389613979,-0.83,-0.55,-0.09
2389615977,-0.83,-0.55,-0.09
2389617977,-0.83,-0.55,-0.09
2389619981,-0.83,-0.55,-0.09
2389622051,-0.83,-0.56,-0.09
2389623978,-0.83,-0.56,-0.09
2389626076,-0.83,-0.56,-0.09
2389627991,-0.83,-0.56,-0.09
2389629977,-0.83,-0.56,-0.09
2389631979,-0.82,-0.56,-0.09
2389633977,-0.82,-0.56,-0.09
2389636035,-0.82,-0.56,-0.09
2389638035,-0.82,-0.56,-0.09
2389640001,-0.82,-0.56,-0.09
2389642006,-0.82,-0.55,-0.09
2389644047,-0.82,-0.55,-0.09
2389646003,-0.82,-0.55,-0.09
2389648115,-0.82,-0.55,-0.09
2389650037,-0.82,-0.55,-0.09
2389652122,-0.83,-0.56,-0.10
2389654011,-0.83,-0.56,-0.10
2389655977,-0.83,-0.56,-0.10
2389657980,-0.83,-0.56,-0.10
2389659979,-0.83,-0.56,-0.10
2389661978,-0.84,-0.55,-0.09
2389663979,-0.84,-0.55,-0.09
2389665979,-0.84,-0.55,-0.09
2389667976,-0.84,-0.55,-0.09
2389669975,-0.84,-0.55,-0.09
2389671980,-0.84,-0.55,-0.09
2389673976,-0.84,-0.55,-0.09
2389676101,-0.84,-0.55,-0.09
2389678007,-0.84,-0.55,-0.09
2389680002,-0.84,-0.55,-0.09
2389682041,-0.83,-0.55,-0.09
2389684003,-0.83,-0.55,-0.09
2389686004,-0.83,-0.55,-0.09
2389688008,-0.83,-0.55,-0.09
2389689975,-0.83,-0.55,-0.09
2389691979,-0.83,-0.55,-0.10
2389693976,-0.83,-0.55,-0.10
2389695994,-0.83,-0.55,-0.10
2389697976,-0.83,-0.55,-0.10
2389699978,-0.83,-0.55,-0.10
2389702099,-0.83,-0.54,-0.11
2389704005,-0.83,-0.54,-0.11
2389706068,-0.83,-0.54,-0.11
2389708011,-0.83,-0.54,-0.11
2389709977,-0.83,-0.54,-0.11
2389711977,-0.84,-0.54,-0.09
2389713976,-0.84,-0.54,-0.09
2389716021,-0.84,-0.54,-0.09
2389718001,-0.84,-0.54,-0.09
2389720005,-0.84,-0.54,-0.09
2389722002,-0.84,-0.53,-0.11
2389724006,-0.84,-0.53,-0.11
2389726113,-0.84,-0.53,-0.11
2389728012,-0.84,-0.53,-0.11
2389729979,-0.84,-0.53,-0.11
2389731977,-0.84,-0.53,-0.11
2389733980,-0.84,-0.53,-0.11
2389735979,-0.84,-0.53,-0.11
2389737978,-0.84,-0.53,-0.11
2389739980,-0.84,-0.53,-0.11
2389741975,-0.84,-0.53,-0.11
2389743976,-0.84,-0.53,-0.11
2389746025,-0.84,-0.53,-0.11
2389747979,-0.84,-0.53,-0.11
2389749991,-0.84,-0.53,-0.11
2389752098,-0.85,-0.52,-0.10
2389754133,-0.85,-0.52,-0.10
2389756040,-0.85,-0.52,-0.10
2389758007,-0.85,-0.52,-0.10
2389760005,-0.85,-0.52,-0.10
2389762002,-0.84,-0.54,-0.10
2389764006,-0.84,-0.54,-0.10
2389766002,-0.84,-0.54,-0.10
2389768010,-0.84,-0.54,-0.10
2389769980,-0.84,-0.54,-0.10
2389771985,-0.84,-0.53,-0.11
2389773980,-0.84,-0.53,-0.11
2389776093,-0.84,-0.53,-0.11
2389777987,-0.84,-0.53,-0.11
2389779979,-0.84,-0.53,-0.11
2389782020,-0.84,-0.53,-0.11
2389783979,-0.84,-0.54,-0.09
2389785980,-0.84,-0.54,-0.09
2389787979,-0.84,-0.54,-0.09
2389789974,-0.84,-0.54,-0.09
2389791979,-0.84,-0.54,-0.09
2389793980,-0.83,-0.55,-0.09
2389796012,-0.83,-0.55,-0.09
2389798004,-0.83,-0.55,-0.09
2389800001,-0.83,-0.55,-0.09
2389802122,-0.83,-0.55,-0.09
2389804004,-0.84,-0.54,-0.08
2389806005,-0.84,-0.54,-0.08
2389808008,-0.84,-0.54,-0.08
2389809980,-0.84,-0.54,-0.08
2389811978,-0.84,-0.54,-0.08
2389814065,-0.84,-0.55,-0.07
2389816019,-0.84,-0.55,-0.07
2389817979,-0.84,-0.55,-0.07
2389819976,-0.84,-0.55,-0.07
2389821977,-0.84,-0.55,-0.07
2389823974,-0.84,-0.55,-0.08
2389826092,-0.84,-0.55,-0.08
2389827989,-0.84,-0.55,-0.08
2389829976,-0.84,-0.55,-0.08
2389831974,-0.84,-0.55,-0.08
2389833978,-0.83,-0.56,-0.08
2389836023,-0.83,-0.56,-0.08
2389838007,-0.83,-0.56,-0.08
2389840003,-0.83,-0.56,-0.08
2389842004,-0.83,-0.56,-0.08
2389844005,-0.83,-0.57,-0.08
2389846027,-0.83,-0.57,-0.08
2389848036,-0.83,-0.57,-0.08
2389849984,-0.83,-0.57,-0.08
2389852096,-0.83,-0.57,-0.08
2389853978,-0.82,-0.57,-0.09
2389855975,-0.82,-0.57,-0.09
2389857977,-0.82,-0.57,-0.09
2389859982,-0.82,-0.57,-0.09
2389862076,-0.82,-0.57,-0.09
2389864007,-0.83,-0.57,-0.09
2389865976,-0.83,-0.57,-0.09
2389867981,-0.83,-0.57,-0.09
2389869978,-0.83,-0.57,-0.09
2389871977,-0.83,-0.57,-0.09
2389873979,-0.83,-0.57,-0.10
2389876113,-0.83,-0.57,-0.10
2389878005,-0.83,-0.57,-0.10
2389880004,-0.83,-0.57,-0.10
2389882039,-0.83,-0.57,-0.10
2389884006,-0.83,-0.58,-0.10
2389886002,-0.83,-0.58,-0.10
2389888005,-0.83,-0.58,-0.10
2389889977,-0.83,-0.58,-0.10
2389891981,-0.83,-0.58,-0.10
2389893979,-0.83,-0.56,-0.11
2389895992,-0.83,-0.56,-0.11
2389897978,-0.83,-0.56,-0.11
2389899980,-0.83,-0.56,-0.11
2389902106,-0.83,-0.56,-0.11
2389903977,-0.84,-0.56,-0.11
2389906042,-0.84,-0.56,-0.11
2389908025,-0.84,-0.56,-0.11
2389909978,-0.84,-0.56,-0.11
2389911980,-0.84,-0.56,-0.11
2389913977,-0.83,-0.55,-0.10
2389916017,-0.83,-0.55,-0.10
2389918001,-0.83,-0.55,-0.10
2389920003,-0.83,-0.55,-0.10
2389922006,-0.83,-0.55,-0.10
2389924001,-0.83,-0.54,-0.11
2389926107,-0.83,-0.54,-0.11
2389928011,-0.83,-0.54,-0.11
2389929981,-0.83,-0.54,-0.11
2389931980,-0.83,-0.54,-0.11
2389933981,-0.84,-0.55,-0.09
2389935984,-0.84,-0.55,-0.09
2389937981,-0.84,-0.55,-0.09
2389939984,-0.84,-0.55,-0.09
2389941980,-0.84,-0.55,-0.09
2389943980,-0.84,-0.54,-0.09
2389945980,-0.84,-0.54,-0.09
2389947979,-0.84,-0.54,-0.09
2389949980,-0.84,-0.54,-0.09
2389952078,-0.84,-0.54,-0.09
2389953977,-0.84,-0.55,-0.10
2389956016,-0.84,-0.55,-0.10
2389958005,-0.84,-0.55,-0.10
2389960010,-0.84,-0.55,-0.10
2389962037,-0.84,-0.55,-0.10
2389964005,-0.83,-0.54,-0.10
2389966005,-0.83,-0.54,-0.10
2389968011,-0.83,-0.54,-0.10
2389969980,-0.83,-0.54,-0.10
2389971981,-0.83,-0.54,-0.10
2389973980,-0.83,-0.54,-0.10
2389976106,-0.84,-0.54,-0.09
2389977986,-0.84,-0.54,-0.09
2389979982,-0.84,-0.54,-0.09
2389982017,-0.84,-0.54,-0.09
2389983977,-0.84,-0.54,-0.09
2389985979,-0.84,-0.54,-0.09
2389987975,-0.84,-0.54,-0.09
2389989976,-0.84,-0.54,-0.09
2389991984,-0.84,-0.54,-0.09
2389993981,-0.84,-0.54,-0.09
2389996019,-0.83,-0.54,-0.09
2389998004,-0.83,-0.54,-0.09
2390000013,-0.83,-0.54,-0.09
2390002138,-0.83,-0.54,-0.09
2390004037,-0.83,-0.54,-0.09
2390006011,-0.84,-0.56,-0.10
2390008009,-0.84,-0.56,-0.10
2390010010,-0.84,-0.56,-0.10
2390012028,-0.84,-0.56,-0.10
2390013978,-0.84,-0.56,-0.10
2390015977,-0.84,-0.55,-0.09
2390017978,-0.84,-0.55,-0.09
2390019978,-0.84,-0.55,-0.09
2390021973,-0.84,-0.55,-0.09
2390023976,-0.84,-0.55,-0.09
2390026089,-0.84,-0.55,-0.09
2390027989,-0.84,-0.55,-0.09
2390029977,-0.84,-0.55,-0.09
2390031975,-0.84,-0.55,-0.09
2390033984,-0.84,-0.55,-0.09
2390036017,-0.83,-0.55,-0.09
2390038004,-0.83,-0.55,-0.09
2390040005,-0.83,-0.55,-0.09
2390042004,-0.83,-0.55,-0.09
2390044003,-0.83,-0.55,-0.09
2390046002,-0.83,-0.55,-0.08
2390047998,-0.83,-0.55,-0.08
2390049976,-0.83,-0.55,-0.08
2390052133,-0.83,-0.55,-0.08
2390054004,-0.83,-0.55,-0.08
2390055977,-0.84,-0.54,-0.09
2390057979,-0.84,-0.54,-0.09
2390059979,-0.84,-0.54,-0.09
2390061976,-0.84,-0.54,-0.09
2390064078,-0.84,-0.54,-0.09
2390066009,-0.83,-0.55,-0.07
2390067979,-0.83,-0.55,-0.07
2390069979,-0.83,-0.55,-0.07
2390071978,-0.83,-0.55,-0.07
2390073976,-0.83,-0.55,-0.07
2390076117,-0.84,-0.55,-0.08
2390078008,-0.84,-0.55,-0.08
2390080001,-0.84,-0.55,-0.08
2390082039,-0.84,-0.55,-0.08
2390084002,-0.84,-0.55,-0.08
2390086001,-0.84,-0.55,-0.09
2390088002,-0.84,-0.55,-0.09
2390089977,-0.84,-0.55,-0.09
2390091977,-0.84,-0.55,-0.09
2390093981,-0.84,-0.55,-0.09
2390095992,-0.84,-0.54,-0.08
2390097989,-0.84,-0.54,-0.08
2390099984,-0.84,-0.54,-0.08
2390102104,-0.84,-0.54,-0.08
2390103977,-0.84,-0.54,-0.08
2390105976,-0.84,-0.53,-0.08
2390107999,-0.84,-0.53,-0.08
2390110044,-0.84,-0.53,-0.08
2390112008,-0.84,-0.53,-0.08
2390113979,-0.84,-0.53,-0.08
2390116016,-0.84,-0.54,-0.09
2390118003,-0.84,-0.54,-0.09
2390120003,-0.84,-0.54,-0.09
2390122006,-0.84,-0.54,-0.09
2390124008,-0.84,-0.54,-0.09
2390126110,-0.83,-0.55,-0.09
2390128009,-0.83,-0.55,-0.09
2390129979,-0.83,-0.55,-0.09
2390131979,-0.83,-0.55,-0.09
2390133980,-0.83,-0.55,-0.09
2390135979,-0.84,-0.54,-0.09
2390137977,-0.84,-0.54,-0.09
2390139978,-0.84,-0.54,-0.09
2390141979,-0.84,-0.54,-0.09
2390143979,-0.84,-0.54,-0.09
2390145981,-0.84,-0.54,-0.10
2390147975,-0.84,-0.54,-0.10
2390149975,-0.84,-0.54,-0.10
2390152076,-0.84,-0.54,-0.10
2390153985,-0.84,-0.54,-0.10
2390156063,-0.84,-0.54,-0.11
2390158034,-0.84,-0.54,-0.11
2390160009,-0.84,-0.54,-0.11
2390162007,-0.84,-0.54,-0.11
2390164012,-0.84,-0.54,-0.11
2390166009,-0.84,-0.54,-0.11
2390168004,-0.84,-0.54,-0.10
2390170003,-0.84,-0.54,-0.10
2390172009,-0.84,-0.54,-0.10
2390173980,-0.84,-0.54,-0.10
2390176095,-0.84,-0.54,-0.10
2390177987,-0.83,-0.55,-0.11
2390179986,-0.83,-0.55,-0.11
2390182010,-0.83,-0.55,-0.11
2390183976,-0.83,-0.55,-0.11
2390185974,-0.83,-0.55,-0.11
2390187981,-0.84,-0.55,-0.11
2390189976,-0.84,-0.55,-0.11
2390191976,-0.84,-0.55,-0.11
2390193981,-0.84,-0.55,-0.11
2390195990,-0.84,-0.55,-0.11
2390198022,-0.82,-0.55,-0.11
2390200003,-0.82,-0.55,-0.11
2390202117,-0.82,-0.55,-0.11
2390204006,-0.82,-0.55,-0.11
2390206005,-0.82,-0.55,-0.11
2390208004,-0.84,-0.55,-0.10
2390210005,-0.84,-0.55,-0.10
2390211980,-0.84,-0.55,-0.10
2390213978,-0.84,-0.55,-0.10
2390216062,-0.84,-0.55,-0.10
2390218023,-0.82,-0.55,-0.10
2390219974,-0.82,-0.55,-0.10
2390221979,-0.82,-0.55,-0.10
2390223977,-0.82,-0.55,-0.10
2390226217,-0.82,-0.55,-0.10
2390228070,-0.83,-0.56,-0.11
2390229997,-0.83,-0.56,-0.11
2390231978,-0.83,-0.56,-0.11
2390233976,-0.83,-0.56,-0.11
2390235977,-0.83,-0.56,-0.11
2390238021,-0.83,-0.55,-0.10
2390240003,-0.83,-0.55,-0.10
2390241999,-0.83,-0.55,-0.10
2390244006,-0.83,-0.55,-0.10
2390246002,-0.83,-0.55,-0.10
2390248004,-0.84,-0.55,-0.09
2390250010,-0.84,-0.55,-0.09
2390252103,-0.84,-0.55,-0.09
2390254005,-0.84,-0.55,-0.09
2390256027,-0.84,-0.55,-0.09
2390257979,-0.83,-0.55,-0.09
2390259979,-0.83,-0.55,-0.09
2390261977,-0.83,-0.55,-0.09
2390263978,-0.83,-0.55,-0.09
2390265974,-0.83,-0.55,-0.09
2390267972,-0.83,-0.55,-0.09
2390269978,-0.83,-0.55,-0.09
2390271977,-0.83,-0.55,-0.09
2390273976,-0.83,-0.55,-0.09
2390276072,-0.83,-0.55,-0.09
2390278021,-0.83,-0.55,-0.09
2390280004,-0.83,-0.55,-0.09
2390282059,-0.83,-0.55,-0.09
2390284036,-0.83,-0.55,-0.09
2390286025,-0.83,-0.55,-0.09
2390288059,-0.83,-0.54,-0.08
2390290045,-0.83,-0.54,-0.08
2390292009,-0.83,-0.54,-0.08
2390294007,-0.83,-0.54,-0.08
2390296008,-0.83,-0.54,-0.08
2390297976,-0.83,-0.55,-0.09
2390299983,-0.83,-0.55,-0.09
2390302106,-0.83,-0.55,-0.09
2390303977,-0.83,-0.55,-0.09
2390305976,-0.83,-0.55,-0.09
2390307975,-0.84,-0.55,-0.08
2390309974,-0.84,-0.55,-0.08
2390311978,-0.84,-0.55,-0.08
2390313976,-0.84,-0.55,-0.08
2390315976,-0.84,-0.55,-0.08
2390318014,-0.84,-0.54,-0.07
2390320010,-0.84,-0.54,-0.07
2390322005,-0.84,-0.54,-0.07
2390324007,-0.84,-0.54,-0.07
2390326093,-0.84,-0.54,-0.07
2390328010,-0.83,-0.55,-0.07
2390329977,-0.83,-0.55,-0.07
2390331977,-0.83,-0.55,-0.07
2390333979,-0.83,-0.55,-0.07
2390335978,-0.83,-0.55,-0.07
2390337978,-0.83,-0.54,-0.08
2390339976,-0.83,-0.54,-0.08
2390341977,-0.83,-0.54,-0.08
2390343973,-0.83,-0.54,-0.08
2390345976,-0.83,-0.54,-0.08
2390347977,-0.83,-0.54,-0.08
2390349980,-0.83,-0.53,-0.07
2390352075,-0.83,-0.53,-0.07
2390353977,-0.83,-0.53,-0.07
2390355970,-0.83,-0.53,-0.07
2390358016,-0.83,-0.53,-0.07
2390360006,-0.83,-0.53,-0.07
2390362006,-0.83,-0.53,-0.07
2390364010,-0.83,-0.53,-0.07
2390366007,-0.83,-0.53,-0.07
2390368011,-0.83,-0.53,-0.07
2390369979,-0.85,-0.53,-0.08
2390371979,-0.85,-0.53,-0.08
2390373979,-0.85,-0.53,-0.08
2390376079,-0.85,-0.53,-0.08
2390377987,-0.85,-0.53,-0.08
2390379981,-0.85,-0.53,-0.06
2390382015,-0.85,-0.53,-0.06
2390383975,-0.85,-0.53,-0.06
2390385979,-0.85,-0.53,-0.06
2390387977,-0.85,-0.53,-0.06
2390389976,-0.85,-0.53,-0.07
2390391976,-0.85,-0.53,-0.07
2390393980,-0.85,-0.53,-0.07
2390395990,-0.85,-0.53,-0.07
2390398036,-0.85,-0.53,-0.07
2390400038,-0.84,-0.53,-0.06
2390402129,-0.84,-0.53,-0.06
2390404007,-0.84,-0.53,-0.06
2390406007,-0.84,-0.53,-0.06
2390408006,-0.84,-0.53,-0.06
2390410008,-0.84,-0.54,-0.07
2390412054,-0.84,-0.54,-0.07
2390414005,-0.84,-0.54,-0.07
2390415981,-0.84,-0.54,-0.07
2390417979,-0.84,-0.54,-0.07
2390419979,-0.84,-0.52,-0.07
2390421977,-0.84,-0.52,-0.07
2390423984,-0.84,-0.52,-0.07
2390426098,-0.84,-0.52,-0.07
2390427990,-0.84,-0.52,-0.07
2390429977,-0.83,-0.54,-0.07
2390431980,-0.83,-0.54,-0.07
2390433975,-0.83,-0.54,-0.07
2390435977,-0.83,-0.54,-0.07
2390438009,-0.83,-0.54,-0.07
2390440008,-0.83,-0.53,-0.07
2390442005,-0.83,-0.53,-0.07
2390444005,-0.83,-0.53,-0.07
2390446007,-0.83,-0.53,-0.07
2390448011,-0.83,-0.53,-0.07
2390449979,-0.84,-0.55,-0.07
2390452078,-0.84,-0.55,-0.07
2390453980,-0.84,-0.55,-0.07
2390455975,-0.84,-0.55,-0.07
2390457973,-0.84,-0.55,-0.07
2390460002,-0.84,-0.54,-0.07
2390462026,-0.84,-0.54,-0.07
2390463990,-0.84,-0.54,-0.07
2390466126,-0.84,-0.54,-0.07
2390468014,-0.84,-0.54,-0.07
2390469979,-0.84,-0.55,-0.07
2390471979,-0.84,-0.55,-0.07
2390473979,-0.84,-0.55,-0.07
2390476094,-0.84,-0.55,-0.07
2390478021,-0.84,-0.55,-0.07
2390480003,-0.84,-0.55,-0.08
2390482037,-0.84,-0.55,-0.08
2390484006,-0.84,-0.55,-0.08
2390486005,-0.84,-0.55,-0.08
2390488004,-0.84,-0.55,-0.08
2390490003,-0.84,-0.55,-0.08
2390491979,-0.84,-0.55,-0.08
2390493985,-0.84,-0.55,-0.08
2390496000,-0.84,-0.55,-0.08
2390497982,-0.84,-0.55,-0.08
2390499996,-0.83,-0.56,-0.10
2390502106,-0.83,-0.56,-0.10
2390503978,-0.83,-0.56,-0.10
2390505979,-0.83,-0.56,-0.10
2390507980,-0.83,-0.56,-0.10
2390509981,-0.83,-0.54,-0.09
2390511974,-0.83,-0.54,-0.09
2390513979,-0.83,-0.54,-0.09
2390515977,-0.83,-0.54,-0.09
2390518012,-0.83,-0.54,-0.09
2390520005,-0.83,-0.55,-0.09
2390522003,-0.83,-0.55,-0.09
2390524004,-0.83,-0.55,-0.09
2390526095,-0.83,-0.55,-0.09
2390528009,-0.83,-0.55,-0.09
2390530006,-0.84,-0.56,-0.11
2390531979,-0.84,-0.56,-0.11
2390533980,-0.84,-0.56,-0.11
2390535976,-0.84,-0.56,-0.11
2390537977,-0.84,-0.56,-0.11
2390540024,-0.84,-0.56,-0.11
2390542062,-0.85,-0.55,-0.09
2390544004,-0.85,-0.55,-0.09
2390545979,-0.85,-0.55,-0.09
2390547977,-0.85,-0.55,-0.09
2390549975,-0.85,-0.55,-0.09
2390552091,-0.84,-0.55,-0.10
2390553977,-0.84,-0.55,-0.10
2390555974,-0.84,-0.55,-0.10
2390558027,-0.84,-0.55,-0.10
2390560006,-0.84,-0.55,-0.10
2390562002,-0.83,-0.55,-0.11
2390564021,-0.83,-0.55,-0.11
2390566043,-0.83,-0.55,-0.11
2390568005,-0.83,-0.55,-0.11
2390570002,-0.83,-0.55,-0.11
2390572008,-0.84,-0.54,-0.11
2390573978,-0.84,-0.54,-0.11
2390576089,-0.84,-0.54,-0.11
2390577987,-0.84,-0.54,-0.11
2390579977,-0.84,-0.54,-0.11
2390582017,-0.82,-0.55,-0.11
2390583977,-0.82,-0.55,-0.11
2390585977,-0.82,-0.55,-0.11
2390587975,-0.82,-0.55,-0.11
2390589976,-0.82,-0.55,-0.11
2390591976,-0.82,-0.54,-0.11
2390593980,-0.82,-0.54,-0.11
2390595993,-0.82,-0.54,-0.11
2390598014,-0.82,-0.54,-0.11
2390600005,-0.82,-0.54,-0.11
2390602122,-0.83,-0.56,-0.11
2390604006,-0.83,-0.56,-0.11
2390606005,-0.83,-0.56,-0.11
2390608003,-0.83,-0.56,-0.11
2390610005,-0.83,-0.56,-0.11
2390611981,-0.84,-0.55,-0.10
2390613979,-0.84,-0.55,-0.10
2390615979,-0.84,-0.55,-0.10
2390617975,-0.84,-0.55,-0.10
2390619978,-0.84,-0.55,-0.10
2390622052,-0.85,-0.55,-0.11
2390623986,-0.85,-0.55,-0.11
2390626076,-0.85,-0.55,-0.11
2390627989,-0.85,-0.55,-0.11
2390629976,-0.85,-0.55,-0.11
2390631976,-0.83,-0.55,-0.12
2390633980,-0.83,-0.55,-0.12
2390635976,-0.83,-0.55,-0.12
2390638007,-0.83,-0.55,-0.12
2390640005,-0.83,-0.55,-0.12
2390642000,-0.84,-0.55,-0.10
2390644058,-0.84,-0.55,-0.10
2390646036,-0.84,-0.55,-0.10
2390648008,-0.84,-0.55,-0.10
2390650002,-0.84,-0.55,-0.10
2390652119,-0.83,-0.55,-0.10
2390653985,-0.83,-0.55,-0.10
2390655977,-0.83,-0.55,-0.10
2390657976,-0.83,-0.55,-0.10
2390659980,-0.83,-0.55,-0.10
2390661978,-0.82,-0.56,-0.09
2390663978,-0.82,-0.56,-0.09
2390666020,-0.82,-0.56,-0.09
2390668018,-0.82,-0.56,-0.09
2390669975,-0.82,-0.56,-0.09
2390671976,-0.84,-0.55,-0.09
2390673978,-0.84,-0.55,-0.09
2390676075,-0.84,-0.55,-0.09
2390678023,-0.84,-0.55,-0.09
2390680001,-0.84,-0.55,-0.09
2390682051,-0.84,-0.55,-0.09
2390684055,-0.84,-0.55,-0.09
2390686006,-0.84,-0.55,-0.09
2390688010,-0.84,-0.55,-0.09
2390690010,-0.84,-0.55,-0.09
2390692003,-0.83,-0.56,-0.08
2390694007,-0.83,-0.56,-0.08
2390695995,-0.83,-0.56,-0.08
2390697978,-0.83,-0.56,-0.08
2390699980,-0.83,-0.56,-0.08
2390702107,-0.84,-0.55,-0.08
2390703977,-0.84,-0.55,-0.08
2390705974,-0.84,-0.55,-0.08
2390707978,-0.84,-0.55,-0.08
2390709974,-0.84,-0.55,-0.08
2390711976,-0.84,-0.55,-0.09
2390713976,-0.84,-0.55,-0.09
2390715974,-0.84,-0.55,-0.09
2390718017,-0.84,-0.55,-0.09
2390720005,-0.84,-0.55,-0.09
2390722005,-0.84,-0.55,-0.08
2390724005,-0.84,-0.55,-0.08
2390726095,-0.84,-0.55,-0.08
2390728011,-0.84,-0.55,-0.08
2390730012,-0.84,-0.55,-0.08
2390731980,-0.84,-0.55,-0.08
2390733975,-0.84,-0.54,-0.09
2390735980,-0.84,-0.54,-0.09
2390737978,-0.84,-0.54,-0.09
2390739979,-0.84,-0.54,-0.09
2390741979,-0.84,-0.54,-0.09
2390743979,-0.84,-0.54,-0.07
2390745977,-0.84,-0.54,-0.07
2390747977,-0.84,-0.54,-0.07
2390749991,-0.84,-0.54,-0.07
2390752083,-0.84,-0.54,-0.07
2390753982,-0.85,-0.54,-0.08
2390755976,-0.85,-0.54,-0.08
2390758065,-0.85,-0.54,-0.08
2390760016,-0.85,-0.54,-0.08
2390761957,-0.85,-0.54,-0.08
2390763955,-0.85,-0.54,-0.07
2390765979,-0.85,-0.54,-0.07
2390768012,-0.85,-0.54,-0.07
2390769959,-0.85,-0.54,-0.07
2390771958,-0.85,-0.54,-0.07
2390773957,-0.85,-0.52,-0.07
2390776070,-0.85,-0.52,-0.07
2390777973,-0.85,-0.52,-0.07
2390779957,-0.85,-0.52,-0.07
2390781959,-0.85,-0.52,-0.07
2390784005,-0.84,-0.53,-0.08
2390785958,-0.84,-0.53,-0.08
2390787955,-0.84,-0.53,-0.08
2390789955,-0.84,-0.53,-0.08
2390791953,-0.84,-0.53,-0.08
2390793958,-0.84,-0.52,-0.08
2390795980,-0.84,-0.52,-0.08
2390797953,-0.84,-0.52,-0.08
2390799960,-0.84,-0.52,-0.08
2390802075,-0.84,-0.52,-0.08
2390803957,-0.84,-0.53,-0.07
2390805958,-0.84,-0.53,-0.07
2390860050,-0.83,-0.55,-0.09
2390861999,-0.83,-0.55,-0.09
2390864003,-0.84,-0.54,-0.09
2390866002,-0.84,-0.54,-0.09
2390868004,-0.84,-0.54,-0.09
2390870036,-0.84,-0.54,-0.09
2390872048,-0.84,-0.54,-0.09
2390874006,-0.83,-0.55,-0.09
2390876120,-0.83,-0.55,-0.09
2390877988,-0.83,-0.55,-0.09
2390879981,-0.83,-0.55,-0.09
2390881979,-0.83,-0.55,-0.09
2390883978,-0.83,-0.55,-0.09
2390885985,-0.83,-0.55,-0.09
2390887978,-0.83,-0.55,-0.09
2390889979,-0.83,-0.55,-0.09
2390891978,-0.83,-0.55,-0.09
2390893979,-0.83,-0.55,-0.08
2390895989,-0.83,-0.55,-0.08
2390897979,-0.83,-0.55,-0.08
2390900013,-0.83,-0.55,-0.08
2390902109,-0.83,-0.55,-0.08
2390904034,-0.84,-0.55,-0.10
2390906031,-0.84,-0.55,-0.10
2390908009,-0.84,-0.55,-0.10
2390910006,-0.84,-0.55,-0.10
2390912002,-0.84,-0.55,-0.10
2390914009,-0.84,-0.55,-0.10
2390915976,-0.83,-0.55,-0.09
2390917980,-0.83,-0.55,-0.09
2390919977,-0.83,-0.55,-0.09
2390921981,-0.83,-0.55,-0.09
2390923975,-0.83,-0.55,-0.09
2390926093,-0.84,-0.55,-0.09
2390927991,-0.84,-0.55,-0.09
2390929978,-0.84,-0.55,-0.09
2390931974,-0.84,-0.55,-0.09
2390933979,-0.84,-0.55,-0.09
2390935980,-0.83,-0.56,-0.10
2390937980,-0.83,-0.56,-0.10
2390940008,-0.83,-0.56,-0.10
2390942004,-0.83,-0.56,-0.10
2390944052,-0.83,-0.56,-0.10
2390946003,-0.84,-0.55,-0.11
2390948000,-0.84,-0.55,-0.11
2390950003,-0.84,-0.55,-0.11
2390952121,-0.84,-0.55,-0.11
2390953980,-0.84,-0.55,-0.11
2390956011,-0.84,-0.54,-0.10
2390957976,-0.84,-0.54,-0.10
2390959975,-0.84,-0.54,-0.10
2390961974,-0.84,-0.54,-0.10
2390963974,-0.84,-0.54,-0.10
2390965974,-0.84,-0.55,-0.11
2390967975,-0.84,-0.55,-0.11
2390969974,-0.84,-0.55,-0.11
2390972008,-0.84,-0.55,-0.11
2390974027,-0.84,-0.55,-0.11
2390976084,-0.83,-0.55,-0.10
2390977989,-0.83,-0.55,-0.10
2390980112,-0.83,-0.55,-0.10
2390982035,-0.83,-0.55,-0.10
2390984003,-0.83,-0.55,-0.10
2390986001,-0.84,-0.55,-0.11
2390988005,-0.84,-0.55,-0.11
2390990002,-0.84,-0.55,-0.11
2390992005,-0.84,-0.55,-0.11
2390994001,-0.84,-0.55,-0.11
2390996008,-0.84,-0.55,-0.10
2390997982,-0.84,-0.55,-0.10
2390999996,-0.84,-0.55,-0.10
2391002107,-0.84,-0.55,-0.10
2391003981,-0.84,-0.55,-0.10
2391005979,-0.83,-0.55,-0.10
2391007978,-0.83,-0.55,-0.10
2391009978,-0.83,-0.55,-0.10
2391011975,-0.83,-0.55,-0.10
2391013974,-0.83,-0.55,-0.10
2391015991,-0.84,-0.54,-0.10
2391017979,-0.84,-0.54,-0.10
2391019979,-0.84,-0.54,-0.10
2391022017,-0.84,-0.54,-0.10
2391024005,-0.84,-0.54,-0.10
2391026089,-0.84,-0.54,-0.10
2391028007,-0.84,-0.54,-0.10
2391030002,-0.84,-0.54,-0.10
2391032003,-0.84,-0.54,-0.10
2391034004,-0.84,-0.54,-0.10
2391035979,-0.84,-0.55,-0.09
2391037981,-0.84,-0.55,-0.09
2391039976,-0.84,-0.55,-0.09
2391041980,-0.84,-0.55,-0.09
2391043985,-0.84,-0.55,-0.09
2391046063,-0.83,-0.54,-0.08
2391048020,-0.83,-0.54,-0.08
2391049974,-0.83,-0.54,-0.08
2391052089,-0.83,-0.54,-0.08
2391053979,-0.83,-0.54,-0.08
2391056011,-0.83,-0.55,-0.08
2391057976,-0.83,-0.55,-0.08
2391059977,-0.83,-0.55,-0.08
2391062018,-0.83,-0.55,-0.08
2391064005,-0.83,-0.55,-0.08
2391066001,-0.83,-0.55,-0.08
2391068008,-0.83,-0.55,-0.08
2391070004,-0.83,-0.55,-0.08
2391072007,-0.83,-0.55,-0.08
2391074006,-0.83,-0.55,-0.08
2391076103,-0.84,-0.55,-0.07
2391078013,-0.84,-0.55,-0.07
2391079976,-0.84,-0.55,-0.07
2391081987,-0.84,-0.55,-0.07
2391083979,-0.84,-0.55,-0.07
2391085976,-0.84,-0.55,-0.07
2391087976,-0.84,-0.55,-0.07
2391089974,-0.84,-0.55,-0.07
2391091976,-0.84,-0.55,-0.07
2391093980,-0.84,-0.55,-0.07
2391095992,-0.84,-0.55,-0.07
2391097977,-0.84,-0.55,-0.07
2391099979,-0.84,-0.55,-0.07
2391102130,-0.84,-0.55,-0.07
2391104010,-0.84,-0.55,-0.07
2391106004,-0.84,-0.55,-0.07
2391108002,-0.83,-0.54,-0.07
2391110007,-0.83,-0.54,-0.07
2391112008,-0.83,-0.54,-0.07
2391114008,-0.83,-0.54,-0.07
2391115979,-0.83,-0.54,-0.07
2391117976,-0.84,-0.54,-0.07
2391119981,-0.84,-0.54,-0.07
2391121980,-0.84,-0.54,-0.07
2391123977,-0.84,-0.54,-0.07
2391126082,-0.84,-0.54,-0.07
2391127988,-0.84,-0.54,-0.06
2391129979,-0.84,-0.54,-0.06
2391131979,-0.84,-0.54,-0.06
2391133980,-0.84,-0.54,-0.06
2391135979,-0.84,-0.54,-0.06
2391137979,-0.84,-0.55,-0.07
2391139978,-0.84,-0.55,-0.07
2391142006,-0.84,-0.55,-0.07
2391144005,-0.84,-0.55,-0.07
2391146002,-0.84,-0.55,-0.07
2391148095,-0.84,-0.54,-0.08
2391150027,-0.84,-0.54,-0.08
2391152115,-0.84,-0.54,-0.08
2391154004,-0.84,-0.54,-0.08
2391156064,-0.84,-0.54,-0.08
2391158004,-0.84,-0.54,-0.08
2391159956,-0.84,-0.54,-0.08
2391161957,-0.84,-0.54,-0.08
2391163957,-0.84,-0.54,-0.08
2391165957,-0.84,-0.54,-0.08
2391167956,-0.84,-0.54,-0.09
2391169956,-0.84,-0.54,-0.09
2391171957,-0.84,-0.54,-0.09
2391173956,-0.84,-0.54,-0.09
2391176071,-0.84,-0.54,-0.09
2391178016,-0.84,-0.54,-0.08
2391179957,-0.84,-0.54,-0.08
2391181953,-0.84,-0.54,-0.08
2391183957,-0.84,-0.54,-0.08
2391185955,-0.84,-0.54,-0.08
2391187957,-0.83,-0.54,-0.09
2391189958,-0.83,-0.54,-0.09
2391240048,-0.83,-0.55,-0.10
2391242003,-0.83,-0.55,-0.10
2391244053,-0.83,-0.55,-0.10
2391246038,-0.83,-0.55,-0.10
2391248008,-0.84,-0.55,-0.11
2391250011,-0.84,-0.55,-0.11
2391252123,-0.84,-0.55,-0.11
2391254007,-0.84,-0.55,-0.11
2391256042,-0.84,-0.55,-0.11
2391258010,-0.83,-0.55,-0.10
2391259984,-0.83,-0.55,-0.10
2391261984,-0.83,-0.55,-0.10
2391263984,-0.83,-0.55,-0.10
2391265979,-0.83,-0.55,-0.10
2391267979,-0.84,-0.56,-0.11
2391269976,-0.84,-0.56,-0.11
2391271980,-0.84,-0.56,-0.11
2391273977,-0.84,-0.56,-0.11
2391276088,-0.84,-0.56,-0.11
2391277988,-0.84,-0.55,-0.10
2391280013,-0.84,-0.55,-0.10
2391282063,-0.84,-0.55,-0.10
2391284007,-0.84,-0.55,-0.10
2391286009,-0.84,-0.55,-0.10
2391288009,-0.83,-0.56,-0.10
2391290010,-0.83,-0.56,-0.10
2391292012,-0.83,-0.56,-0.10
2391293981,-0.83,-0.56,-0.10
2391295988,-0.83,-0.56,-0.10
2391297976,-0.83,-0.56,-0.10
2391299978,-0.84,-0.55,-0.11
2391302096,-0.84,-0.55,-0.11
2391303978,-0.84,-0.55,-0.11
2391305976,-0.84,-0.55,-0.11
2391307975,-0.84,-0.55,-0.11
2391309978,-0.83,-0.56,-0.10
2391311975,-0.83,-0.56,-0.10
2391313979,-0.83,-0.56,-0.10
2391315976,-0.83,-0.56,-0.10
2391317974,-0.83,-0.56,-0.10
2391320015,-0.83,-0.55,-0.09
2391322008,-0.83,-0.55,-0.09
2391324007,-0.83,-0.55,-0.09
2391326104,-0.83,-0.55,-0.09
2391328041,-0.83,-0.55,-0.09
2391330009,-0.83,-0.55,-0.09
2391332006,-0.83,-0.55,-0.09
2391334005,-0.83,-0.55,-0.09
2391335976,-0.83,-0.55,-0.09
2391337983,-0.83,-0.55,-0.09
2391340034,-0.83,-0.55,-0.09
2391341978,-0.83,-0.55,-0.09
2391343973,-0.83,-0.55,-0.09
2391345981,-0.83,-0.55,-0.09
2391347977,-0.83,-0.55,-0.09
2391349977,-0.84,-0.54,-0.09
2391352095,-0.84,-0.54,-0.09
2391353980,-0.84,-0.54,-0.09
2391356012,-0.84,-0.54,-0.09
2391357975,-0.84,-0.54,-0.09
2391360018,-0.84,-0.54,-0.08
2391362001,-0.84,-0.54,-0.08
2391364004,-0.84,-0.54,-0.08
2391366002,-0.84,-0.54,-0.08
2391368000,-0.84,-0.54,-0.08
2391370004,-0.84,-0.54,-0.09
2391372008,-0.84,-0.54,-0.09
2391373980,-0.84,-0.54,-0.09
2391376089,-0.84,-0.54,-0.09
2391377992,-0.84,-0.54,-0.09
2391379976,-0.84,-0.54,-0.07
2391382017,-0.84,-0.54,-0.07
2391383977,-0.84,-0.54,-0.07
2391385977,-0.84,-0.54,-0.07
2391387979,-0.84,-0.54,-0.07
2391389975,-0.84,-0.53,-0.08
2391391981,-0.84,-0.53,-0.08
2391393981,-0.84,-0.53,-0.08
2391395990,-0.84,-0.53,-0.08
2391397976,-0.84,-0.53,-0.08
2391400014,-0.84,-0.54,-0.07
2391402115,-0.84,-0.54,-0.07
2391404001,-0.84,-0.54,-0.07
2391406000,-0.84,-0.54,-0.07
2391408002,-0.84,-0.54,-0.07
2391410003,-0.84,-0.53,-0.08
2391412006,-0.84,-0.53,-0.08
2391413980,-0.84,-0.53,-0.08
2391415979,-0.84,-0.53,-0.08
2391417981,-0.84,-0.53,-0.08
2391419979,-0.85,-0.53,-0.07
2391421980,-0.85,-0.53,-0.07
2391423980,-0.85,-0.53,-0.07
2391426075,-0.85,-0.53,-0.07
2391427988,-0.85,-0.53,-0.07
2391429978,-0.84,-0.53,-0.07
2391431981,-0.84,-0.53,-0.07
2391433981,-0.84,-0.53,-0.07
2391435981,-0.84,-0.53,-0.07
2391438019,-0.84,-0.53,-0.07
2391440010,-0.84,-0.53,-0.07
2391442023,-0.84,-0.53,-0.07
2391443978,-0.84,-0.53,-0.07
2391446053,-0.84,-0.53,-0.07
2391448006,-0.84,-0.53,-0.07
2391450001,-0.85,-0.53,-0.07
2391452119,-0.85,-0.53,-0.07
2391454005,-0.85,-0.53,-0.07
2391456037,-0.85,-0.53,-0.07
2391458008,-0.85,-0.53,-0.07
2391459978,-0.84,-0.54,-0.08
2391461979,-0.84,-0.54,-0.08
2391463975,-0.84,-0.54,-0.08
2391465975,-0.84,-0.54,-0.08
2391467980,-0.84,-0.54,-0.08
2391469979,-0.84,-0.54,-0.08
2391471975,-0.84,-0.54,-0.08
2391473979,-0.84,-0.54,-0.08
2391476093,-0.84,-0.54,-0.08
2391477986,-0.84,-0.54,-0.08
2391480011,-0.83,-0.55,-0.08
2391482006,-0.83,-0.55,-0.08
2391484001,-0.83,-0.55,-0.08
2391486002,-0.83,-0.55,-0.08
2391488002,-0.83,-0.55,-0.08
2391490001,-0.83,-0.55,-0.08
2391492000,-0.84,-0.55,-0.08
2391493985,-0.84,-0.55,-0.08
2391495992,-0.84,-0.55,-0.08
2391497975,-0.84,-0.55,-0.08
2391499993,-0.84,-0.55,-0.08
2391502094,-0.83,-0.56,-0.07
2391503975,-0.83,-0.56,-0.07
2391505977,-0.83,-0.56,-0.07
2391507979,-0.83,-0.56,-0.07
2391509977,-0.83,-0.56,-0.07
2391511977,-0.84,-0.57,-0.11
2391513977,-0.84,-0.57,-0.11
2391515975,-0.84,-0.57,-0.11
2391517975,-0.84,-0.57,-0.11
2391520009,-0.84,-0.57,-0.11
2391522002,-0.84,-0.56,-0.09
2391524002,-0.84,-0.56,-0.09
2391526099,-0.84,-0.56,-0.09
2391528115,-0.84,-0.56,-0.09
2391529992,-0.84,-0.56,-0.09
2391531959,-0.82,-0.56,-0.09
2391533958,-0.82,-0.56,-0.09
2391535958,-0.82,-0.56,-0.09
2391537958,-0.82,-0.56,-0.09
2391539961,-0.82,-0.56,-0.09
2391541961,-0.83,-0.56,-0.10
2391543957,-0.83,-0.56,-0.10
2391545958,-0.83,-0.56,-0.10
2391547957,-0.83,-0.56,-0.10
2391549957,-0.83,-0.56,-0.10
2391552074,-0.82,-0.57,-0.10
2391553961,-0.82,-0.57,-0.10
2391556002,-0.82,-0.57,-0.10
2391557958,-0.82,-0.57,-0.10
2391559958,-0.82,-0.57,-0.10
2391561958,-0.82,-0.55,-0.10
2391563952,-0.82,-0.55,-0.10
2391565957,-0.82,-0.55,-0.10
2391567958,-0.82,-0.55,-0.10
2391624035,-0.84,-0.53,-0.09
2391626108,-0.84,-0.53,-0.09
2391628010,-0.84,-0.53,-0.09
2391630005,-0.84,-0.53,-0.09
2391632008,-0.84,-0.53,-0.07
2391634006,-0.84,-0.53,-0.07
2391636004,-0.84,-0.53,-0.07
2391637975,-0.84,-0.53,-0.07
2391639977,-0.84,-0.53,-0.07
2391641973,-0.84,-0.54,-0.09
2391643980,-0.84,-0.54,-0.09
2391645976,-0.84,-0.54,-0.09
2391647976,-0.84,-0.54,-0.09
2391649976,-0.84,-0.54,-0.09
2391652080,-0.84,-0.54,-0.07
2391653978,-0.84,-0.54,-0.07
2391656010,-0.84,-0.54,-0.07
2391657978,-0.84,-0.54,-0.07
2391659977,-0.84,-0.54,-0.07
2391661975,-0.84,-0.54,-0.08
2391664015,-0.84,-0.54,-0.08
2391666038,-0.84,-0.54,-0.08
2391668031,-0.84,-0.54,-0.08
2391670012,-0.84,-0.54,-0.08
2391672007,-0.84,-0.54,-0.08
2391674000,-0.85,-0.54,-0.09
2391676113,-0.85,-0.54,-0.09
2391678003,-0.85,-0.54,-0.09
2391680008,-0.85,-0.54,-0.09
2391681977,-0.85,-0.54,-0.09
2391683980,-0.85,-0.55,-0.08
2391685974,-0.85,-0.55,-0.08
2391687978,-0.85,-0.55,-0.08
2391689983,-0.85,-0.55,-0.08
2391692022,-0.85,-0.55,-0.08
2391693979,-0.82,-0.55,-0.08
2391695995,-0.82,-0.55,-0.08
2391697979,-0.82,-0.55,-0.08
2391699979,-0.82,-0.55,-0.08
2391702095,-0.82,-0.55,-0.08
2391704016,-0.82,-0.54,-0.07
2391706004,-0.82,-0.54,-0.07
2391707999,-0.82,-0.54,-0.07
2391710003,-0.82,-0.54,-0.07
2391712002,-0.82,-0.54,-0.07
2391714064,-0.83,-0.53,-0.07
2391716039,-0.83,-0.53,-0.07
2391718001,-0.83,-0.53,-0.07
2391720008,-0.83,-0.53,-0.07
2391721978,-0.83,-0.53,-0.07
2391723979,-0.85,-0.54,-0.06
2391726095,-0.85,-0.54,-0.06
2391727990,-0.85,-0.54,-0.06
2391729977,-0.85,-0.54,-0.06
2391731977,-0.85,-0.54,-0.06
2391733980,-0.84,-0.55,-0.05
2391735980,-0.84,-0.55,-0.05
2391737986,-0.84,-0.55,-0.05
2391739975,-0.84,-0.55,-0.05
2391741980,-0.84,-0.55,-0.05
2391744012,-0.83,-0.55,-0.06
2391746003,-0.83,-0.55,-0.06
2391748004,-0.83,-0.55,-0.06
2391750012,-0.83,-0.55,-0.06
2391752108,-0.83,-0.55,-0.06
2391754006,-0.83,-0.55,-0.05
2391756038,-0.83,-0.55,-0.05
2391757979,-0.83,-0.55,-0.05
2391759974,-0.83,-0.55,-0.05
2391761977,-0.83,-0.55,-0.05
2391763975,-0.83,-0.56,-0.07
2391765979,-0.83,-0.56,-0.07
2391767977,-0.83,-0.56,-0.07
2391769976,-0.83,-0.56,-0.07
2391771975,-0.83,-0.56,-0.07
2391774067,-0.83,-0.55,-0.03
2391776124,-0.83,-0.55,-0.03
2391777987,-0.83,-0.55,-0.03
2391779976,-0.83,-0.55,-0.03
2391781974,-0.83,-0.55,-0.03
2391784022,-0.84,-0.56,-0.09
2391786004,-0.84,-0.56,-0.09
2391788004,-0.84,-0.56,-0.09
2391790015,-0.84,-0.56,-0.09
2391792042,-0.84,-0.56,-0.09
2391794044,-0.86,-0.54,-0.07
2391796010,-0.86,-0.54,-0.07
2391798011,-0.86,-0.54,-0.07
2391799981,-0.86,-0.54,-0.07
2391802103,-0.86,-0.54,-0.07
2391803974,-0.85,-0.57,-0.11
2391805979,-0.85,-0.57,-0.11
2391807976,-0.85,-0.57,-0.11
2391809976,-0.85,-0.57,-0.11
2391811976,-0.85,-0.57,-0.11
2391813976,-0.85,-0.58,-0.11
2391815976,-0.85,-0.58,-0.11
2391817974,-0.85,-0.58,-0.11
2391819979,-0.85,-0.58,-0.11
2391822036,-0.85,-0.58,-0.11
2391824032,-0.82,-0.58,-0.13
2391826116,-0.82,-0.58,-0.13
2391828006,-0.82,-0.58,-0.13
2391830001,-0.82,-0.58,-0.13
2391832006,-0.82,-0.58,-0.13
2391834007,-0.82,-0.55,-0.12
2391836005,-0.82,-0.55,-0.12
2391838005,-0.82,-0.55,-0.12
2391839979,-0.82,-0.55,-0.12
2391841976,-0.82,-0.55,-0.12
2391843974,-0.80,-0.51,-0.12
2391845977,-0.80,-0.51,-0.12
2391847977,-0.80,-0.51,-0.12
2391849978,-0.80,-0.51,-0.12
2391852081,-0.80,-0.51,-0.12
2391853980,-0.86,-0.52,-0.13
2391856011,-0.86,-0.52,-0.13
2391857977,-0.86,-0.52,-0.13
2391859972,-0.86,-0.52,-0.13
2391861978,-0.86,-0.52,-0.13
2391864016,-0.86,-0.52,-0.13
2391866007,-0.88,-0.50,-0.09
2391868068,-0.88,-0.50,-0.09
2391870032,-0.88,-0.50,-0.09
2391872009,-0.88,-0.50,-0.09
2391874010,-0.88,-0.50,-0.09
2391876113,-0.87,-0.52,-0.10
2391878015,-0.87,-0.52,-0.10
2391880005,-0.87,-0.52,-0.10
2391881976,-0.87,-0.52,-0.10
2391883980,-0.87,-0.52,-0.10
2391885977,-0.86,-0.50,-0.08
2391887979,-0.86,-0.50,-0.08
2391889975,-0.86,-0.50,-0.08
2391891984,-0.86,-0.50,-0.08
2391894010,-0.86,-0.50,-0.08
2391896017,-0.82,-0.54,-0.08
2391897979,-0.82,-0.54,-0.08
2391899982,-0.82,-0.54,-0.08
2391902096,-0.82,-0.54,-0.08
2391904026,-0.82,-0.54,-0.08
2391906007,-0.81,-0.55,-0.07
2391908006,-0.81,-0.55,-0.07
2391910004,-0.81,-0.55,-0.07
2391912031,-0.81,-0.55,-0.07
2391914066,-0.81,-0.55,-0.07
2391916040,-0.79,-0.57,-0.07
2391918006,-0.79,-0.57,-0.07
2391920010,-0.79,-0.57,-0.07
2391921979,-0.79,-0.57,-0.07
2391923980,-0.79,-0.57,-0.07
2391926092,-0.82,-0.59,-0.08
2391927992,-0.82,-0.59,-0.08
2391929979,-0.82,-0.59,-0.08
2391931980,-0.82,-0.59,-0.08
2391933989,-0.82,-0.59,-0.08
2391935984,-0.81,-0.60,-0.08
2391937984,-0.81,-0.60,-0.08
2391939979,-0.81,-0.60,-0.08
2391941976,-0.81,-0.60,-0.08
2391944017,-0.81,-0.60,-0.08
2391946005,-0.83,-0.61,-0.08
2391948005,-0.83,-0.61,-0.08
2391950001,-0.83,-0.61,-0.08
2391952103,-0.83,-0.61,-0.08
2391954009,-0.83,-0.61,-0.08
2391956038,-0.83,-0.60,-0.09
2391957979,-0.83,-0.60,-0.09
2391959975,-0.83,-0.60,-0.09
2391961976,-0.83,-0.60,-0.09
2391963976,-0.83,-0.60,-0.09
2391965981,-0.82,-0.60,-0.10
2391967984,-0.82,-0.60,-0.10
2391969980,-0.82,-0.60,-0.10
2391971979,-0.82,-0.60,-0.10
2391973979,-0.82,-0.60,-0.10
2391976085,-0.82,-0.58,-0.11
2391977988,-0.82,-0.58,-0.11
2391979975,-0.82,-0.58,-0.11
2391981980,-0.82,-0.58,-0.11
2391984008,-0.82,-0.58,-0.11
2391986006,-0.82,-0.55,-0.10
2391988001,-0.82,-0.55,-0.10
2391990007,-0.82,-0.55,-0.10
2391992006,-0.82,-0.55,-0.10
2391994001,-0.82,-0.55,-0.10
2391996012,-0.83,-0.54,-0.11
2391998003,-0.83,-0.54,-0.11
2391999996,-0.83,-0.54,-0.11
2392002100,-0.83,-0.54,-0.11
2392003980,-0.83,-0.54,-0.11
2392005980,-0.86,-0.53,-0.09
2392007977,-0.86,-0.53,-0.09
2392009976,-0.86,-0.53,-0.09
2392011977,-0.86,-0.53,-0.09
2392013976,-0.86,-0.53,-0.09
2392015975,-0.86,-0.52,-0.11
2392017974,-0.86,-0.52,-0.11
2392019979,-0.86,-0.52,-0.11
2392021977,-0.86,-0.52,-0.11
2392024018,-0.86,-0.52,-0.11
2392026108,-0.86,-0.50,-0.10
2392028046,-0.86,-0.50,-0.10
2392030007,-0.86,-0.50,-0.10
2392032003,-0.86,-0.50,-0.10
2392034004,-0.86,-0.50,-0.10
2392036005,-0.84,-0.50,-0.10
2392038007,-0.84,-0.50,-0.10
2392039977,-0.84,-0.50,-0.10
2392041980,-0.84,-0.50,-0.10
2392043980,-0.84,-0.50,-0.10
2392045981,-0.84,-0.50,-0.10
2392047979,-0.85,-0.50,-0.10
2392049979,-0.85,-0.50,-0.10
2392052091,-0.85,-0.50,-0.10
2392053980,-0.85,-0.50,-0.10
2392056017,-0.85,-0.50,-0.10
2392057978,-0.85,-0.49,-0.09
2392060050,-0.85,-0.49,-0.09
2392061974,-0.85,-0.49,-0.09
2392064030,-0.85,-0.49,-0.09
2392066005,-0.85,-0.49,-0.09
2392068005,-0.86,-0.51,-0.09
2392070005,-0.86,-0.51,-0.09
2392072002,-0.86,-0.51,-0.09
2392074002,-0.86,-0.51,-0.09
2392076108,-0.86,-0.51,-0.09
2392077985,-0.87,-0.52,-0.08
2392079976,-0.87,-0.52,-0.08
2392081974,-0.87,-0.52,-0.08
2392083979,-0.87,-0.52,-0.08
2392085980,-0.87,-0.52,-0.08
2392087979,-0.87,-0.53,-0.07
2392089979,-0.87,-0.53,-0.07
2392091976,-0.87,-0.53,-0.07
2392093976,-0.87,-0.53,-0.07
2392095992,-0.87,-0.53,-0.07
2392097978,-0.85,-0.54,-0.07
2392099997,-0.85,-0.54,-0.07
2392102166,-0.85,-0.54,-0.07
2392104027,-0.85,-0.54,-0.07
2392106013,-0.85,-0.54,-0.07
2392108005,-0.84,-0.55,-0.06
2392110002,-0.84,-0.55,-0.06
2392112006,-0.84,-0.55,-0.06
2392114001,-0.84,-0.55,-0.06
2392116003,-0.84,-0.55,-0.06
2392118005,-0.82,-0.57,-0.06
2392119974,-0.82,-0.57,-0.06
2392121981,-0.82,-0.57,-0.06
2392123978,-0.82,-0.57,-0.06
2392126091,-0.82,-0.57,-0.06
2392127987,-0.81,-0.56,-0.04
2392129976,-0.81,-0.56,-0.04
2392131977,-0.81,-0.56,-0.04
2392133976,-0.81,-0.56,-0.04
2392135977,-0.81,-0.56,-0.04
2392137977,-0.81,-0.57,-0.05
2392139980,-0.81,-0.57,-0.05
2392141981,-0.81,-0.57,-0.05
2392144014,-0.81,-0.57,-0.05
2392146005,-0.81,-0.57,-0.05
2392148002,-0.82,-0.57,-0.06
2392150005,-0.82,-0.57,-0.06
2392152175,-0.82,-0.57,-0.06
2392154029,-0.82,-0.57,-0.06
2392156046,-0.82,-0.57,-0.06
2392158003,-0.83,-0.56,-0.05
2392160008,-0.83,-0.56,-0.05
2392161984,-0.83,-0.56,-0.05
2392163979,-0.83,-0.56,-0.05
2392165979,-0.83,-0.56,-0.05
2392167980,-0.82,-0.58,-0.07
2392169976,-0.82,-0.58,-0.07
2392171977,-0.82,-0.58,-0.07
2392173979,-0.82,-0.58,-0.07
2392176089,-0.82,-0.58,-0.07
2392177987,-0.83,-0.59,-0.09
2392179979,-0.83,-0.59,-0.09
2392181976,-0.83,-0.59,-0.09
2392184012,-0.83,-0.59,-0.09
2392186003,-0.83,-0.59,-0.09
2392188001,-0.82,-0.57,-0.08
2392190001,-0.82,-0.57,-0.08
2392192002,-0.82,-0.57,-0.08
2392194008,-0.82,-0.57,-0.08
2392195994,-0.82,-0.57,-0.08
2392197979,-0.81,-0.57,-0.10
2392199983,-0.81,-0.57,-0.10
2392202165,-0.81,-0.57,-0.10
2392204014,-0.81,-0.57,-0.10
2392205976,-0.81,-0.57,-0.10
2392207976,-0.84,-0.54,-0.11
2392210136,-0.84,-0.54,-0.11
2392212009,-0.84,-0.54,-0.11
2392213977,-0.84,-0.54,-0.11
2392215977,-0.84,-0.54,-0.11
2392217977,-0.84,-0.54,-0.11
2392219977,-0.84,-0.54,-0.11
2392221976,-0.84,-0.54,-0.11
2392224018,-0.84,-0.54,-0.11
2392226222,-0.84,-0.54,-0.11
2392228084,-0.85,-0.53,-0.12
2392230033,-0.85,-0.53,-0.12
2392232004,-0.85,-0.53,-0.12
2392234003,-0.85,-0.53,-0.12
2392236003,-0.85,-0.53,-0.12
2392238001,-0.85,-0.53,-0.12
2392240004,-0.85,-0.53,-0.10
2392241979,-0.85,-0.53,-0.10
2392243979,-0.85,-0.53,-0.10
2392245978,-0.85,-0.53,-0.10
2392247983,-0.85,-0.53,-0.10
2392249990,-0.85,-0.52,-0.11
2392252099,-0.85,-0.52,-0.11
2392253983,-0.85,-0.52,-0.11
2392256040,-0.85,-0.52,-0.11
2392258064,-0.85,-0.52,-0.11
2392260023,-0.84,-0.52,-0.11
2392261981,-0.84,-0.52,-0.11
2392264023,-0.84,-0.52,-0.11
2392266005,-0.84,-0.52,-0.11
2392268001,-0.84,-0.52,-0.11
2392270001,-0.85,-0.51,-0.10
2392272002,-0.85,-0.51,-0.10
2392274006,-0.85,-0.51,-0.10
2392276115,-0.85,-0.51,-0.10
2392277986,-0.85,-0.51,-0.10
2392279979,-0.86,-0.50,-0.09
2392281979,-0.86,-0.50,-0.09
2392283975,-0.86,-0.50,-0.09
2392285975,-0.86,-0.50,-0.09
2392287976,-0.86,-0.50,-0.09
2392289980,-0.84,-0.51,-0.08
2392291977,-0.84,-0.51,-0.08
2392293985,-0.84,-0.51,-0.08
2392295990,-0.84,-0.51,-0.08
2392297977,-0.84,-0.51,-0.08
2392299980,-0.86,-0.52,-0.07
2392302071,-0.86,-0.52,-0.07
2392304010,-0.86,-0.52,-0.07
2392306057,-0.86,-0.52,-0.07
2392308041,-0.86,-0.52,-0.07
2392310008,-0.85,-0.53,-0.07
2392312002,-0.85,-0.53,-0.07
2392314005,-0.85,-0.53,-0.07
2392316000,-0.85,-0.53,-0.07
2392318001,-0.85,-0.53,-0.07
2392320007,-0.84,-0.55,-0.05
2392321981,-0.84,-0.55,-0.05
2392323981,-0.84,-0.55,-0.05
2392326095,-0.84,-0.55,-0.05
2392327990,-0.84,-0.55,-0.05
2392329979,-0.84,-0.55,-0.06
2392331980,-0.84,-0.55,-0.06
2392333977,-0.84,-0.55,-0.06
2392335984,-0.84,-0.55,-0.06
2392337979,-0.84,-0.55,-0.06
2392339977,-0.83,-0.55,-0.05
2392341980,-0.83,-0.55,-0.05
2392344008,-0.83,-0.55,-0.05
2392346008,-0.83,-0.55,-0.05
2392348003,-0.83,-0.55,-0.05
2392350001,-0.82,-0.55,-0.05
2392352101,-0.82,-0.55,-0.05
2392354005,-0.82,-0.55,-0.05
2392356040,-0.82,-0.55,-0.05
2392357979,-0.82,-0.55,-0.05
2392359979,-0.82,-0.56,-0.06
2392361978,-0.82,-0.56,-0.06
2392363979,-0.82,-0.56,-0.06
2392365979,-0.82,-0.56,-0.06
2392367977,-0.82,-0.56,-0.06
2392369980,-0.83,-0.57,-0.07
2392371974,-0.83,-0.57,-0.07
2392373976,-0.83,-0.57,-0.07
2392376089,-0.83,-0.57,-0.07
2392377989,-0.83,-0.57,-0.07
2392379979,-0.83,-0.56,-0.06
2392381978,-0.83,-0.56,-0.06
2392384007,-0.83,-0.56,-0.06
2392386006,-0.83,-0.56,-0.06
2392388004,-0.83,-0.56,-0.06
2392390005,-0.83,-0.57,-0.07
2392392076,-0.83,-0.57,-0.07
2392394029,-0.83,-0.57,-0.07
2392396012,-0.83,-0.57,-0.07
2392398003,-0.83,-0.57,-0.07
2392399980,-0.83,-0.56,-0.08
2392402105,-0.83,-0.56,-0.08
2392404041,-0.83,-0.56,-0.08
2392406004,-0.83,-0.56,-0.08
2392408011,-0.83,-0.56,-0.08
2392409980,-0.84,-0.56,-0.09
2392411979,-0.84,-0.56,-0.09
2392413980,-0.84,-0.56,-0.09
2392415977,-0.84,-0.56,-0.09
2392417977,-0.84,-0.56,-0.09
2392419976,-0.84,-0.55,-0.09
2392421976,-0.84,-0.55,-0.09
2392424014,-0.84,-0.55,-0.09
2392426106,-0.84,-0.55,-0.09
2392428010,-0.84,-0.55,-0.09
2392430002,-0.84,-0.55,-0.09
2392432002,-0.84,-0.55,-0.10
2392434006,-0.84,-0.55,-0.10
2392436005,-0.84,-0.55,-0.10
2392437978,-0.84,-0.55,-0.10
2392439980,-0.84,-0.55,-0.10
2392441977,-0.84,-0.54,-0.11
2392443991,-0.84,-0.54,-0.11
2392446103,-0.84,-0.54,-0.11
2392448016,-0.84,-0.54,-0.11
2392449977,-0.84,-0.54,-0.11
2392452098,-0.84,-0.54,-0.12
2392453980,-0.84,-0.54,-0.12
2392456016,-0.84,-0.54,-0.12
2392457989,-0.84,-0.54,-0.12
2392459980,-0.84,-0.54,-0.12
2392461978,-0.83,-0.55,-0.12
2392464022,-0.83,-0.55,-0.12
2392466003,-0.83,-0.55,-0.12
2392468005,-0.83,-0.55,-0.12
2392470006,-0.83,-0.55,-0.12
2392472005,-0.83,-0.55,-0.14
2392474004,-0.83,-0.55,-0.14
2392476108,-0.83,-0.55,-0.14
2392477988,-0.83,-0.55,-0.14
2392479979,-0.83,-0.55,-0.14
2392481980,-0.83,-0.54,-0.14
2392483981,-0.83,-0.54,-0.14
2392485980,-0.83,-0.54,-0.14
2392487978,-0.83,-0.54,-0.14
2392489980,-0.83,-0.54,-0.14
2392491977,-0.83,-0.55,-0.14
2392494136,-0.83,-0.55,-0.14
2392496018,-0.83,-0.55,-0.14
2392497980,-0.83,-0.55,-0.14
2392499995,-0.83,-0.55,-0.14
2392502104,-0.83,-0.55,-0.13
2392504028,-0.83,-0.55,-0.13
2392506004,-0.83,-0.55,-0.13
2392508005,-0.83,-0.55,-0.13
2392510039,-0.83,-0.55,-0.13
2392512013,-0.82,-0.55,-0.12
2392514004,-0.82,-0.55,-0.12
2392516005,-0.82,-0.55,-0.12
2392518012,-0.82,-0.55,-0.12
2392519979,-0.82,-0.55,-0.12
2392521982,-0.84,-0.54,-0.09
2392523980,-0.84,-0.54,-0.09
2392526084,-0.84,-0.54,-0.09
2392527987,-0.84,-0.54,-0.09
2392529979,-0.84,-0.54,-0.09
2392531979,-0.83,-0.55,-0.08
2392533976,-0.83,-0.55,-0.08
2392535976,-0.83,-0.55,-0.08
2392537979,-0.83,-0.55,-0.08
2392539994,-0.83,-0.55,-0.08
2392542112,-0.84,-0.54,-0.05
2392544040,-0.84,-0.54,-0.05
2392546000,-0.84,-0.54,-0.05
2392548005,-0.84,-0.54,-0.05
2392550007,-0.84,-0.54,-0.05
2392552120,-0.84,-0.55,-0.06
2392554010,-0.84,-0.55,-0.06
2392556043,-0.84,-0.55,-0.06
2392558007,-0.84,-0.55,-0.06
2392559976,-0.84,-0.55,-0.06
2392561979,-0.83,-0.56,-0.05
2392563978,-0.83,-0.56,-0.05
2392565978,-0.83,-0.56,-0.05
2392567981,-0.83,-0.56,-0.05
2392569984,-0.83,-0.56,-0.05
2392571980,-0.82,-0.55,-0.05
2392573979,-0.82,-0.55,-0.05
2392576087,-0.82,-0.55,-0.05
2392577986,-0.82,-0.55,-0.05
2392579975,-0.82,-0.55,-0.05
2392581978,-0.82,-0.56,-0.05
2392584009,-0.82,-0.56,-0.05
2392586005,-0.82,-0.56,-0.05
2392588060,-0.82,-0.56,-0.05
2392590045,-0.82,-0.56,-0.05
2392592004,-0.82,-0.56,-0.07
2392594008,-0.82,-0.56,-0.07
2392596008,-0.82,-0.56,-0.07
2392598002,-0.82,-0.56,-0.07
2392600006,-0.82,-0.56,-0.07
2392602102,-0.83,-0.55,-0.08
2392603979,-0.83,-0.55,-0.08
2392605974,-0.83,-0.55,-0.08
2392607979,-0.83,-0.55,-0.08
2392609976,-0.83,-0.55,-0.08
2392611990,-0.83,-0.55,-0.08
2392614010,-0.83,-0.55,-0.09
2392615979,-0.83,-0.55,-0.09
2392617979,-0.83,-0.55,-0.09
2392619980,-0.83,-0.55,-0.09
2392622054,-0.83,-0.55,-0.09
2392624021,-0.84,-0.55,-0.12
2392626103,-0.84,-0.55,-0.12
2392628007,-0.84,-0.55,-0.12
2392630006,-0.84,-0.55,-0.12
2392632004,-0.84,-0.55,-0.12
2392634039,-0.85,-0.54,-0.11
2392636041,-0.85,-0.54,-0.11
2392638037,-0.85,-0.54,-0.11
2392640008,-0.85,-0.54,-0.11
2392641977,-0.85,-0.54,-0.11
2392643981,-0.84,-0.54,-0.10
2392645976,-0.84,-0.54,-0.10
2392647980,-0.84,-0.54,-0.10
2392649979,-0.84,-0.54,-0.10
2392652098,-0.84,-0.54,-0.10
2392653981,-0.84,-0.52,-0.09
2392656012,-0.84,-0.52,-0.09
2392657977,-0.84,-0.52,-0.09
2392659975,-0.84,-0.52,-0.09
2392661974,-0.84,-0.52,-0.09
2392664021,-0.85,-0.53,-0.10
2392666003,-0.85,-0.53,-0.10
2392668005,-0.85,-0.53,-0.10
2392670009,-0.85,-0.53,-0.10
2392672003,-0.85,-0.53,-0.10
2392674007,-0.85,-0.51,-0.07
2392676086,-0.85,-0.51,-0.07
2392677987,-0.85,-0.51,-0.07
2392679978,-0.85,-0.51,-0.07
2392681979,-0.85,-0.51,-0.07
2392683979,-0.85,-0.52,-0.06
2392685976,-0.85,-0.52,-0.06
2392687979,-0.85,-0.52,-0.06
2392689981,-0.85,-0.52,-0.06
2392691977,-0.85,-0.52,-0.06
2392693982,-0.85,-0.53,-0.06
2392696056,-0.85,-0.53,-0.06
2392698019,-0.85,-0.53,-0.06
2392699980,-0.85,-0.53,-0.06
2392702100,-0.85,-0.53,-0.06
2392704027,-0.83,-0.53,-0.05
2392706008,-0.83,-0.53,-0.05
2392708007,-0.83,-0.53,-0.05
2392710005,-0.83,-0.53,-0.05
2392712010,-0.83,-0.53,-0.05
2392714007,-0.84,-0.54,-0.05
2392716007,-0.84,-0.54,-0.05
2392717980,-0.84,-0.54,-0.05
2392719980,-0.84,-0.54,-0.05
2392721980,-0.84,-0.54,-0.05
2392723984,-0.83,-0.54,-0.06
2392726081,-0.83,-0.54,-0.06
2392727991,-0.83,-0.54,-0.06
2392729978,-0.83,-0.54,-0.06
2392731980,-0.83,-0.54,-0.06
2392733976,-0.84,-0.55,-0.07
2392735981,-0.84,-0.55,-0.07
2392737981,-0.84,-0.55,-0.07
2392739979,-0.84,-0.55,-0.07
2392741980,-0.84,-0.55,-0.07
2392744014,-0.85,-0.55,-0.08
2392746006,-0.85,-0.55,-0.08
2392748005,-0.85,-0.55,-0.08
2392750014,-0.85,-0.55,-0.08
2392752106,-0.85,-0.55,-0.08
2392754011,-0.85,-0.55,-0.08
2392756040,-0.85,-0.55,-0.08
2392757978,-0.85,-0.55,-0.08
2392759980,-0.85,-0.55,-0.08
2392761978,-0.85,-0.55,-0.08
2392763979,-0.84,-0.55,-0.09
2392765981,-0.84,-0.55,-0.09
2392767981,-0.84,-0.55,-0.09
2392769977,-0.84,-0.55,-0.09
2392771976,-0.84,-0.55,-0.09
2392773979,-0.82,-0.55,-0.09
2392776087,-0.82,-0.55,-0.09
2392777990,-0.82,-0.55,-0.09
2392779979,-0.82,-0.55,-0.09
2392781977,-0.82,-0.55,-0.09
2392784013,-0.82,-0.57,-0.10
2392786004,-0.82,-0.57,-0.10
2392788008,-0.82,-0.57,-0.10
2392790077,-0.82,-0.57,-0.10
2392792026,-0.82,-0.57,-0.10
2392794010,-0.82,-0.57,-0.09
2392796053,-0.82,-0.57,-0.09
2392798011,-0.82,-0.57,-0.09
2392800005,-0.82,-0.57,-0.09
2392802101,-0.82,-0.57,-0.09
2392803975,-0.82,-0.57,-0.09
2392805975,-0.82,-0.57,-0.11
2392807978,-0.82,-0.57,-0.11
2392809977,-0.82,-0.57,-0.11
2392811977,-0.82,-0.57,-0.11
2392814004,-0.82,-0.57,-0.11
2392816036,-0.83,-0.57,-0.10
2392818013,-0.83,-0.57,-0.10
2392819977,-0.83,-0.57,-0.10
2392821981,-0.83,-0.57,-0.10
2392824022,-0.83,-0.57,-0.10
2392826105,-0.83,-0.56,-0.10
2392828012,-0.83,-0.56,-0.10
2392830004,-0.83,-0.56,-0.10
2392832003,-0.83,-0.56,-0.10
2392834004,-0.83,-0.56,-0.10
2392836008,-0.82,-0.57,-0.11
2392837979,-0.82,-0.57,-0.11
2392839979,-0.82,-0.57,-0.11
2392841978,-0.82,-0.57,-0.11
2392843984,-0.82,-0.57,-0.11
2392845980,-0.83,-0.56,-0.11
2392847979,-0.83,-0.56,-0.11
2392850050,-0.83,-0.56,-0.11
2392852138,-0.83,-0.56,-0.11
2392853979,-0.83,-0.56,-0.11
2392856008,-0.84,-0.56,-0.11
2392857974,-0.84,-0.56,-0.11
2392859977,-0.84,-0.56,-0.11
2392861976,-0.84,-0.56,-0.11
2392864022,-0.84,-0.56,-0.11
2392865999,-0.84,-0.55,-0.10
2392868000,-0.84,-0.55,-0.10
2392870004,-0.84,-0.55,-0.10
2392872003,-0.84,-0.55,-0.10
2392874004,-0.84,-0.55,-0.10
2392876103,-0.84,-0.53,-0.11
2392877989,-0.84,-0.53,-0.11
2392879976,-0.84,-0.53,-0.11
2392881980,-0.84,-0.53,-0.11
2392883977,-0.84,-0.53,-0.11
2392885977,-0.85,-0.52,-0.09
2392887981,-0.85,-0.52,-0.09
2392889980,-0.85,-0.52,-0.09
2392891979,-0.85,-0.52,-0.09
2392893978,-0.85,-0.52,-0.09
2392896015,-0.86,-0.52,-0.09
2392898064,-0.86,-0.52,-0.09
2392900022,-0.86,-0.52,-0.09
2392902103,-0.86,-0.52,-0.09
2392904024,-0.86,-0.52,-0.09
2392906002,-0.85,-0.53,-0.09
2392908002,-0.85,-0.53,-0.09
2392910004,-0.85,-0.53,-0.09
2392912002,-0.85,-0.53,-0.09
2392914004,-0.85,-0.53,-0.09
2392916022,-0.84,-0.52,-0.08
2392918010,-0.84,-0.52,-0.08
2392920024,-0.84,-0.52,-0.08
2392921975,-0.84,-0.52,-0.08
2392923979,-0.84,-0.52,-0.08
2392926087,-0.84,-0.52,-0.07
2392927987,-0.84,-0.52,-0.07
2392929979,-0.84,-0.52,-0.07
2392931980,-0.84,-0.52,-0.07
2392933977,-0.84,-0.52,-0.07
2392935974,-0.84,-0.52,-0.05
2392937977,-0.84,-0.52,-0.05
2392939979,-0.84,-0.52,-0.05
2392941974,-0.84,-0.52,-0.05
2392944036,-0.84,-0.52,-0.05
2392946036,-0.85,-0.52,-0.07
2392948028,-0.85,-0.52,-0.07
2392950002,-0.85,-0.52,-0.07
2392952120,-0.85,-0.52,-0.07
2392954004,-0.85,-0.52,-0.07
2392956041,-0.85,-0.51,-0.06
2392958004,-0.85,-0.51,-0.06
2392960008,-0.85,-0.51,-0.06
2392961976,-0.85,-0.51,-0.06
2392963981,-0.85,-0.51,-0.06
2392965975,-0.86,-0.53,-0.06
2392967980,-0.86,-0.53,-0.06
2392969979,-0.86,-0.53,-0.06
2392971980,-0.86,-0.53,-0.06
2392973980,-0.86,-0.53,-0.06
2392976091,-0.86,-0.54,-0.04
2392977987,-0.86,-0.54,-0.04
2392979977,-0.86,-0.54,-0.04
2392981976,-0.86,-0.54,-0.04
2392984009,-0.86,-0.54,-0.04
2392986008,-0.85,-0.55,-0.04
2392988003,-0.85,-0.55,-0.04
2392990042,-0.85,-0.55,-0.04
2392992051,-0.85,-0.55,-0.04
2392994030,-0.85,-0.55,-0.04
2392996006,-0.85,-0.55,-0.04
2392998006,-0.85,-0.55,-0.04
2393000012,-0.85,-0.55,-0.04
2393002107,-0.85,-0.55,-0.04
2393003977,-0.85,-0.55,-0.04
2393005979,-0.85,-0.55,-0.04
2393007977,-0.86,-0.54,-0.04
2393009977,-0.86,-0.54,-0.04
2393011976,-0.86,-0.54,-0.04
2393013980,-0.86,-0.54,-0.04
2393015980,-0.86,-0.54,-0.04
2393017978,-0.86,-0.55,-0.06
2393020009,-0.86,-0.55,-0.06
2393022025,-0.86,-0.55,-0.06
2393024018,-0.86,-0.55,-0.06
2393026104,-0.86,-0.55,-0.06
2393028008,-0.85,-0.54,-0.07
2393030008,-0.85,-0.54,-0.07
2393032009,-0.85,-0.54,-0.07
2393034009,-0.85,-0.54,-0.07
2393036032,-0.85,-0.54,-0.07
2393038058,-0.85,-0.57,-0.09
2393040018,-0.85,-0.57,-0.09
2393041976,-0.85,-0.57,-0.09
2393043977,-0.85,-0.57,-0.09
2393045973,-0.85,-0.57,-0.09
2393047973,-0.85,-0.55,-0.10
2393049984,-0.85,-0.55,-0.10
2393052099,-0.85,-0.55,-0.10
2393053978,-0.85,-0.55,-0.10
2393056014,-0.85,-0.55,-0.10
2393057979,-0.85,-0.55,-0.11
2393059976,-0.85,-0.55,-0.11
2393061980,-0.85,-0.55,-0.11
2393064017,-0.85,-0.55,-0.11
2393066001,-0.85,-0.55,-0.11
2393068006,-0.86,-0.54,-0.14
2393070005,-0.86,-0.54,-0.14
2393072004,-0.86,-0.54,-0.14
2393074001,-0.86,-0.54,-0.14
2393076114,-0.86,-0.54,-0.14
2393077992,-0.86,-0.52,-0.13
2393079980,-0.86,-0.52,-0.13
2393081980,-0.86,-0.52,-0.13
2393084137,-0.86,-0.52,-0.13
2393086019,-0.86,-0.52,-0.13
2393087976,-0.84,-0.52,-0.15
2393089977,-0.84,-0.52,-0.15
2393091981,-0.84,-0.52,-0.15
2393093976,-0.84,-0.52,-0.15
2393095992,-0.84,-0.52,-0.15
2393097977,-0.84,-0.53,-0.15
2393099979,-0.84,-0.53,-0.15
2393102104,-0.84,-0.53,-0.15
2393104021,-0.84,-0.53,-0.15
2393106003,-0.84,-0.53,-0.15
2393108001,-0.87,-0.55,-0.19
2393110000,-0.87,-0.55,-0.19
2393112007,-0.87,-0.55,-0.19
2393114009,-0.87,-0.55,-0.19
2393116003,-0.87,-0.55,-0.19
2393117979,-0.89,-0.57,-0.20
2393119981,-0.89,-0.57,-0.20
2393121976,-0.89,-0.57,-0.20
2393123976,-0.89,-0.57,-0.20
2393126084,-0.89,-0.57,-0.20
2393127991,-0.90,-0.57,-0.20
2393129979,-0.90,-0.57,-0.20
2393131978,-0.90,-0.57,-0.20
2393133979,-0.90,-0.57,-0.20
2393135980,-0.90,-0.57,-0.20
2393137979,-0.86,-0.53,-0.21
2393139979,-0.86,-0.53,-0.21
2393141979,-0.86,-0.53,-0.21
2393144009,-0.86,-0.53,-0.21
2393146010,-0.86,-0.53,-0.21
2393148007,-0.92,-0.55,-0.18
2393150004,-0.92,-0.55,-0.18
2393152104,-0.92,-0.55,-0.18
2393154005,-0.92,-0.55,-0.18
2393156032,-0.92,-0.55,-0.18
2393157980,-0.91,-0.54,-0.30
2393159977,-0.91,-0.54,-0.30
2393161975,-0.91,-0.54,-0.30
2393163974,-0.91,-0.54,-0.30
2393165981,-0.91,-0.54,-0.30
2393167981,-0.96,-0.54,-0.24
2393169979,-0.96,-0.54,-0.24
2393171979,-0.96,-0.54,-0.24
2393173977,-0.96,-0.54,-0.24
2393176083,-0.96,-0.54,-0.24
2393177986,-0.96,-0.54,-0.24
2393179984,-0.98,-0.52,-0.20
2393181976,-0.98,-0.52,-0.20
2393184006,-0.98,-0.52,-0.20
2393186004,-0.98,-0.52,-0.20
2393188005,-0.98,-0.52,-0.20
2393190090,-1.00,-0.59,-0.28
2393192033,-1.00,-0.59,-0.28
2393194008,-1.00,-0.59,-0.28
2393196049,-1.00,-0.59,-0.28
2393198007,-1.00,-0.59,-0.28
2393200007,-1.00,-0.57,-0.24
2393202104,-1.00,-0.57,-0.24
2393203979,-1.00,-0.57,-0.24
2393205978,-1.00,-0.57,-0.24
2393207979,-1.00,-0.57,-0.24
2393209974,-1.00,-0.53,-0.04
2393211975,-1.00,-0.53,-0.04
2393213974,-1.00,-0.53,-0.04
2393215980,-1.00,-0.53,-0.04
2393217979,-1.00,-0.53,-0.04
2393219979,-0.99,-0.73,-0.46
2393221976,-0.99,-0.73,-0.46
2393224025,-0.99,-0.73,-0.46
2393226110,-0.99,-0.73,-0.46
2393228051,-0.99,-0.73,-0.46
2393230004,-1.03,-0.43,0.20
2393232005,-1.03,-0.43,0.20
2393234004,-1.03,-0.43,0.20
2393236005,-1.03,-0.43,0.20
2393238006,-1.03,-0.43,0.20
2393240137,-0.97,-0.72,-0.33
2393242013,-0.97,-0.72,-0.33
2393243979,-0.97,-0.72,-0.33
2393245981,-0.97,-0.72,-0.33
2393247979,-0.97,-0.72,-0.33
2393249990,-1.01,-0.54,-0.02
2393252092,-1.01,-0.54,-0.02
2393253981,-1.01,-0.54,-0.02
2393256009,-1.01,-0.54,-0.02
2393257976,-1.01,-0.54,-0.02
2393259976,-0.98,-0.69,-0.20
2393261974,-0.98,-0.69,-0.20
2393264019,-0.98,-0.69,-0.20
2393266002,-0.98,-0.69,-0.20
2393268002,-0.98,-0.69,-0.20
2393270004,-1.00,-0.55,0.09
2393272006,-1.00,-0.55,0.09
2393274004,-1.00,-0.55,0.09
2393276109,-1.00,-0.55,0.09
2393277986,-1.00,-0.55,0.09
2393279981,-0.99,-0.65,-0.08
2393281981,-0.99,-0.65,-0.08
2393283980,-0.99,-0.65,-0.08
2393286036,-0.99,-0.65,-0.08
2393288043,-0.99,-0.65,-0.08
2393289979,-1.08,-0.64,0.06
2393291974,-1.08,-0.64,0.06
2393293978,-1.08,-0.64,0.06
2393295988,-1.08,-0.64,0.06
2393297975,-1.08,-0.64,0.06
2393299976,-0.99,-0.64,0.02
2393302101,-0.99,-0.64,0.02
2393304021,-0.99,-0.64,0.02
2393306004,-0.99,-0.64,0.02
2393308006,-0.99,-0.64,0.02
2393310001,-1.02,-0.62,0.17
2393312006,-1.02,-0.62,0.17
2393314004,-1.02,-0.62,0.17
2393316003,-1.02,-0.62,0.17
2393317976,-1.02,-0.62,0.17
2393319979,-0.94,-0.63,-0.03
2393321979,-0.94,-0.63,-0.03
2393323976,-0.94,-0.63,-0.03
2393326076,-0.94,-0.63,-0.03
2393327988,-0.94,-0.63,-0.03
2393330024,-0.98,-0.67,0.08
2393332033,-0.98,-0.67,0.08
2393334029,-0.98,-0.67,0.08
2393335974,-0.98,-0.67,0.08
2393337976,-0.98,-0.67,0.08
2393339976,-0.85,-0.56,-0.01
2393341975,-0.85,-0.56,-0.01
2393344016,-0.85,-0.56,-0.01
2393346003,-0.85,-0.56,-0.01
2393348003,-0.85,-0.56,-0.01
2393350005,-0.92,-0.55,0.14
2393352119,-0.92,-0.55,0.14
2393354003,-0.92,-0.55,0.14
2393356033,-0.92,-0.55,0.14
2393357977,-0.92,-0.55,0.14
2393359979,-0.85,-0.50,-0.03
2393361977,-0.85,-0.50,-0.03
2393363973,-0.85,-0.50,-0.03
2393365975,-0.85,-0.50,-0.03
2393367977,-0.85,-0.50,-0.03
2393369977,-0.85,-0.50,-0.03
2393371978,-0.93,-0.46,0.12
2393373980,-0.93,-0.46,0.12
2393376093,-0.93,-0.46,0.12
2393377987,-0.93,-0.46,0.12
2393379998,-0.93,-0.46,0.12
2393382065,-0.94,-0.41,0.14
2393384043,-0.94,-0.41,0.14
2393386010,-0.94,-0.41,0.14
2393388006,-0.94,-0.41,0.14
2393390005,-0.94,-0.41,0.14
2393392004,-1.01,-0.44,0.12
2393394008,-1.01,-0.44,0.12
2393396006,-1.01,-0.44,0.12
2393398000,-1.01,-0.44,0.12
2393399982,-1.01,-0.44,0.12
2393402107,-1.05,-0.44,0.07
2393403975,-1.05,-0.44,0.07
2393405980,-1.05,-0.44,0.07
2393407976,-1.05,-0.44,0.07
2393409979,-1.05,-0.44,0.07
2393411975,-0.99,-0.42,0.15
2393413976,-0.99,-0.42,0.15
2393415979,-0.99,-0.42,0.15
2393417976,-0.99,-0.42,0.15
2393419977,-0.99,-0.42,0.15
2393421976,-0.96,-0.43,0.12
2393424007,-0.96,-0.43,0.12
2393426095,-0.96,-0.43,0.12
2393428009,-0.96,-0.43,0.12
2393430045,-0.96,-0.43,0.12
2393432044,-0.90,-0.46,0.08
2393434005,-0.90,-0.46,0.08
2393436003,-0.90,-0.46,0.08
2393438008,-0.90,-0.46,0.08
2393439979,-0.90,-0.46,0.08
2393441985,-0.88,-0.51,0.06
2393443980,-0.88,-0.51,0.06
2393445979,-0.88,-0.51,0.06
2393447981,-0.88,-0.51,0.06
2393449979,-0.88,-0.51,0.06
2393452090,-0.85,-0.50,0.07
2393453978,-0.85,-0.50,0.07
2393456019,-0.85,-0.50,0.07
2393457976,-0.85,-0.50,0.07
2393459975,-0.85,-0.50,0.07
2393461975,-0.86,-0.51,0.08
2393464015,-0.86,-0.51,0.08
2393466004,-0.86,-0.51,0.08
2393468001,-0.86,-0.51,0.08
2393470028,-0.86,-0.51,0.08
2393472040,-0.92,-0.52,0.08
2393474048,-0.92,-0.52,0.08
2393476117,-0.92,-0.52,0.08
2393478012,-0.92,-0.52,0.08
2393480010,-0.92,-0.52,0.08
2393481979,-0.98,-0.49,0.11
2393483979,-0.98,-0.49,0.11
2393485977,-0.98,-0.49,0.11
2393487979,-0.98,-0.49,0.11
2393489978,-0.98,-0.49,0.11
2393491979,-0.98,-0.48,0.14
2393493980,-0.98,-0.48,0.14
2393495990,-0.98,-0.48,0.14
2393497981,-0.98,-0.48,0.14
2393499992,-0.98,-0.48,0.14
2393502093,-0.98,-0.50,0.12
2393504012,-0.98,-0.50,0.12
2393506008,-0.98,-0.50,0.12
2393508008,-0.98,-0.50,0.12
2393510006,-0.98,-0.50,0.12
2393512005,-0.97,-0.50,0.10
2393514001,-0.97,-0.50,0.10
2393516000,-0.97,-0.50,0.10
2393517980,-0.97,-0.50,0.10
2393519979,-0.97,-0.50,0.10
2393521982,-0.93,-0.52,0.11
2393523979,-0.93,-0.52,0.11
2393526083,-0.93,-0.52,0.11
2393527993,-0.93,-0.52,0.11
2393529978,-0.93,-0.52,0.11
2393531979,-0.88,-0.53,0.11
2393533979,-0.88,-0.53,0.11
2393535981,-0.88,-0.53,0.11
2393537978,-0.88,-0.53,0.11
2393539980,-0.88,-0.53,0.11
2393541978,-0.85,-0.53,0.11
2393544008,-0.85,-0.53,0.11
2393546002,-0.85,-0.53,0.11
2393548007,-0.85,-0.53,0.11
2393550004,-0.85,-0.53,0.11
2393552106,-0.85,-0.52,0.09
2393554004,-0.85,-0.52,0.09
