timestamp,accX,accY,accZ
2353295054,-0.86,-0.51,-0.08
2353296998,-0.86,-0.51,-0.08
2353298995,-0.86,-0.51,-0.08
2353301114,-0.86,-0.51,-0.08
2353302994,-0.85,-0.52,-0.08
2353304987,-0.85,-0.52,-0.08
2353306986,-0.85,-0.52,-0.08
2353308990,-0.85,-0.52,-0.08
2353310992,-0.85,-0.52,-0.08
2353312992,-0.85,-0.52,-0.08
2353314991,-0.85,-0.52,-0.07
2353316987,-0.85,-0.52,-0.07
2353318991,-0.85,-0.52,-0.07
2353320989,-0.85,-0.52,-0.07
2353322990,-0.85,-0.52,-0.07
2353324991,-0.85,-0.54,-0.07
2353327057,-0.85,-0.54,-0.07
2353328991,-0.85,-0.54,-0.07
2353330986,-0.85,-0.54,-0.07
2353332996,-0.85,-0.54,-0.07
2353335080,-0.85,-0.55,-0.07
2353337029,-0.85,-0.55,-0.07
2353339015,-0.85,-0.55,-0.07
2353341011,-0.85,-0.55,-0.07
2353343011,-0.85,-0.55,-0.07
2353345014,-0.84,-0.55,-0.07
2353347008,-0.84,-0.55,-0.07
2353349009,-0.84,-0.55,-0.07
2353351101,-0.84,-0.55,-0.07
2353352995,-0.84,-0.55,-0.07
2353354987,-0.84,-0.55,-0.06
2353356986,-0.84,-0.55,-0.06
2353358987,-0.84,-0.55,-0.06
2353360991,-0.84,-0.55,-0.06
2353362987,-0.84,-0.55,-0.06
2353364986,-0.84,-0.55,-0.06
2353366991,-0.84,-0.55,-0.06
2353368990,-0.84,-0.55,-0.06
2353370987,-0.84,-0.55,-0.06
2353372992,-0.84,-0.55,-0.06
2353375016,-0.84,-0.54,-0.07
2353377111,-0.84,-0.54,-0.07
2353379012,-0.84,-0.54,-0.07
2353381011,-0.84,-0.54,-0.07
2353383010,-0.84,-0.54,-0.07
2353385014,-0.84,-0.54,-0.05
2353387008,-0.84,-0.54,-0.05
2353388991,-0.84,-0.54,-0.05
2353390989,-0.84,-0.54,-0.05
2353393036,-0.84,-0.54,-0.05
2353395036,-0.85,-0.54,-0.07
2353396987,-0.85,-0.54,-0.07
2353398995,-0.85,-0.54,-0.07
2353401114,-0.85,-0.54,-0.07
2353402997,-0.85,-0.54,-0.07
2353404987,-0.84,-0.53,-0.07
2353406986,-0.84,-0.53,-0.07
2353408990,-0.84,-0.53,-0.07
2353410989,-0.84,-0.53,-0.07
2353412985,-0.84,-0.53,-0.07
2353415022,-0.85,-0.53,-0.07
2353417008,-0.85,-0.53,-0.07
2353419011,-0.85,-0.53,-0.07
2353421031,-0.85,-0.53,-0.07
2353423046,-0.85,-0.53,-0.07
2353425068,-0.85,-0.52,-0.06
2353427161,-0.85,-0.52,-0.06
2353429026,-0.85,-0.52,-0.06
2353431014,-0.85,-0.52,-0.06
2353433015,-0.85,-0.52,-0.06
2353434990,-0.85,-0.52,-0.06
2353436992,-0.85,-0.52,-0.06
2353438991,-0.85,-0.52,-0.06
2353440990,-0.85,-0.52,-0.06
2353442986,-0.85,-0.52,-0.06
2353444986,-0.85,-0.52,-0.06
2353446992,-0.85,-0.52,-0.06
2353448987,-0.85,-0.52,-0.06
2353451089,-0.85,-0.52,-0.06
2353452998,-0.85,-0.52,-0.06
2353455026,-0.84,-0.52,-0.06
2353457021,-0.84,-0.52,-0.06
2353459013,-0.84,-0.52,-0.06
2353461016,-0.84,-0.52,-0.06
2353463016,-0.84,-0.52,-0.06
2353465015,-0.85,-0.52,-0.07
2353467011,-0.85,-0.52,-0.07
2353468991,-0.85,-0.52,-0.07
2353470993,-0.85,-0.52,-0.07
2353472991,-0.85,-0.52,-0.07
2353474990,-0.85,-0.52,-0.07
2353477085,-0.85,-0.52,-0.07
2353478990,-0.85,-0.52,-0.07
2353480992,-0.85,-0.52,-0.07
2353482990,-0.85,-0.52,-0.07
2353484990,-0.85,-0.52,-0.07
2353486992,-0.85,-0.52,-0.07
2353488991,-0.85,-0.52,-0.07
2353490990,-0.85,-0.52,-0.07
2353492995,-0.85,-0.52,-0.07
2353495089,-0.85,-0.53,-0.08
2353497063,-0.85,-0.53,-0.08
2353499027,-0.85,-0.53,-0.08
2353501119,-0.85,-0.53,-0.08
2353503017,-0.85,-0.53,-0.08
2353505018,-0.85,-0.53,-0.08
2353507020,-0.85,-0.52,-0.07
2353509020,-0.85,-0.52,-0.07
2353511018,-0.85,-0.52,-0.07
2353513015,-0.85,-0.52,-0.07
2353514990,-0.85,-0.52,-0.07
2353516991,-0.84,-0.54,-0.07
2353518992,-0.84,-0.54,-0.07
2353520991,-0.84,-0.54,-0.07
2353522987,-0.84,-0.54,-0.07
2353524991,-0.84,-0.54,-0.07
2353527085,-0.84,-0.54,-0.07
2353528992,-0.84,-0.54,-0.07
2353530991,-0.84,-0.54,-0.07
2353532990,-0.84,-0.54,-0.07
2353535026,-0.84,-0.54,-0.07
2353537019,-0.85,-0.54,-0.07
2353539013,-0.85,-0.54,-0.07
2353541018,-0.85,-0.54,-0.07
2353543021,-0.85,-0.54,-0.07
2353545018,-0.85,-0.54,-0.07
2353547014,-0.84,-0.54,-0.07
2353548990,-0.84,-0.54,-0.07
2353551093,-0.84,-0.54,-0.07
2353552999,-0.84,-0.54,-0.07
2353554992,-0.84,-0.54,-0.07
2353556989,-0.85,-0.54,-0.07
2353558991,-0.85,-0.54,-0.07
2353560992,-0.85,-0.54,-0.07
2353562991,-0.85,-0.54,-0.07
2353564990,-0.85,-0.54,-0.07
2353566992,-0.84,-0.54,-0.07
2353568989,-0.84,-0.54,-0.07
2353570986,-0.84,-0.54,-0.07
2353572991,-0.84,-0.54,-0.07
2353575020,-0.84,-0.54,-0.07
2353577113,-0.84,-0.54,-0.07
2353579015,-0.84,-0.54,-0.07
2353581033,-0.84,-0.54,-0.07
2353583044,-0.84,-0.54,-0.07
2353585018,-0.84,-0.54,-0.07
2353587019,-0.84,-0.54,-0.08
2353589013,-0.84,-0.54,-0.08
2353590987,-0.84,-0.54,-0.08
2353592994,-0.84,-0.54,-0.08
2353595017,-0.84,-0.54,-0.08
2353596995,-0.84,-0.53,-0.08
2353598990,-0.84,-0.53,-0.08
2353601115,-0.84,-0.53,-0.08
2353602997,-0.84,-0.53,-0.08
2353604991,-0.84,-0.53,-0.08
2353606990,-0.85,-0.53,-0.07
2353608987,-0.85,-0.53,-0.07
2353610989,-0.85,-0.53,-0.07
2353612987,-0.85,-0.53,-0.07
2353615032,-0.85,-0.53,-0.07
2353617018,-0.85,-0.53,-0.07
2353619014,-0.85,-0.53,-0.07
2353621016,-0.85,-0.53,-0.07
2353623049,-0.85,-0.53,-0.07
2353625012,-0.85,-0.53,-0.07
2353627084,-0.84,-0.53,-0.07
2353628966,-0.84,-0.53,-0.07
2353630966,-0.84,-0.53,-0.07
2353632964,-0.84,-0.53,-0.07
2353634966,-0.84,-0.53,-0.07
2353636966,-0.86,-0.52,-0.08
2353638968,-0.86,-0.52,-0.08
2353640968,-0.86,-0.52,-0.08
2353643069,-0.86,-0.52,-0.08
2353645059,-0.86,-0.52,-0.08
2353647022,-0.84,-0.52,-0.07
2353649010,-0.84,-0.52,-0.07
2353651107,-0.84,-0.52,-0.07
2353652998,-0.84,-0.52,-0.07
2353655024,-0.84,-0.52,-0.07
2353657018,-0.84,-0.53,-0.07
2353659017,-0.84,-0.53,-0.07
2353661012,-0.84,-0.53,-0.07
2353663020,-0.84,-0.53,-0.07
2353665019,-0.84,-0.53,-0.07
2353667007,-0.85,-0.53,-0.07
2353668991,-0.85,-0.53,-0.07
2353670991,-0.85,-0.53,-0.07
2353672992,-0.85,-0.53,-0.07
2353674992,-0.85,-0.53,-0.07
2353677084,-0.85,-0.53,-0.07
2353678992,-0.85,-0.53,-0.07
2353680990,-0.85,-0.53,-0.07
2353682987,-0.85,-0.53,-0.07
2353684991,-0.85,-0.53,-0.07
2353686992,-0.85,-0.53,-0.07
2353688992,-0.85,-0.53,-0.07
2353690987,-0.85,-0.53,-0.07
2353692994,-0.85,-0.53,-0.07
2353695059,-0.85,-0.53,-0.07
2353697021,-0.85,-0.53,-0.07
2353699028,-0.84,-0.54,-0.07
2353701120,-0.84,-0.54,-0.07
2353703019,-0.84,-0.54,-0.07
2353705014,-0.84,-0.54,-0.07
2353707013,-0.84,-0.54,-0.07
2353709019,-0.84,-0.54,-0.07
2353710987,-0.84,-0.54,-0.07
2353712986,-0.84,-0.54,-0.07
2353714989,-0.84,-0.54,-0.07
2353716992,-0.84,-0.54,-0.07
2353718992,-0.84,-0.54,-0.06
2353720992,-0.84,-0.54,-0.06
2353722992,-0.84,-0.54,-0.06
2353724991,-0.84,-0.54,-0.06
2353727085,-0.84,-0.54,-0.06
2353728991,-0.84,-0.55,-0.07
2353730991,-0.84,-0.55,-0.07
2353732990,-0.84,-0.55,-0.07
2353735015,-0.84,-0.55,-0.07
2353737027,-0.84,-0.55,-0.07
2353739047,-0.84,-0.54,-0.08
2353741053,-0.84,-0.54,-0.08
2353743016,-0.84,-0.54,-0.08
2353745018,-0.84,-0.54,-0.08
2353747013,-0.84,-0.54,-0.08
2353749021,-0.84,-0.54,-0.07
2353751125,-0.84,-0.54,-0.07
2353752994,-0.84,-0.54,-0.07
2353754991,-0.84,-0.54,-0.07
2353756990,-0.84,-0.54,-0.07
2353758992,-0.85,-0.54,-0.07
2353760991,-0.85,-0.54,-0.07
2353762991,-0.85,-0.54,-0.07
2353764990,-0.85,-0.54,-0.07
2353766987,-0.85,-0.54,-0.07
2353768991,-0.85,-0.53,-0.07
2353770986,-0.85,-0.53,-0.07
2353772992,-0.85,-0.53,-0.07
2353775020,-0.85,-0.53,-0.07
2353777112,-0.85,-0.53,-0.07
2353779017,-0.84,-0.53,-0.07
2353781015,-0.84,-0.53,-0.07
2353783016,-0.84,-0.53,-0.07
2353785015,-0.84,-0.53,-0.07
2353787010,-0.84,-0.53,-0.07
2353788987,-0.84,-0.53,-0.08
2353791001,-0.84,-0.53,-0.08
2353792994,-0.84,-0.53,-0.08
2353795021,-0.84,-0.53,-0.08
2353796992,-0.84,-0.53,-0.08
2353798989,-0.85,-0.52,-0.08
2353801108,-0.85,-0.52,-0.08
2353803041,-0.85,-0.52,-0.08
2353805073,-0.85,-0.52,-0.08
2353807023,-0.85,-0.52,-0.08
2353808984,-0.85,-0.52,-0.08
2353810985,-0.85,-0.52,-0.08
2353812987,-0.85,-0.52,-0.08
2353815033,-0.85,-0.52,-0.08
2353817010,-0.85,-0.52,-0.08
2353819017,-0.85,-0.52,-0.08
2353821016,-0.85,-0.52,-0.08
2353823017,-0.85,-0.52,-0.08
2353825012,-0.85,-0.52,-0.08
2353827132,-0.85,-0.52,-0.08
2353828992,-0.85,-0.52,-0.07
2353830986,-0.85,-0.52,-0.07
2353832991,-0.85,-0.52,-0.07
2353834992,-0.85,-0.52,-0.07
2353836990,-0.85,-0.52,-0.07
2353838991,-0.85,-0.53,-0.07
2353840990,-0.85,-0.53,-0.07
2353842986,-0.85,-0.53,-0.07
2353844990,-0.85,-0.53,-0.07
2353846991,-0.85,-0.53,-0.07
2353848990,-0.84,-0.53,-0.07
2353851065,-0.84,-0.53,-0.07
2353852998,-0.84,-0.53,-0.07
2353855022,-0.84,-0.53,-0.07
2353857021,-0.84,-0.53,-0.07
2353859011,-0.85,-0.54,-0.07
2353861012,-0.85,-0.54,-0.07
2353863014,-0.85,-0.54,-0.07
2353865014,-0.85,-0.54,-0.07
2353867009,-0.85,-0.54,-0.07
2353868989,-0.85,-0.54,-0.07
2353870987,-0.85,-0.53,-0.07
2353872986,-0.85,-0.53,-0.07
2353874991,-0.85,-0.53,-0.07
2353877087,-0.85,-0.53,-0.07
2353878990,-0.85,-0.53,-0.07
2353880990,-0.84,-0.54,-0.07
2353882991,-0.84,-0.54,-0.07
2353884987,-0.84,-0.54,-0.07
2353886992,-0.84,-0.54,-0.07
2353888991,-0.84,-0.54,-0.07
2353890989,-0.85,-0.54,-0.06
2353892995,-0.85,-0.54,-0.06
2353895058,-0.85,-0.54,-0.06
2353897012,-0.85,-0.54,-0.06
2353899016,-0.85,-0.54,-0.06
2353901119,-0.84,-0.54,-0.07
2353903049,-0.84,-0.54,-0.07
2353905054,-0.84,-0.54,-0.07
2353907051,-0.84,-0.54,-0.07
2353909023,-0.84,-0.54,-0.07
2353911019,-0.84,-0.55,-0.06
2353913021,-0.84,-0.55,-0.06
2353914990,-0.84,-0.55,-0.06
2353916990,-0.84,-0.55,-0.06
2353918992,-0.84,-0.55,-0.06
2353920991,-0.84,-0.54,-0.07
2353922988,-0.84,-0.54,-0.07
2353924993,-0.84,-0.54,-0.07
2353927108,-0.84,-0.54,-0.07
2353928992,-0.84,-0.54,-0.07
2353930990,-0.84,-0.54,-0.05
2353932991,-0.84,-0.54,-0.05
2353935023,-0.84,-0.54,-0.05
2353937020,-0.84,-0.54,-0.05
2353939018,-0.84,-0.54,-0.05
2353941020,-0.85,-0.54,-0.07
2353943013,-0.85,-0.54,-0.07
2353945013,-0.85,-0.54,-0.07
2353947010,-0.85,-0.54,-0.07
2353948987,-0.85,-0.54,-0.07
2353951088,-0.85,-0.53,-0.06
2353952995,-0.85,-0.53,-0.06
2353954990,-0.85,-0.53,-0.06
2353956989,-0.85,-0.53,-0.06
2353958991,-0.85,-0.53,-0.06
2353960991,-0.85,-0.53,-0.05
2353962992,-0.85,-0.53,-0.05
2353964990,-0.85,-0.53,-0.05
2353966986,-0.85,-0.53,-0.05
2353968987,-0.85,-0.53,-0.05
2353970986,-0.85,-0.52,-0.06
2353972989,-0.85,-0.52,-0.06
2353975021,-0.85,-0.52,-0.06
2353977114,-0.85,-0.52,-0.06
2353979022,-0.85,-0.52,-0.06
2353981019,-0.85,-0.52,-0.05
2353983021,-0.85,-0.52,-0.05
2353985018,-0.85,-0.52,-0.05
2353987016,-0.85,-0.52,-0.05
2353988992,-0.85,-0.52,-0.05
2353990991,-0.85,-0.52,-0.06
2353992995,-0.85,-0.52,-0.06
2353995023,-0.85,-0.52,-0.06
2353996993,-0.85,-0.52,-0.06
2353998999,-0.85,-0.52,-0.06
2354001110,-0.84,-0.52,-0.06
2354002997,-0.84,-0.52,-0.06
2354004991,-0.84,-0.52,-0.06
2354006987,-0.84,-0.52,-0.06
2354008991,-0.84,-0.52,-0.06
2354010990,-0.86,-0.52,-0.06
2354012984,-0.86,-0.52,-0.06
2354015139,-0.86,-0.52,-0.06
2354017059,-0.86,-0.52,-0.06
2354019034,-0.86,-0.52,-0.06
2354021019,-0.86,-0.52,-0.05
2354023014,-0.86,-0.52,-0.05
2354025013,-0.86,-0.52,-0.05
2354027127,-0.86,-0.52,-0.05
2354029022,-0.86,-0.52,-0.05
2354031020,-0.85,-0.52,-0.06
2354032987,-0.85,-0.52,-0.06
2354034991,-0.85,-0.52,-0.06
2354036991,-0.85,-0.52,-0.06
2354038979,-0.85,-0.52,-0.06
2354040979,-0.85,-0.53,-0.07
2354042979,-0.85,-0.53,-0.07
2354044976,-0.85,-0.53,-0.07
2354046979,-0.85,-0.53,-0.07
2354048978,-0.85,-0.53,-0.07
2354051078,-0.84,-0.53,-0.07
2354052987,-0.84,-0.53,-0.07
2354055017,-0.84,-0.53,-0.07
2354057003,-0.84,-0.53,-0.07
2354059006,-0.84,-0.53,-0.07
2354061007,-0.84,-0.53,-0.07
2354063009,-0.85,-0.54,-0.07
2354065008,-0.85,-0.54,-0.07
2354067009,-0.85,-0.54,-0.07
2354068981,-0.85,-0.54,-0.07
2354070975,-0.85,-0.54,-0.07
2354072978,-0.84,-0.54,-0.07
2354074979,-0.84,-0.54,-0.07
2354077078,-0.84,-0.54,-0.07
2354078975,-0.84,-0.54,-0.07
2354080974,-0.84,-0.54,-0.07
2354082977,-0.84,-0.55,-0.09
2354084977,-0.84,-0.55,-0.09
2354086976,-0.84,-0.55,-0.09
2354088976,-0.84,-0.55,-0.09
2354090980,-0.84,-0.55,-0.09
2354092979,-0.84,-0.54,-0.07
2354095059,-0.84,-0.54,-0.07
2354097004,-0.84,-0.54,-0.07
2354099007,-0.84,-0.54,-0.07
2354101111,-0.84,-0.54,-0.07
2354103041,-0.84,-0.55,-0.08
2354105011,-0.84,-0.55,-0.08
2354107050,-0.84,-0.55,-0.08
2354109010,-0.84,-0.55,-0.08
2354111048,-0.84,-0.55,-0.08
2354113008,-0.83,-0.55,-0.09
2354115014,-0.83,-0.55,-0.09
2354116981,-0.83,-0.55,-0.09
2354118981,-0.83,-0.55,-0.09
2354120980,-0.83,-0.55,-0.09
2354122976,-0.84,-0.54,-0.09
2354124977,-0.84,-0.54,-0.09
2354127004,-0.84,-0.54,-0.09
2354128981,-0.84,-0.54,-0.09
2354130974,-0.84,-0.54,-0.09
2354132975,-0.84,-0.54,-0.09
2354135009,-0.84,-0.54,-0.09
2354137010,-0.84,-0.54,-0.09
2354139010,-0.84,-0.54,-0.09
2354141010,-0.84,-0.54,-0.09
2354143010,-0.84,-0.55,-0.09
2354145009,-0.84,-0.55,-0.09
2354147025,-0.84,-0.55,-0.09
2354149040,-0.84,-0.55,-0.09
2354151020,-0.84,-0.55,-0.09
2354152978,-0.85,-0.54,-0.09
2354154973,-0.85,-0.54,-0.09
2354156974,-0.85,-0.54,-0.09
2354158974,-0.85,-0.54,-0.09
2354160976,-0.85,-0.54,-0.09
2354162976,-0.84,-0.54,-0.09
2354164974,-0.84,-0.54,-0.09
2354166980,-0.84,-0.54,-0.09
2354168978,-0.84,-0.54,-0.09
2354170975,-0.84,-0.54,-0.09
2354172975,-0.85,-0.54,-0.08
2354175022,-0.85,-0.54,-0.08
2354177031,-0.85,-0.54,-0.08
2354179004,-0.85,-0.54,-0.08
2354181009,-0.85,-0.54,-0.08
2354183002,-0.84,-0.54,-0.09
2354185003,-0.84,-0.54,-0.09
2354187010,-0.84,-0.54,-0.09
2354188980,-0.84,-0.54,-0.09
2354190979,-0.84,-0.54,-0.09
2354192983,-0.85,-0.53,-0.08
2354195022,-0.85,-0.53,-0.08
2354196978,-0.85,-0.53,-0.08
2354198978,-0.85,-0.53,-0.08
2354201012,-0.85,-0.53,-0.08
2354202986,-0.84,-0.53,-0.08
2354204975,-0.84,-0.53,-0.08
2354206981,-0.84,-0.53,-0.08
2354208979,-0.84,-0.53,-0.08
2354210976,-0.84,-0.53,-0.08
2354213032,-0.84,-0.54,-0.08
2354215108,-0.84,-0.54,-0.08
2354217046,-0.84,-0.54,-0.08
2354219006,-0.84,-0.54,-0.08
2354221011,-0.84,-0.54,-0.08
2354223009,-0.85,-0.52,-0.07
2354225010,-0.85,-0.52,-0.07
2354227085,-0.85,-0.52,-0.07
2354229035,-0.85,-0.52,-0.07
2354231012,-0.85,-0.52,-0.07
2354233003,-0.85,-0.53,-0.08
2354234976,-0.85,-0.53,-0.08
2354236977,-0.85,-0.53,-0.08
2354238977,-0.85,-0.53,-0.08
2354240980,-0.85,-0.53,-0.08
2354242979,-0.85,-0.53,-0.08
2354244976,-0.84,-0.52,-0.05
2354246978,-0.84,-0.52,-0.05
2354248993,-0.84,-0.52,-0.05
2354251012,-0.84,-0.52,-0.05
2354252981,-0.84,-0.52,-0.05
2354254981,-0.84,-0.53,-0.06
2354257013,-0.84,-0.53,-0.06
2354259009,-0.84,-0.53,-0.06
2354261008,-0.84,-0.53,-0.06
2354263004,-0.84,-0.53,-0.06
2354265010,-0.84,-0.53,-0.06
2354267006,-0.84,-0.53,-0.06
2354268993,-0.84,-0.53,-0.06
2354270980,-0.84,-0.53,-0.06
2354272991,-0.84,-0.53,-0.06
2354275067,-0.86,-0.54,-0.06
2354277049,-0.86,-0.54,-0.06
2354278976,-0.86,-0.54,-0.06
2354280975,-0.86,-0.54,-0.06
2354282977,-0.86,-0.54,-0.06
2354284976,-0.84,-0.52,-0.05
2354286975,-0.84,-0.52,-0.05
2354288973,-0.84,-0.52,-0.05
2354290974,-0.84,-0.52,-0.05
2354292980,-0.84,-0.52,-0.05
2354295019,-0.86,-0.54,-0.06
2354297024,-0.86,-0.54,-0.06
2354299006,-0.86,-0.54,-0.06
2354301023,-0.86,-0.54,-0.06
2354303009,-0.86,-0.54,-0.06
2354305010,-0.84,-0.53,-0.06
2354307005,-0.84,-0.53,-0.06
2354309008,-0.84,-0.53,-0.06
2354310980,-0.84,-0.53,-0.06
2354312976,-0.84,-0.53,-0.06
2354314978,-0.85,-0.53,-0.06
2354316984,-0.85,-0.53,-0.06
2354318974,-0.85,-0.53,-0.06
2354320981,-0.85,-0.53,-0.06
2354323062,-0.85,-0.53,-0.06
2354325028,-0.84,-0.54,-0.06
2354326999,-0.84,-0.54,-0.06
2354328976,-0.84,-0.54,-0.06
2354330976,-0.84,-0.54,-0.06
2354332975,-0.84,-0.54,-0.06
2354334976,-0.84,-0.54,-0.06
2354337016,-0.84,-0.54,-0.06
2354339008,-0.84,-0.54,-0.06
2354341008,-0.84,-0.54,-0.06
2354343008,-0.84,-0.54,-0.06
2354345008,-0.84,-0.54,-0.06
2354347009,-0.84,-0.54,-0.06
2354349010,-0.84,-0.54,-0.06
2354351000,-0.84,-0.54,-0.06
2354352982,-0.84,-0.54,-0.06
2354354974,-0.85,-0.53,-0.06
2354356980,-0.85,-0.53,-0.06
2354358980,-0.85,-0.53,-0.06
2354360980,-0.85,-0.53,-0.06
2354362977,-0.85,-0.53,-0.06
2354364980,-0.85,-0.53,-0.07
2354366975,-0.85,-0.53,-0.07
2354368981,-0.85,-0.53,-0.07
2354370981,-0.85,-0.53,-0.07
2354372980,-0.85,-0.53,-0.07
2354374979,-0.85,-0.52,-0.06
2354377033,-0.85,-0.52,-0.06
2354379010,-0.85,-0.52,-0.06
2354381006,-0.85,-0.52,-0.06
2354383010,-0.85,-0.52,-0.06
2354385009,-0.85,-0.52,-0.07
2354387008,-0.85,-0.52,-0.07
2354389008,-0.85,-0.52,-0.07
2354390978,-0.85,-0.52,-0.07
2354392983,-0.85,-0.52,-0.07
2354395019,-0.85,-0.52,-0.07
2354396977,-0.85,-0.52,-0.07
2354398976,-0.85,-0.52,-0.07
2354401013,-0.85,-0.52,-0.07
2354402986,-0.85,-0.52,-0.07
2354404980,-0.85,-0.52,-0.09
2354406980,-0.85,-0.52,-0.09
2354408978,-0.85,-0.52,-0.09
2354411048,-0.85,-0.52,-0.09
2354413028,-0.85,-0.52,-0.09
2354414978,-0.86,-0.52,-0.09
2354417052,-0.86,-0.52,-0.09
2354419015,-0.86,-0.52,-0.09
2354421008,-0.86,-0.52,-0.09
2354423007,-0.86,-0.52,-0.09
2354425008,-0.84,-0.52,-0.06
2354427034,-0.84,-0.52,-0.06
2354429005,-0.84,-0.52,-0.06
2354430976,-0.84,-0.52,-0.06
2354432977,-0.84,-0.52,-0.06
2354434979,-0.84,-0.52,-0.06
2354436977,-0.84,-0.53,-0.08
2354438981,-0.84,-0.53,-0.08
2354440976,-0.84,-0.53,-0.08
2354442979,-0.84,-0.53,-0.08
2354444979,-0.84,-0.53,-0.08
2354446982,-0.84,-0.53,-0.09
2354448981,-0.84,-0.53,-0.09
2354450998,-0.84,-0.53,-0.09
2354452985,-0.84,-0.53,-0.09
2354454979,-0.84,-0.53,-0.09
2354457010,-0.85,-0.53,-0.09
2354459007,-0.85,-0.53,-0.09
2354461066,-0.85,-0.53,-0.09
2354463048,-0.85,-0.53,-0.09
2354465005,-0.85,-0.53,-0.09
2354467008,-0.84,-0.54,-0.07
2354469010,-0.84,-0.54,-0.07
2354471013,-0.84,-0.54,-0.07
2354472979,-0.84,-0.54,-0.07
2354474979,-0.84,-0.54,-0.07
2354477001,-0.84,-0.54,-0.06
2354478978,-0.84,-0.54,-0.06
2354480980,-0.84,-0.54,-0.06
2354482978,-0.84,-0.54,-0.06
2354484977,-0.84,-0.54,-0.06
2354486976,-0.84,-0.54,-0.07
2354488980,-0.84,-0.54,-0.07
2354490977,-0.84,-0.54,-0.07
2354493071,-0.84,-0.54,-0.07
2354495019,-0.84,-0.54,-0.07
2354497019,-0.84,-0.54,-0.06
2354499016,-0.84,-0.54,-0.06
2354501024,-0.84,-0.54,-0.06
2354503005,-0.84,-0.54,-0.06
2354505007,-0.84,-0.54,-0.06
2354507003,-0.84,-0.54,-0.07
2354509046,-0.84,-0.54,-0.07
2354511030,-0.84,-0.54,-0.07
2354512994,-0.84,-0.54,-0.07
2354514980,-0.84,-0.54,-0.07
2354516979,-0.84,-0.55,-0.07
2354518992,-0.84,-0.55,-0.07
2354521018,-0.84,-0.55,-0.07
2354522978,-0.84,-0.55,-0.07
2354524977,-0.84,-0.55,-0.07
2354526997,-0.84,-0.55,-0.07
2354528979,-0.84,-0.55,-0.07
2354530976,-0.84,-0.55,-0.07
2354532979,-0.84,-0.55,-0.07
2354534975,-0.84,-0.55,-0.07
2354537026,-0.84,-0.55,-0.07
2354539008,-0.84,-0.55,-0.07
2354541008,-0.84,-0.55,-0.07
2354543010,-0.84,-0.55,-0.07
2354545008,-0.84,-0.55,-0.07
2354547007,-0.84,-0.55,-0.08
2354549005,-0.84,-0.55,-0.08
2354551002,-0.84,-0.55,-0.08
2354552982,-0.84,-0.55,-0.08
2354554977,-0.84,-0.55,-0.08
2354556979,-0.84,-0.55,-0.09
2354558975,-0.84,-0.55,-0.09
2354560978,-0.84,-0.55,-0.09
2354562978,-0.84,-0.55,-0.09
2354564976,-0.84,-0.55,-0.09
2354566979,-0.84,-0.54,-0.08
2354568979,-0.84,-0.54,-0.08
2354570978,-0.84,-0.54,-0.08
2354572975,-0.84,-0.54,-0.08
2354574975,-0.84,-0.54,-0.08
2354577032,-0.84,-0.54,-0.08
2354579067,-0.84,-0.54,-0.08
2354581044,-0.84,-0.54,-0.08
2354583009,-0.84,-0.54,-0.08
2354585004,-0.84,-0.54,-0.08
2354587010,-0.84,-0.53,-0.07
2354589007,-0.84,-0.53,-0.07
2354591013,-0.84,-0.53,-0.07
2354592981,-0.84,-0.53,-0.07
2354595020,-0.84,-0.53,-0.07
2354596974,-0.84,-0.52,-0.07
2354598980,-0.84,-0.52,-0.07
2354601018,-0.84,-0.52,-0.07
2354602979,-0.84,-0.52,-0.07
2354604977,-0.84,-0.52,-0.07
2354606979,-0.85,-0.53,-0.07
2354608974,-0.85,-0.53,-0.07
2354610980,-0.85,-0.53,-0.07
2354612979,-0.85,-0.53,-0.07
2354614976,-0.85,-0.53,-0.07
2354617017,-0.85,-0.53,-0.07
2354619008,-0.85,-0.52,-0.07
2354621007,-0.85,-0.52,-0.07
2354623055,-0.85,-0.52,-0.07
2354625007,-0.85,-0.52,-0.07
2354627034,-0.85,-0.52,-0.07
2354629009,-0.85,-0.51,-0.07
2354630975,-0.85,-0.51,-0.07
2354632974,-0.85,-0.51,-0.07
2354634977,-0.85,-0.51,-0.07
2354636977,-0.85,-0.51,-0.07
2354638975,-0.86,-0.51,-0.07
2354640980,-0.86,-0.51,-0.07
2354642988,-0.86,-0.51,-0.07
2354644984,-0.86,-0.51,-0.07
2354646978,-0.86,-0.51,-0.07
2354648977,-0.85,-0.52,-0.07
2354651034,-0.85,-0.52,-0.07
2354653031,-0.85,-0.52,-0.07
2354654976,-0.85,-0.52,-0.07
2354657019,-0.85,-0.52,-0.07
2354659007,-0.85,-0.52,-0.07
2354661005,-0.85,-0.52,-0.07
2354663006,-0.85,-0.52,-0.07
2354665003,-0.85,-0.52,-0.07
2354667004,-0.85,-0.52,-0.07
2354669009,-0.85,-0.53,-0.06
2354670979,-0.85,-0.53,-0.06
2354672979,-0.85,-0.53,-0.06
2354674978,-0.85,-0.53,-0.06
2354676999,-0.85,-0.53,-0.06
2354678980,-0.84,-0.52,-0.06
2354680979,-0.84,-0.52,-0.06
2354682979,-0.84,-0.52,-0.06
2354684977,-0.84,-0.52,-0.06
2354686976,-0.84,-0.52,-0.06
2354688978,-0.85,-0.53,-0.06
2354690977,-0.85,-0.53,-0.06
2354692982,-0.85,-0.53,-0.06
2354695035,-0.85,-0.53,-0.06
2354697017,-0.85,-0.53,-0.06
2354699005,-0.84,-0.54,-0.06
2354701026,-0.84,-0.54,-0.06
2354703011,-0.84,-0.54,-0.06
2354705004,-0.84,-0.54,-0.06
2354707009,-0.84,-0.54,-0.06
2354709009,-0.84,-0.54,-0.06
2354711062,-0.84,-0.54,-0.06
2354713024,-0.84,-0.54,-0.06
2354714974,-0.84,-0.54,-0.06
2354716978,-0.84,-0.54,-0.06
2354718976,-0.84,-0.54,-0.06
2354720977,-0.84,-0.54,-0.06
2354722981,-0.84,-0.54,-0.06
2354725013,-0.84,-0.54,-0.06
2354726997,-0.84,-0.54,-0.06
2354728975,-0.85,-0.54,-0.06
2354730977,-0.85,-0.54,-0.06
2354732979,-0.85,-0.54,-0.06
2354734977,-0.85,-0.54,-0.06
2354737022,-0.85,-0.54,-0.06
2354739007,-0.84,-0.54,-0.07
2354741005,-0.84,-0.54,-0.07
2354743004,-0.84,-0.54,-0.07
2354745005,-0.84,-0.54,-0.07
2354747009,-0.84,-0.54,-0.07
2354749014,-0.84,-0.54,-0.07
2354750997,-0.84,-0.54,-0.07
2354752982,-0.84,-0.54,-0.07
2354754977,-0.84,-0.54,-0.07
2354756977,-0.84,-0.54,-0.07
2354758979,-0.84,-0.54,-0.07
2354760975,-0.84,-0.54,-0.07
2354762977,-0.84,-0.54,-0.07
2354764980,-0.84,-0.54,-0.07
2354766978,-0.84,-0.54,-0.07
2354768976,-0.84,-0.54,-0.07
2354770981,-0.84,-0.54,-0.07
2354772979,-0.84,-0.54,-0.07
2354774987,-0.84,-0.54,-0.07
2354777029,-0.84,-0.54,-0.07
2354779009,-0.85,-0.54,-0.08
2354781007,-0.85,-0.54,-0.08
2354783008,-0.85,-0.54,-0.08
2354785007,-0.85,-0.54,-0.08
2354787008,-0.85,-0.54,-0.08
2354789008,-0.85,-0.52,-0.07
2354790979,-0.85,-0.52,-0.07
2354792983,-0.85,-0.52,-0.07
2354795022,-0.85,-0.52,-0.07
2354796979,-0.85,-0.52,-0.07
2354798982,-0.85,-0.52,-0.07
2354801014,-0.85,-0.52,-0.07
2354802986,-0.85,-0.52,-0.07
2354804976,-0.85,-0.52,-0.07
2354806978,-0.85,-0.52,-0.07
2354808979,-0.85,-0.52,-0.07
2354810981,-0.85,-0.52,-0.07
2354812978,-0.85,-0.52,-0.07
2354815065,-0.85,-0.52,-0.07
2354817036,-0.85,-0.52,-0.07
2354819014,-0.85,-0.52,-0.07
2354821005,-0.84,-0.53,-0.07
2354823008,-0.84,-0.53,-0.07
2354825010,-0.84,-0.53,-0.07
2354827167,-0.84,-0.53,-0.07
2354829011,-0.84,-0.53,-0.07
2354831012,-0.84,-0.54,-0.07
2354832980,-0.84,-0.54,-0.07
2354834979,-0.84,-0.54,-0.07
2354836975,-0.84,-0.54,-0.07
2354838977,-0.84,-0.54,-0.07
2354840979,-0.84,-0.54,-0.07
2354842977,-0.84,-0.54,-0.07
2354844981,-0.84,-0.54,-0.07
2354846980,-0.84,-0.54,-0.07
2354848980,-0.84,-0.54,-0.07
2354850995,-0.84,-0.53,-0.07
2354852987,-0.84,-0.53,-0.07
2354854977,-0.84,-0.53,-0.07
2354857011,-0.84,-0.53,-0.07
2354859003,-0.84,-0.53,-0.07
2354861008,-0.84,-0.53,-0.08
2354863008,-0.84,-0.53,-0.08
2354865005,-0.84,-0.53,-0.08
2354867037,-0.84,-0.53,-0.08
2354869078,-0.84,-0.53,-0.08
2354871041,-0.84,-0.54,-0.08
2354872977,-0.84,-0.54,-0.08
2354874979,-0.84,-0.54,-0.08
2354877096,-0.84,-0.54,-0.08
2354878979,-0.84,-0.54,-0.08
2354880974,-0.84,-0.54,-0.07
2354882974,-0.84,-0.54,-0.07
2354884977,-0.84,-0.54,-0.07
2354886978,-0.84,-0.54,-0.07
2354888980,-0.84,-0.54,-0.07
2354890978,-0.84,-0.54,-0.07
2354892982,-0.84,-0.54,-0.07
2354895020,-0.84,-0.54,-0.07
2354897018,-0.84,-0.54,-0.07
2354899007,-0.84,-0.54,-0.07
2354901023,-0.85,-0.54,-0.07
2354903012,-0.85,-0.54,-0.07
2354905005,-0.85,-0.54,-0.07
2354907004,-0.85,-0.54,-0.07
2354909012,-0.85,-0.54,-0.07
2354910979,-0.84,-0.53,-0.07
2354912980,-0.84,-0.53,-0.07
2354914977,-0.84,-0.53,-0.07
2354916977,-0.84,-0.53,-0.07
2354918978,-0.84,-0.53,-0.07
2354920976,-0.85,-0.54,-0.07
2354922979,-0.85,-0.54,-0.07
2354924979,-0.85,-0.54,-0.07
2354926992,-0.85,-0.54,-0.07
2354928980,-0.85,-0.54,-0.07
2354930977,-0.84,-0.53,-0.07
2354932976,-0.84,-0.53,-0.07
2354934974,-0.84,-0.53,-0.07
2354937011,-0.84,-0.53,-0.07
2354939003,-0.84,-0.53,-0.07
2354941005,-0.85,-0.54,-0.08
2354943008,-0.85,-0.54,-0.08
2354945008,-0.85,-0.54,-0.08
2354947004,-0.85,-0.54,-0.08
2354948982,-0.85,-0.54,-0.08
2354950995,-0.85,-0.52,-0.07
2354952986,-0.85,-0.52,-0.07
2354954980,-0.85,-0.52,-0.07
2354956977,-0.85,-0.52,-0.07
2354958981,-0.85,-0.52,-0.07
2354960979,-0.84,-0.54,-0.07
2354962979,-0.84,-0.54,-0.07
2354964977,-0.84,-0.54,-0.07
2354966980,-0.84,-0.54,-0.07
2354968977,-0.84,-0.54,-0.07
2354970982,-0.85,-0.53,-0.08
2354972980,-0.85,-0.53,-0.08
2354974981,-0.85,-0.53,-0.08
2354977030,-0.85,-0.53,-0.08
2354979007,-0.85,-0.53,-0.08
2354981009,-0.85,-0.52,-0.07
2354983050,-0.85,-0.52,-0.07
2354985041,-0.85,-0.52,-0.07
2354987006,-0.85,-0.52,-0.07
2354989006,-0.85,-0.52,-0.07
2354991003,-0.85,-0.52,-0.07
2354993009,-0.84,-0.53,-0.07
2354995015,-0.84,-0.53,-0.07
2354996978,-0.84,-0.53,-0.07
2354998995,-0.84,-0.53,-0.07
2355001013,-0.84,-0.53,-0.07
2355002980,-0.84,-0.52,-0.07
2355004976,-0.84,-0.52,-0.07
2355006978,-0.84,-0.52,-0.07
2355008975,-0.84,-0.52,-0.07
2355010978,-0.84,-0.52,-0.07
2355012976,-0.84,-0.54,-0.07
2355014979,-0.84,-0.54,-0.07
2355017019,-0.84,-0.54,-0.07
2355019009,-0.84,-0.54,-0.07
2355021006,-0.84,-0.54,-0.07
2355023002,-0.84,-0.53,-0.09
2355025005,-0.84,-0.53,-0.09
2355027018,-0.84,-0.53,-0.09
2355029001,-0.84,-0.53,-0.09
2355031002,-0.84,-0.53,-0.09
2355033029,-0.85,-0.53,-0.07
2355034979,-0.85,-0.53,-0.07
2355036979,-0.85,-0.53,-0.07
2355039049,-0.85,-0.53,-0.07
2355041024,-0.85,-0.53,-0.07
2355042980,-0.84,-0.54,-0.07
2355044980,-0.84,-0.54,-0.07
2355046979,-0.84,-0.54,-0.07
2355048978,-0.84,-0.54,-0.07
2355051000,-0.84,-0.54,-0.07
2355052985,-0.84,-0.53,-0.06
2355054975,-0.84,-0.53,-0.06
2355057019,-0.84,-0.53,-0.06
2355059006,-0.84,-0.53,-0.06
2355061009,-0.84,-0.53,-0.06
2355063008,-0.84,-0.54,-0.07
2355065007,-0.84,-0.54,-0.07
2355067006,-0.84,-0.54,-0.07
2355069006,-0.84,-0.54,-0.07
2355070980,-0.84,-0.54,-0.07
2355072976,-0.84,-0.53,-0.06
2355074977,-0.84,-0.53,-0.06
2355076992,-0.84,-0.53,-0.06
2355078980,-0.84,-0.53,-0.06
2355080980,-0.84,-0.53,-0.06
2355082979,-0.84,-0.54,-0.07
2355084978,-0.84,-0.54,-0.07
2355086978,-0.84,-0.54,-0.07
2355088974,-0.84,-0.54,-0.07
2355090975,-0.84,-0.54,-0.07
2355092978,-0.83,-0.54,-0.07
2355095024,-0.83,-0.54,-0.07
2355097016,-0.83,-0.54,-0.07
2355099004,-0.83,-0.54,-0.07
2355101024,-0.83,-0.54,-0.07
2355103013,-0.84,-0.53,-0.07
2355105008,-0.84,-0.53,-0.07
2355107007,-0.84,-0.53,-0.07
2355109008,-0.84,-0.53,-0.07
2355110978,-0.84,-0.53,-0.07
2355112978,-0.85,-0.53,-0.07
2355114980,-0.85,-0.53,-0.07
2355116979,-0.85,-0.53,-0.07
2355118981,-0.85,-0.53,-0.07
2355120978,-0.85,-0.53,-0.07
2355122981,-0.85,-0.53,-0.06
2355124980,-0.85,-0.53,-0.06
2355126989,-0.85,-0.53,-0.06
2355128977,-0.85,-0.53,-0.06
2355130980,-0.85,-0.53,-0.06
2355132978,-0.85,-0.52,-0.06
2355134977,-0.85,-0.52,-0.06
2355137015,-0.85,-0.52,-0.06
2355139029,-0.85,-0.52,-0.06
2355141064,-0.85,-0.52,-0.06
2355143046,-0.84,-0.53,-0.07
2355145007,-0.84,-0.53,-0.07
2355147008,-0.84,-0.53,-0.07
2355149005,-0.84,-0.53,-0.07
2355151024,-0.84,-0.53,-0.07
2355152995,-0.85,-0.53,-0.07
2355154978,-0.85,-0.53,-0.07
2355156974,-0.85,-0.53,-0.07
2355158974,-0.85,-0.53,-0.07
2355160979,-0.85,-0.53,-0.07
2355162977,-0.84,-0.52,-0.07
2355164975,-0.84,-0.52,-0.07
2355166975,-0.84,-0.52,-0.07
2355168980,-0.84,-0.52,-0.07
2355170977,-0.84,-0.52,-0.07
2355172977,-0.85,-0.53,-0.07
2355174977,-0.85,-0.53,-0.07
2355177030,-0.85,-0.53,-0.07
2355179009,-0.85,-0.53,-0.07
2355181009,-0.85,-0.53,-0.07
2355183008,-0.85,-0.53,-0.07
2355185006,-0.85,-0.53,-0.07
2355187006,-0.85,-0.53,-0.07
2355189007,-0.85,-0.53,-0.07
2355190979,-0.85,-0.53,-0.07
2355192988,-0.85,-0.53,-0.07
2355195061,-0.85,-0.54,-0.07
2355197040,-0.85,-0.54,-0.07
2355198976,-0.85,-0.54,-0.07
2355201015,-0.85,-0.54,-0.07
2355202985,-0.85,-0.54,-0.07
2355204975,-0.85,-0.54,-0.07
2355206979,-0.85,-0.54,-0.07
2355208976,-0.85,-0.54,-0.07
2355210975,-0.85,-0.54,-0.07
2355212976,-0.85,-0.54,-0.07
2355214980,-0.85,-0.54,-0.07
2355217025,-0.85,-0.54,-0.07
2355219007,-0.85,-0.54,-0.07
2355221005,-0.85,-0.54,-0.07
2355223007,-0.85,-0.54,-0.07
2355225005,-0.84,-0.54,-0.07
2355227118,-0.84,-0.54,-0.07
2355229009,-0.84,-0.54,-0.07
2355230980,-0.84,-0.54,-0.07
2355232980,-0.84,-0.54,-0.07
2355234978,-0.84,-0.53,-0.08
2355237029,-0.84,-0.53,-0.08
2355238977,-0.84,-0.53,-0.08
2355240990,-0.84,-0.53,-0.08
2355243068,-0.84,-0.53,-0.08
2355245016,-0.84,-0.53,-0.08
2355246982,-0.84,-0.53,-0.08
2355248990,-0.84,-0.53,-0.08
2355251003,-0.84,-0.53,-0.08
2355252980,-0.84,-0.53,-0.08
2355254977,-0.84,-0.54,-0.08
2355257025,-0.84,-0.54,-0.08
2355259004,-0.84,-0.54,-0.08
2355261007,-0.84,-0.54,-0.08
2355263009,-0.84,-0.54,-0.08
2355265007,-0.85,-0.54,-0.09
2355267006,-0.85,-0.54,-0.09
2355269010,-0.85,-0.54,-0.09
2355270981,-0.85,-0.54,-0.09
2355272980,-0.85,-0.54,-0.09
2355274978,-0.85,-0.54,-0.08
2355277088,-0.85,-0.54,-0.08
2355278979,-0.85,-0.54,-0.08
2355280979,-0.85,-0.54,-0.08
2355282981,-0.85,-0.54,-0.08
2355284978,-0.84,-0.54,-0.08
2355286979,-0.84,-0.54,-0.08
2355288979,-0.84,-0.54,-0.08
2355290977,-0.84,-0.54,-0.08
2355292980,-0.84,-0.54,-0.08
2355294993,-0.84,-0.54,-0.06
2355297049,-0.84,-0.54,-0.06
2355299010,-0.84,-0.54,-0.06
2355301025,-0.84,-0.54,-0.06
2355303069,-0.84,-0.54,-0.06
2355305044,-0.86,-0.53,-0.08
2355307007,-0.86,-0.53,-0.08
2355309007,-0.86,-0.53,-0.08
2355311009,-0.86,-0.53,-0.08
2355313014,-0.86,-0.53,-0.08
2355314980,-0.85,-0.52,-0.04
2355316977,-0.85,-0.52,-0.04
2355318976,-0.85,-0.52,-0.04
2355320981,-0.85,-0.52,-0.04
2355322981,-0.85,-0.52,-0.04
2355324984,-0.85,-0.53,-0.05
2355327004,-0.85,-0.53,-0.05
2355328980,-0.85,-0.53,-0.05
2355330979,-0.85,-0.53,-0.05
2355332975,-0.85,-0.53,-0.05
2355334980,-0.84,-0.52,-0.05
2355337011,-0.84,-0.52,-0.05
2355339047,-0.84,-0.52,-0.05
2355341005,-0.84,-0.52,-0.05
2355343009,-0.84,-0.52,-0.05
2355345010,-0.85,-0.53,-0.06
2355347005,-0.85,-0.53,-0.06
2355349009,-0.85,-0.53,-0.06
2355351000,-0.85,-0.53,-0.06
2355352986,-0.85,-0.53,-0.06
2355354974,-0.84,-0.52,-0.05
2355356976,-0.84,-0.52,-0.05
2355358978,-0.84,-0.52,-0.05
2355360980,-0.84,-0.52,-0.05
2355363051,-0.84,-0.52,-0.05
2355365026,-0.85,-0.54,-0.06
2355366974,-0.85,-0.54,-0.06
2355368972,-0.85,-0.54,-0.06
2355370973,-0.85,-0.54,-0.06
2355372974,-0.85,-0.54,-0.06
2355374979,-0.85,-0.54,-0.06
2355377049,-0.84,-0.53,-0.05
2355379005,-0.84,-0.53,-0.05
2355381005,-0.84,-0.53,-0.05
2355383008,-0.84,-0.53,-0.05
2355385005,-0.84,-0.53,-0.05
2355387006,-0.86,-0.54,-0.06
2355389011,-0.86,-0.54,-0.06
2355390984,-0.86,-0.54,-0.06
2355392982,-0.86,-0.54,-0.06
2355394991,-0.86,-0.54,-0.06
2355397017,-0.85,-0.53,-0.06
2355398978,-0.85,-0.53,-0.06
2355401010,-0.85,-0.53,-0.06
2355402984,-0.85,-0.53,-0.06
2355404978,-0.85,-0.53,-0.06
2355406979,-0.85,-0.53,-0.06
2355409037,-0.85,-0.53,-0.06
2355411027,-0.85,-0.53,-0.06
2355412975,-0.85,-0.53,-0.06
2355414979,-0.85,-0.53,-0.06
2355417022,-0.85,-0.54,-0.07
2355419004,-0.85,-0.54,-0.07
2355421003,-0.85,-0.54,-0.07
2355423005,-0.85,-0.54,-0.07
2355425008,-0.85,-0.54,-0.07
2355427035,-0.84,-0.53,-0.07
2355429006,-0.84,-0.53,-0.07
2355430980,-0.84,-0.53,-0.07
2355432979,-0.84,-0.53,-0.07
2355434979,-0.84,-0.53,-0.07
2355436976,-0.84,-0.53,-0.07
2355438976,-0.84,-0.53,-0.07
2355440977,-0.84,-0.53,-0.07
2355442981,-0.84,-0.53,-0.07
2355444978,-0.84,-0.53,-0.07
2355446984,-0.84,-0.54,-0.07
2355448977,-0.84,-0.54,-0.07
2355450992,-0.84,-0.54,-0.07
2355452980,-0.84,-0.54,-0.07
2355454975,-0.84,-0.54,-0.07
2355457013,-0.85,-0.53,-0.07
2355459008,-0.85,-0.53,-0.07
2355461006,-0.85,-0.53,-0.07
2355463004,-0.85,-0.53,-0.07
2355465004,-0.85,-0.53,-0.07
2355467009,-0.85,-0.53,-0.06
2355468991,-0.85,-0.53,-0.06
2355470976,-0.85,-0.53,-0.06
2355472975,-0.85,-0.53,-0.06
2355474979,-0.85,-0.53,-0.06
2355476995,-0.85,-0.53,-0.07
2355478977,-0.85,-0.53,-0.07
2355480979,-0.85,-0.53,-0.07
2355482978,-0.85,-0.53,-0.07
2355484977,-0.85,-0.53,-0.07
2355486976,-0.85,-0.52,-0.06
2355488981,-0.85,-0.52,-0.06
2355490977,-0.85,-0.52,-0.06
2355492979,-0.85,-0.52,-0.06
2355494997,-0.85,-0.52,-0.06
2355497044,-0.84,-0.53,-0.07
2355499013,-0.84,-0.53,-0.07
2355501027,-0.84,-0.53,-0.07
2355503013,-0.84,-0.53,-0.07
2355505039,-0.84,-0.53,-0.07
2355507008,-0.84,-0.54,-0.09
2355509051,-0.84,-0.54,-0.09
2355511042,-0.84,-0.54,-0.09
2355513015,-0.84,-0.54,-0.09
2355515016,-0.84,-0.54,-0.09
2355516977,-0.84,-0.53,-0.08
2355518983,-0.84,-0.53,-0.08
2355520979,-0.84,-0.53,-0.08
2355522980,-0.84,-0.53,-0.08
2355524979,-0.84,-0.53,-0.08
2355527003,-0.84,-0.54,-0.07
2355528974,-0.84,-0.54,-0.07
2355530976,-0.84,-0.54,-0.07
2355532976,-0.84,-0.54,-0.07
2355534976,-0.84,-0.54,-0.07
2355537012,-0.84,-0.55,-0.09
2355539011,-0.84,-0.55,-0.09
2355541007,-0.84,-0.55,-0.09
2355543033,-0.84,-0.55,-0.09
2355545048,-0.84,-0.55,-0.09
2355547006,-0.85,-0.54,-0.08
2355549013,-0.85,-0.54,-0.08
2355551006,-0.85,-0.54,-0.08
2355552987,-0.85,-0.54,-0.08
2355554974,-0.85,-0.54,-0.08
2355556974,-0.85,-0.54,-0.08
2355558978,-0.84,-0.54,-0.08
2355560981,-0.84,-0.54,-0.08
2355562978,-0.84,-0.54,-0.08
2355564975,-0.84,-0.54,-0.08
2355566975,-0.84,-0.54,-0.08
2355568974,-0.84,-0.53,-0.07
2355570979,-0.84,-0.53,-0.07
2355572975,-0.84,-0.53,-0.07
2355574974,-0.84,-0.53,-0.07
2355577030,-0.84,-0.53,-0.07
2355579009,-0.84,-0.54,-0.07
2355581008,-0.84,-0.54,-0.07
2355583006,-0.84,-0.54,-0.07
2355585006,-0.84,-0.54,-0.07
2355587004,-0.84,-0.54,-0.07
2355588992,-0.84,-0.55,-0.07
2355590979,-0.84,-0.55,-0.07
2355592983,-0.84,-0.55,-0.07
2355594995,-0.84,-0.55,-0.07
2355597011,-0.84,-0.55,-0.07
2355598980,-0.85,-0.53,-0.07
2355601012,-0.85,-0.53,-0.07
2355602978,-0.85,-0.53,-0.07
2355604976,-0.85,-0.53,-0.07
2355606981,-0.85,-0.53,-0.07
2355608976,-0.84,-0.54,-0.07
2355610980,-0.84,-0.54,-0.07
2355612974,-0.84,-0.54,-0.07
2355614980,-0.84,-0.54,-0.07
2355617022,-0.84,-0.54,-0.07
2355619012,-0.85,-0.52,-0.05
2355621039,-0.85,-0.52,-0.05
2355623013,-0.85,-0.52,-0.05
2355625006,-0.85,-0.52,-0.05
2355627134,-0.85,-0.52,-0.05
2355629011,-0.83,-0.52,-0.05
2355631014,-0.83,-0.52,-0.05
2355633037,-0.83,-0.52,-0.05
2355634977,-0.83,-0.52,-0.05
2355636978,-0.83,-0.52,-0.05
2355638977,-0.85,-0.52,-0.07
2355640975,-0.85,-0.52,-0.07
2355642987,-0.85,-0.52,-0.07
2355645015,-0.85,-0.52,-0.07
2355647012,-0.85,-0.52,-0.07
2355648975,-0.84,-0.53,-0.06
2355651001,-0.84,-0.53,-0.06
2355652985,-0.84,-0.53,-0.06
2355654975,-0.84,-0.53,-0.06
2355657025,-0.84,-0.53,-0.06
2355659006,-0.85,-0.53,-0.05
2355661005,-0.85,-0.53,-0.05
2355663010,-0.85,-0.53,-0.05
2355665010,-0.85,-0.53,-0.05
2355667006,-0.85,-0.53,-0.05
2355669010,-0.85,-0.53,-0.07
2355670981,-0.85,-0.53,-0.07
2355672992,-0.85,-0.53,-0.07
2355675131,-0.85,-0.53,-0.07
2355677131,-0.85,-0.53,-0.07
2355678978,-0.86,-0.53,-0.06
2355680978,-0.86,-0.53,-0.06
2355682975,-0.86,-0.53,-0.06
2355684976,-0.86,-0.53,-0.06
2355686976,-0.86,-0.53,-0.06
2355688980,-0.85,-0.52,-0.05
2355690976,-0.85,-0.52,-0.05
2355692983,-0.85,-0.52,-0.05
2355694996,-0.85,-0.52,-0.05
2355697051,-0.85,-0.52,-0.05
2355699008,-0.84,-0.53,-0.06
2355701027,-0.84,-0.53,-0.06
2355703012,-0.84,-0.53,-0.06
2355705007,-0.84,-0.53,-0.06
2355707008,-0.84,-0.53,-0.06
2355709012,-0.84,-0.52,-0.07
2355710980,-0.84,-0.52,-0.07
2355712979,-0.84,-0.52,-0.07
2355714978,-0.84,-0.52,-0.07
2355716978,-0.84,-0.52,-0.07
2355718992,-0.84,-0.52,-0.06
2355721136,-0.84,-0.52,-0.06
2355723014,-0.84,-0.52,-0.06
2355724976,-0.84,-0.52,-0.06
2355727004,-0.84,-0.52,-0.06
2355728979,-0.85,-0.53,-0.05
2355730979,-0.85,-0.53,-0.05
2355732978,-0.85,-0.53,-0.05
2355734980,-0.85,-0.53,-0.05
2355737023,-0.85,-0.53,-0.05
2355739008,-0.85,-0.53,-0.05
2355741006,-0.86,-0.52,-0.05
2355743007,-0.86,-0.52,-0.05
2355745008,-0.86,-0.52,-0.05
2355747008,-0.86,-0.52,-0.05
2355749014,-0.86,-0.52,-0.05
2355750999,-0.85,-0.53,-0.05
2355752986,-0.85,-0.53,-0.05
2355754978,-0.85,-0.53,-0.05
2355756980,-0.85,-0.53,-0.05
2355758984,-0.85,-0.53,-0.05
2355760975,-0.85,-0.53,-0.07
2355762979,-0.85,-0.53,-0.07
2355764979,-0.85,-0.53,-0.07
2355766976,-0.85,-0.53,-0.07
2355768977,-0.85,-0.53,-0.07
2355770979,-0.85,-0.52,-0.07
2355772980,-0.85,-0.52,-0.07
2355774980,-0.85,-0.52,-0.07
2355777033,-0.85,-0.52,-0.07
2355779009,-0.85,-0.52,-0.07
2355781004,-0.84,-0.53,-0.07
2355783007,-0.84,-0.53,-0.07
2355785009,-0.84,-0.53,-0.07
2355787065,-0.84,-0.53,-0.07
2355789045,-0.84,-0.53,-0.07
2355791011,-0.84,-0.53,-0.08
2355792983,-0.84,-0.53,-0.08
2355794993,-0.84,-0.53,-0.08
2355797010,-0.84,-0.53,-0.08
2355798976,-0.84,-0.53,-0.08
2355801015,-0.84,-0.53,-0.07
2355802984,-0.84,-0.53,-0.07
2355804975,-0.84,-0.53,-0.07
2355806978,-0.84,-0.53,-0.07
2355808976,-0.84,-0.53,-0.07
2355810974,-0.85,-0.53,-0.08
2355812976,-0.85,-0.53,-0.08
2355814974,-0.85,-0.53,-0.08
2355817024,-0.85,-0.53,-0.08
2355819005,-0.85,-0.53,-0.08
2355821004,-0.84,-0.54,-0.06
2355823012,-0.84,-0.54,-0.06
2355825009,-0.84,-0.54,-0.06
2355827026,-0.84,-0.54,-0.06
2355829008,-0.84,-0.54,-0.06
2355830979,-0.84,-0.54,-0.07
2355832979,-0.84,-0.54,-0.07
2355834980,-0.84,-0.54,-0.07
2355836979,-0.84,-0.54,-0.07
2355838976,-0.84,-0.54,-0.07
2355840976,-0.85,-0.54,-0.07
2355842990,-0.85,-0.54,-0.07
2355845062,-0.85,-0.54,-0.07
2355847022,-0.85,-0.54,-0.07
2355849013,-0.85,-0.54,-0.07
2355851029,-0.84,-0.54,-0.07
2355852981,-0.84,-0.54,-0.07
2355854976,-0.84,-0.54,-0.07
2355857026,-0.84,-0.54,-0.07
2355859009,-0.84,-0.54,-0.07
2355861008,-0.84,-0.54,-0.08
2355863009,-0.84,-0.54,-0.08
2355865005,-0.84,-0.54,-0.08
2355867008,-0.84,-0.54,-0.08
2355869007,-0.84,-0.54,-0.08
2355870984,-0.85,-0.54,-0.07
2355872984,-0.85,-0.54,-0.07
2355874980,-0.85,-0.54,-0.07
2355876990,-0.85,-0.54,-0.07
2355878980,-0.85,-0.54,-0.07
2355880976,-0.84,-0.54,-0.08
2355882979,-0.84,-0.54,-0.08
2355884979,-0.84,-0.54,-0.08
2355886976,-0.84,-0.54,-0.08
2355888979,-0.84,-0.54,-0.08
2355890979,-0.85,-0.54,-0.08
2355892982,-0.85,-0.54,-0.08
2355894993,-0.85,-0.54,-0.08
2355897048,-0.85,-0.54,-0.08
2355899005,-0.85,-0.54,-0.08
2355901021,-0.85,-0.53,-0.08
2355903011,-0.85,-0.53,-0.08
2355905010,-0.85,-0.53,-0.08
2355907011,-0.85,-0.53,-0.08
2355909008,-0.85,-0.53,-0.08
2355910979,-0.85,-0.54,-0.08
2355912979,-0.85,-0.54,-0.08
2355914975,-0.85,-0.54,-0.08
2355916981,-0.85,-0.54,-0.08
2355918978,-0.85,-0.54,-0.08
2355920979,-0.85,-0.54,-0.08
2355922976,-0.85,-0.54,-0.08
2355924979,-0.85,-0.54,-0.08
2355926993,-0.85,-0.54,-0.08
2355928980,-0.85,-0.54,-0.08
2355930979,-0.85,-0.54,-0.08
2355932978,-0.85,-0.53,-0.07
2355934977,-0.85,-0.53,-0.07
2355937014,-0.85,-0.53,-0.07
2355939010,-0.85,-0.53,-0.07
2355941007,-0.85,-0.53,-0.07
2355943075,-0.84,-0.53,-0.07
2355945031,-0.84,-0.53,-0.07
2355947006,-0.84,-0.53,-0.07
2355949006,-0.84,-0.53,-0.07
2355951022,-0.84,-0.53,-0.07
2355953027,-0.85,-0.53,-0.06
2355954991,-0.85,-0.53,-0.06
2355956977,-0.85,-0.53,-0.06
2355958977,-0.85,-0.53,-0.06
2355960974,-0.85,-0.53,-0.06
2355962975,-0.85,-0.53,-0.07
2355964975,-0.85,-0.53,-0.07
2355966975,-0.85,-0.53,-0.07
2355968979,-0.85,-0.53,-0.07
2355970978,-0.85,-0.53,-0.07
2355972974,-0.84,-0.54,-0.05
2355974976,-0.84,-0.54,-0.05
2355977050,-0.84,-0.54,-0.05
2355979006,-0.84,-0.54,-0.05
2355981009,-0.84,-0.54,-0.05
2355983010,-0.85,-0.53,-0.06
2355985007,-0.85,-0.53,-0.06
2355987026,-0.85,-0.53,-0.06
2355988958,-0.85,-0.53,-0.06
2355990956,-0.85,-0.53,-0.06
2355992960,-0.84,-0.53,-0.07
2355994979,-0.84,-0.53,-0.07
2355997013,-0.84,-0.53,-0.07
2355998985,-0.84,-0.53,-0.07
2356001001,-0.84,-0.53,-0.07
2356002959,-0.85,-0.53,-0.06
2356004957,-0.85,-0.53,-0.06
2356006957,-0.85,-0.53,-0.06
2356008955,-0.85,-0.53,-0.06
2356010955,-0.85,-0.53,-0.06
2356012958,-0.85,-0.53,-0.06
2356014958,-0.85,-0.53,-0.06
2356016958,-0.85,-0.53,-0.06
2356018958,-0.85,-0.53,-0.06
2356021052,-0.85,-0.53,-0.06
2356023004,-0.85,-0.54,-0.06
2356025018,-0.85,-0.54,-0.06
2356027117,-0.85,-0.54,-0.06
2356029031,-0.85,-0.54,-0.06
2356031060,-0.85,-0.54,-0.06
2356033040,-0.84,-0.54,-0.07
2356035008,-0.84,-0.54,-0.07
2356037003,-0.84,-0.54,-0.07
2356039005,-0.84,-0.54,-0.07
2356041006,-0.84,-0.54,-0.07
2356043010,-0.84,-0.53,-0.06
2356044980,-0.84,-0.53,-0.06
2356046979,-0.84,-0.53,-0.06
2356048978,-0.84,-0.53,-0.06
2356051000,-0.84,-0.53,-0.06
2356052982,-0.85,-0.53,-0.07
2356054999,-0.85,-0.53,-0.07
2356057014,-0.85,-0.53,-0.07
2356058979,-0.85,-0.53,-0.07
2356060977,-0.85,-0.53,-0.07
2356062975,-0.85,-0.53,-0.07
2356065022,-0.85,-0.53,-0.07
2356067008,-0.85,-0.53,-0.07
2356069009,-0.85,-0.53,-0.07
2356071006,-0.85,-0.53,-0.07
2356073009,-0.85,-0.52,-0.06
2356075005,-0.85,-0.52,-0.06
2356077119,-0.85,-0.52,-0.06
2356078980,-0.85,-0.52,-0.06
2356080980,-0.85,-0.52,-0.06
2356082977,-0.85,-0.52,-0.07
2356084984,-0.85,-0.52,-0.07
2356086976,-0.85,-0.52,-0.07
2356088975,-0.85,-0.52,-0.07
2356090975,-0.85,-0.52,-0.07
2356092983,-0.85,-0.53,-0.06
2356094993,-0.85,-0.53,-0.06
2356097020,-0.85,-0.53,-0.06
2356098976,-0.85,-0.53,-0.06
2356101007,-0.85,-0.53,-0.06
2356102985,-0.85,-0.53,-0.06
2356105014,-0.85,-0.53,-0.06
2356107006,-0.85,-0.53,-0.06
2356109005,-0.85,-0.53,-0.06
2356111007,-0.85,-0.53,-0.06
2356113015,-0.86,-0.53,-0.06
2356115041,-0.86,-0.53,-0.06
2356117009,-0.86,-0.53,-0.06
2356119011,-0.86,-0.53,-0.06
2356120979,-0.86,-0.53,-0.06
2356122981,-0.86,-0.53,-0.06
2356124977,-0.85,-0.53,-0.05
2356126999,-0.85,-0.53,-0.05
2356128979,-0.85,-0.53,-0.05
2356130979,-0.85,-0.53,-0.05
2356132977,-0.85,-0.53,-0.05
2356134978,-0.85,-0.53,-0.06
2356136978,-0.85,-0.53,-0.06
2356138977,-0.85,-0.53,-0.06
2356140998,-0.85,-0.53,-0.06
2356143034,-0.85,-0.53,-0.06
2356145018,-0.84,-0.54,-0.06
2356147008,-0.84,-0.54,-0.06
2356149003,-0.84,-0.54,-0.06
2356151025,-0.84,-0.54,-0.06
2356153014,-0.84,-0.54,-0.06
2356155011,-0.84,-0.53,-0.07
2356157009,-0.84,-0.53,-0.07
2356159022,-0.84,-0.53,-0.07
2356160979,-0.84,-0.53,-0.07
2356162979,-0.84,-0.53,-0.07
2356164975,-0.84,-0.54,-0.07
2356166979,-0.84,-0.54,-0.07
2356168975,-0.84,-0.54,-0.07
2356170976,-0.84,-0.54,-0.07
2356172974,-0.84,-0.54,-0.07
2356174980,-0.85,-0.54,-0.07
2356176999,-0.85,-0.54,-0.07
2356178979,-0.85,-0.54,-0.07
2356180975,-0.85,-0.54,-0.07
2356182972,-0.85,-0.54,-0.07
2356185019,-0.84,-0.54,-0.08
2356187009,-0.84,-0.54,-0.08
2356189005,-0.84,-0.54,-0.08
2356191008,-0.84,-0.54,-0.08
2356193005,-0.84,-0.54,-0.08
2356195010,-0.84,-0.54,-0.07
2356197036,-0.84,-0.54,-0.07
2356198983,-0.84,-0.54,-0.07
2356201015,-0.84,-0.54,-0.07
2356202980,-0.84,-0.54,-0.07
2356204973,-0.84,-0.53,-0.07
2356206974,-0.84,-0.53,-0.07
2356208975,-0.84,-0.53,-0.07
2356210975,-0.84,-0.53,-0.07
2356212974,-0.84,-0.53,-0.07
2356214978,-0.84,-0.53,-0.07
2356216980,-0.84,-0.53,-0.07
2356218978,-0.84,-0.53,-0.07
2356220973,-0.84,-0.53,-0.07
2356222977,-0.84,-0.53,-0.07
2356225013,-0.85,-0.54,-0.07
2356227071,-0.85,-0.54,-0.07
2356229018,-0.85,-0.54,-0.07
2356231024,-0.85,-0.54,-0.07
2356232956,-0.85,-0.54,-0.07
2356234957,-0.85,-0.52,-0.06
2356236952,-0.85,-0.52,-0.06
2356238957,-0.85,-0.52,-0.06
2356240956,-0.85,-0.52,-0.06
2356242957,-0.85,-0.52,-0.06
2356244956,-0.85,-0.53,-0.07
2356246959,-0.85,-0.53,-0.07
2356248979,-0.85,-0.53,-0.07
2356250982,-0.85,-0.53,-0.07
2356252965,-0.85,-0.53,-0.07
2356254957,-0.85,-0.54,-0.07
2356256952,-0.85,-0.54,-0.07
2356258957,-0.85,-0.54,-0.07
2356260957,-0.85,-0.54,-0.07
2356262956,-0.85,-0.54,-0.07
2356264956,-0.85,-0.53,-0.07
2356266957,-0.85,-0.53,-0.07
2356268956,-0.85,-0.53,-0.07
2356270956,-0.85,-0.53,-0.07
2356272957,-0.85,-0.53,-0.07
2356327071,-0.84,-0.53,-0.07
2356329010,-0.84,-0.53,-0.07
2356331008,-0.84,-0.53,-0.07
2356333006,-0.84,-0.53,-0.07
2356335005,-0.84,-0.53,-0.07
2356337009,-0.86,-0.54,-0.08
2356339006,-0.86,-0.54,-0.08
2356340980,-0.86,-0.54,-0.08
2356342984,-0.86,-0.54,-0.08
2356344981,-0.86,-0.54,-0.08
2356346983,-0.84,-0.53,-0.07
2356348985,-0.84,-0.53,-0.07
2356350998,-0.84,-0.53,-0.07
2356352978,-0.84,-0.53,-0.07
2356354980,-0.84,-0.53,-0.07
2356356975,-0.86,-0.54,-0.07
2356358974,-0.86,-0.54,-0.07
2356361018,-0.86,-0.54,-0.07
2356363016,-0.86,-0.54,-0.07
2356364980,-0.86,-0.54,-0.07
2356367021,-0.84,-0.53,-0.07
2356369008,-0.84,-0.53,-0.07
2356371006,-0.84,-0.53,-0.07
2356373028,-0.84,-0.53,-0.07
2356375008,-0.84,-0.53,-0.07
2356376990,-0.84,-0.54,-0.06
2356379066,-0.84,-0.54,-0.06
2356381043,-0.84,-0.54,-0.06
2356383009,-0.84,-0.54,-0.06
2356385009,-0.84,-0.54,-0.06
2356386989,-0.85,-0.53,-0.06
2356388976,-0.85,-0.53,-0.06
2356390981,-0.85,-0.53,-0.06
2356392982,-0.85,-0.53,-0.06
2356394993,-0.85,-0.53,-0.06
2356397007,-0.85,-0.53,-0.06
2356398983,-0.85,-0.53,-0.06
2356401018,-0.85,-0.53,-0.06
2356402979,-0.85,-0.53,-0.06
2356404976,-0.85,-0.53,-0.06
2356407020,-0.84,-0.53,-0.06
2356409009,-0.84,-0.53,-0.06
2356411007,-0.84,-0.53,-0.06
2356413010,-0.84,-0.53,-0.06
2356415003,-0.84,-0.53,-0.06
2356417007,-0.84,-0.53,-0.06
2356418976,-0.84,-0.53,-0.06
2356420974,-0.84,-0.53,-0.06
2356422976,-0.84,-0.53,-0.06
2356424979,-0.84,-0.53,-0.06
2356427089,-0.84,-0.54,-0.06
2356428977,-0.84,-0.54,-0.06
2356430979,-0.84,-0.54,-0.06
2356432977,-0.84,-0.54,-0.06
2356434981,-0.84,-0.54,-0.06
2356437061,-0.85,-0.53,-0.05
2356439020,-0.85,-0.53,-0.05
2356440979,-0.85,-0.53,-0.05
2356442978,-0.85,-0.53,-0.05
2356444975,-0.85,-0.53,-0.05
2356447021,-0.84,-0.54,-0.07
2356449006,-0.84,-0.54,-0.07
2356451025,-0.84,-0.54,-0.07
2356453016,-0.84,-0.54,-0.07
2356455008,-0.84,-0.54,-0.07
2356457009,-0.84,-0.54,-0.06
2356459013,-0.84,-0.54,-0.06
2356460984,-0.84,-0.54,-0.06
2356462980,-0.84,-0.54,-0.06
2356465030,-0.84,-0.54,-0.06
2356466989,-0.84,-0.54,-0.07
2356468974,-0.84,-0.54,-0.07
2356470979,-0.84,-0.54,-0.07
2356472974,-0.84,-0.54,-0.07
2356474977,-0.84,-0.54,-0.07
2356477091,-0.85,-0.53,-0.07
2356478988,-0.85,-0.53,-0.07
2356480984,-0.85,-0.53,-0.07
2356482988,-0.85,-0.53,-0.07
2356485072,-0.85,-0.53,-0.07
2356487043,-0.84,-0.53,-0.08
2356489008,-0.84,-0.53,-0.08
2356491008,-0.84,-0.53,-0.08
2356493008,-0.84,-0.53,-0.08
2356495018,-0.84,-0.53,-0.08
2356497042,-0.84,-0.53,-0.08
2356499012,-0.84,-0.53,-0.07
2356501025,-0.84,-0.53,-0.07
2356502979,-0.84,-0.53,-0.07
2356504978,-0.84,-0.53,-0.07
2356506976,-0.84,-0.53,-0.07
2356508977,-0.85,-0.53,-0.08
2356510978,-0.85,-0.53,-0.08
2356512975,-0.85,-0.53,-0.08
2356514974,-0.85,-0.53,-0.08
2356516979,-0.85,-0.53,-0.08
2356518979,-0.85,-0.52,-0.06
2356520978,-0.85,-0.52,-0.06
2356522977,-0.85,-0.52,-0.06
2356524976,-0.85,-0.52,-0.06
2356527028,-0.85,-0.52,-0.06
2356529009,-0.84,-0.52,-0.04
2356531065,-0.84,-0.52,-0.04
2356533047,-0.84,-0.52,-0.04
2356535010,-0.84,-0.52,-0.04
2356537006,-0.84,-0.52,-0.04
2356539010,-0.87,-0.53,-0.05
2356541008,-0.87,-0.53,-0.05
2356542976,-0.87,-0.53,-0.05
2356544984,-0.87,-0.53,-0.05
2356546978,-0.87,-0.53,-0.05
2356548978,-0.85,-0.52,-0.04
2356551004,-0.85,-0.52,-0.04
2356552982,-0.85,-0.52,-0.04
2356554979,-0.85,-0.52,-0.04
2356556979,-0.85,-0.52,-0.04
2356558976,-0.85,-0.53,-0.07
2356560975,-0.85,-0.53,-0.07
2356562977,-0.85,-0.53,-0.07
2356564985,-0.85,-0.53,-0.07
2356567040,-0.85,-0.53,-0.07
2356569006,-0.83,-0.53,-0.07
2356571011,-0.83,-0.53,-0.07
2356573008,-0.83,-0.53,-0.07
2356575007,-0.83,-0.53,-0.07
2356577035,-0.83,-0.53,-0.07
2356579011,-0.84,-0.54,-0.05
2356580977,-0.84,-0.54,-0.05
2356582976,-0.84,-0.54,-0.05
2356584975,-0.84,-0.54,-0.05
2356586977,-0.84,-0.54,-0.05
2356588980,-0.84,-0.54,-0.06
2356590979,-0.84,-0.54,-0.06
2356592980,-0.84,-0.54,-0.06
2356594994,-0.84,-0.54,-0.06
2356597010,-0.84,-0.54,-0.06
2356598978,-0.86,-0.55,-0.12
2356601019,-0.86,-0.55,-0.12
2356603137,-0.86,-0.55,-0.12
2356605014,-0.86,-0.55,-0.12
2356607023,-0.86,-0.55,-0.12
2356609007,-0.83,-0.54,-0.09
2356611006,-0.83,-0.54,-0.09
2356613005,-0.83,-0.54,-0.09
2356615006,-0.83,-0.54,-0.09
2356617008,-0.83,-0.54,-0.09
2356619009,-0.84,-0.50,0.02
2356620979,-0.84,-0.50,0.02
2356622986,-0.84,-0.50,0.02
2356624976,-0.84,-0.50,0.02
2356627000,-0.84,-0.50,0.02
2356628979,-0.88,-0.53,0.00
2356630974,-0.88,-0.53,0.00
2356632975,-0.88,-0.53,0.00
2356634976,-0.88,-0.53,0.00
2356636976,-0.88,-0.53,0.00
2356638975,-0.84,-0.53,-0.08
2356640978,-0.84,-0.53,-0.08
2356642975,-0.84,-0.53,-0.08
2356644974,-0.84,-0.53,-0.08
2356647017,-0.84,-0.53,-0.08
2356649008,-0.84,-0.54,-0.03
2356651015,-0.84,-0.54,-0.03
2356653012,-0.84,-0.54,-0.03
2356655021,-0.84,-0.54,-0.03
2356657065,-0.84,-0.54,-0.03
2356659038,-0.84,-0.52,0.00
2356661007,-0.84,-0.52,0.00
2356663012,-0.84,-0.52,0.00
2356664979,-0.84,-0.52,0.00
2356666979,-0.84,-0.52,0.00
2356668979,-0.87,-0.54,-0.05
2356671017,-0.87,-0.54,-0.05
2356672979,-0.87,-0.54,-0.05
2356674980,-0.87,-0.54,-0.05
2356677008,-0.87,-0.54,-0.05
2356678978,-0.87,-0.54,-0.05
2356680977,-0.85,-0.51,-0.07
2356682976,-0.85,-0.51,-0.07
2356684978,-0.85,-0.51,-0.07
2356687023,-0.85,-0.51,-0.07
2356689004,-0.85,-0.51,-0.07
2356691006,-0.85,-0.53,-0.07
2356693008,-0.85,-0.53,-0.07
2356695014,-0.85,-0.53,-0.07
2356697042,-0.85,-0.53,-0.07
2356699006,-0.85,-0.53,-0.07
2356701019,-0.86,-0.50,-0.04
2356702985,-0.86,-0.50,-0.04
2356704977,-0.86,-0.50,-0.04
2356706976,-0.86,-0.50,-0.04
2356708975,-0.86,-0.50,-0.04
2356710979,-0.85,-0.52,-0.05
2356712976,-0.85,-0.52,-0.05
2356714976,-0.85,-0.52,-0.05
2356716977,-0.85,-0.52,-0.05
2356718976,-0.85,-0.52,-0.05
2356721138,-0.86,-0.51,-0.04
2356723019,-0.86,-0.51,-0.04
2356724976,-0.86,-0.51,-0.04
2356727055,-0.86,-0.51,-0.04
2356729008,-0.86,-0.51,-0.04
2356731006,-0.86,-0.51,-0.04
2356733009,-0.86,-0.51,-0.04
2356735004,-0.86,-0.51,-0.04
2356737007,-0.86,-0.51,-0.04
2356739008,-0.86,-0.51,-0.04
2356740977,-0.86,-0.52,-0.07
2356742981,-0.86,-0.52,-0.07
2356744980,-0.86,-0.52,-0.07
2356746980,-0.86,-0.52,-0.07
2356748996,-0.86,-0.52,-0.07
2356750999,-0.85,-0.53,-0.07
2356752980,-0.85,-0.53,-0.07
2356754979,-0.85,-0.53,-0.07
2356756980,-0.85,-0.53,-0.07
2356758975,-0.85,-0.53,-0.07
2356760979,-0.84,-0.52,-0.05
2356762979,-0.84,-0.52,-0.05
2356765066,-0.84,-0.52,-0.05
2356767042,-0.84,-0.52,-0.05
2356769012,-0.84,-0.52,-0.05
2356771024,-0.84,-0.53,-0.05
2356773046,-0.84,-0.53,-0.05
2356775009,-0.84,-0.53,-0.05
2356777039,-0.84,-0.53,-0.05
2356779008,-0.84,-0.53,-0.05
2356781008,-0.84,-0.54,-0.06
2356782974,-0.84,-0.54,-0.06
2356784973,-0.84,-0.54,-0.06
2356786976,-0.84,-0.54,-0.06
2356788978,-0.84,-0.54,-0.06
2356790977,-0.84,-0.54,-0.08
2356792983,-0.84,-0.54,-0.08
2356794993,-0.84,-0.54,-0.08
2356797012,-0.84,-0.54,-0.08
2356798979,-0.84,-0.54,-0.08
2356801009,-0.84,-0.54,-0.08
2356802984,-0.84,-0.54,-0.08
2356804976,-0.84,-0.54,-0.08
2356807018,-0.84,-0.54,-0.08
2356809006,-0.84,-0.54,-0.08
2356811004,-0.86,-0.54,-0.07
2356813008,-0.86,-0.54,-0.07
2356815059,-0.86,-0.54,-0.07
2356817036,-0.86,-0.54,-0.07
2356819009,-0.86,-0.54,-0.07
2356821006,-0.84,-0.56,-0.09
2356822988,-0.84,-0.56,-0.09
2356824976,-0.84,-0.56,-0.09
2356827000,-0.84,-0.56,-0.09
2356828980,-0.84,-0.56,-0.09
2356830981,-0.83,-0.54,-0.08
2356832978,-0.83,-0.54,-0.08
2356834975,-0.83,-0.54,-0.08
2356836978,-0.83,-0.54,-0.08
2356838979,-0.83,-0.54,-0.08
2356840976,-0.84,-0.55,-0.09
2356842975,-0.84,-0.55,-0.09
2356844979,-0.84,-0.55,-0.09
2356847015,-0.84,-0.55,-0.09
2356849007,-0.84,-0.55,-0.09
2356851019,-0.85,-0.55,-0.12
2356853011,-0.85,-0.55,-0.12
2356855009,-0.85,-0.55,-0.12
2356857003,-0.85,-0.55,-0.12
2356859006,-0.85,-0.55,-0.12
2356860979,-0.84,-0.54,-0.10
2356862979,-0.84,-0.54,-0.10
2356864976,-0.84,-0.54,-0.10
2356866979,-0.84,-0.54,-0.10
2356868980,-0.84,-0.54,-0.10
2356870979,-0.84,-0.54,-0.10
2356872980,-0.85,-0.54,-0.10
2356875039,-0.85,-0.54,-0.10
2356877064,-0.85,-0.54,-0.10
2356879000,-0.85,-0.54,-0.10
2356880977,-0.85,-0.54,-0.10
2356882973,-0.85,-0.54,-0.09
2356884979,-0.85,-0.54,-0.09
2356887023,-0.85,-0.54,-0.09
2356889006,-0.85,-0.54,-0.09
2356891006,-0.85,-0.54,-0.09
2356893006,-0.84,-0.54,-0.09
2356895011,-0.84,-0.54,-0.09
2356897040,-0.84,-0.54,-0.09
2356899011,-0.84,-0.54,-0.09
2356901017,-0.84,-0.54,-0.09
2356902978,-0.84,-0.54,-0.10
2356904977,-0.84,-0.54,-0.10
2356906978,-0.84,-0.54,-0.10
2356908977,-0.84,-0.54,-0.10
2356910973,-0.84,-0.54,-0.10
2356912975,-0.84,-0.53,-0.10
2356914977,-0.84,-0.53,-0.10
2356916976,-0.84,-0.53,-0.10
2356918976,-0.84,-0.53,-0.10
2356921045,-0.84,-0.53,-0.10
2356923030,-0.84,-0.54,-0.09
2356924979,-0.84,-0.54,-0.09
2356927047,-0.84,-0.54,-0.09
2356929004,-0.84,-0.54,-0.09
2356931006,-0.84,-0.54,-0.09
2356933009,-0.84,-0.52,-0.08
2356935009,-0.84,-0.52,-0.08
2356937007,-0.84,-0.52,-0.08
2356939005,-0.84,-0.52,-0.08
2356940980,-0.84,-0.52,-0.08
2356942979,-0.85,-0.53,-0.08
2356944977,-0.85,-0.53,-0.08
2356946976,-0.85,-0.53,-0.08
2356948980,-0.85,-0.53,-0.08
2356950995,-0.85,-0.53,-0.08
2356952981,-0.85,-0.53,-0.07
2356954980,-0.85,-0.53,-0.07
2356956977,-0.85,-0.53,-0.07
2356958979,-0.85,-0.53,-0.07
2356960978,-0.85,-0.53,-0.07
2356962977,-0.85,-0.54,-0.05
2356964981,-0.85,-0.54,-0.05
2356967043,-0.85,-0.54,-0.05
2356969047,-0.85,-0.54,-0.05
2356971007,-0.85,-0.54,-0.05
2356973008,-0.84,-0.53,-0.06
2356975008,-0.84,-0.53,-0.06
2356977065,-0.84,-0.53,-0.06
2356979019,-0.84,-0.53,-0.06
2356981009,-0.84,-0.53,-0.06
2356983009,-0.84,-0.54,-0.06
2356984978,-0.84,-0.54,-0.06
2356986977,-0.84,-0.54,-0.06
2356988976,-0.84,-0.54,-0.06
2356990978,-0.84,-0.54,-0.06
2356992982,-0.84,-0.53,-0.04
2356994991,-0.84,-0.53,-0.04
2356997017,-0.84,-0.53,-0.04
2356998993,-0.84,-0.53,-0.04
2357001012,-0.84,-0.53,-0.04
2357002984,-0.85,-0.51,-0.02
2357004984,-0.85,-0.51,-0.02
2357007018,-0.85,-0.51,-0.02
2357009006,-0.85,-0.51,-0.02
2357011003,-0.85,-0.51,-0.02
2357013010,-0.84,-0.53,-0.06
2357015004,-0.84,-0.53,-0.06
2357017005,-0.84,-0.53,-0.06
2357019003,-0.84,-0.53,-0.06
2357020979,-0.84,-0.53,-0.06
2357022976,-0.87,-0.52,-0.02
2357024976,-0.87,-0.52,-0.02
2357026991,-0.87,-0.52,-0.02
2357028979,-0.87,-0.52,-0.02
2357030976,-0.87,-0.52,-0.02
2357032975,-0.86,-0.51,-0.00
2357034980,-0.86,-0.51,-0.00
2357036979,-0.86,-0.51,-0.00
2357038974,-0.86,-0.51,-0.00
2357040978,-0.86,-0.51,-0.00
2357043022,-0.87,-0.53,-0.04
2357045065,-0.87,-0.53,-0.04
2357047035,-0.87,-0.53,-0.04
2357049009,-0.87,-0.53,-0.04
2357051024,-0.87,-0.53,-0.04
2357053010,-0.86,-0.52,-0.03
2357055007,-0.86,-0.52,-0.03
2357057008,-0.86,-0.52,-0.03
2357059014,-0.86,-0.52,-0.03
2357060979,-0.86,-0.52,-0.03
2357062979,-0.86,-0.52,-0.03
2357064978,-0.85,-0.52,-0.04
2357066981,-0.85,-0.52,-0.04
2357068986,-0.85,-0.52,-0.04
2357070980,-0.85,-0.52,-0.04
2357072977,-0.85,-0.52,-0.04
2357074984,-0.85,-0.51,-0.06
2357076995,-0.85,-0.51,-0.06
2357079002,-0.85,-0.51,-0.06
2357081015,-0.85,-0.51,-0.06
2357082977,-0.85,-0.51,-0.06
2357084975,-0.86,-0.54,-0.06
2357087020,-0.86,-0.54,-0.06
2357089008,-0.86,-0.54,-0.06
2357091007,-0.86,-0.54,-0.06
2357093008,-0.86,-0.54,-0.06
2357095011,-0.86,-0.51,-0.03
2357097047,-0.86,-0.51,-0.03
2357099010,-0.86,-0.51,-0.03
2357101018,-0.86,-0.51,-0.03
2357102980,-0.86,-0.51,-0.03
2357104974,-0.87,-0.54,-0.09
2357106974,-0.87,-0.54,-0.09
2357108976,-0.87,-0.54,-0.09
2357110978,-0.87,-0.54,-0.09
2357112976,-0.87,-0.54,-0.09
2357114975,-0.83,-0.52,-0.02
2357116974,-0.83,-0.52,-0.02
2357118979,-0.83,-0.52,-0.02
2357120975,-0.83,-0.52,-0.02
2357122974,-0.83,-0.52,-0.02
2357124978,-0.85,-0.54,-0.06
2357127033,-0.85,-0.54,-0.06
2357129005,-0.85,-0.54,-0.06
2357131005,-0.85,-0.54,-0.06
2357133041,-0.85,-0.54,-0.06
2357135038,-0.82,-0.52,-0.14
2357137010,-0.82,-0.52,-0.14
2357139005,-0.82,-0.52,-0.14
2357141010,-0.82,-0.52,-0.14
2357142979,-0.82,-0.52,-0.14
2357144980,-0.84,-0.53,-0.05
2357146975,-0.84,-0.53,-0.05
2357148980,-0.84,-0.53,-0.05
2357151001,-0.84,-0.53,-0.05
2357152986,-0.84,-0.53,-0.05
2357154977,-0.84,-0.52,-0.11
2357156976,-0.84,-0.52,-0.11
2357158980,-0.84,-0.52,-0.11
2357160976,-0.84,-0.52,-0.11
2357162979,-0.84,-0.52,-0.11
2357164979,-0.85,-0.54,-0.12
2357167034,-0.85,-0.54,-0.12
2357168958,-0.85,-0.54,-0.12
2357170955,-0.85,-0.54,-0.12
2357172957,-0.85,-0.54,-0.12
2357174952,-0.87,-0.54,-0.10
2357176984,-0.87,-0.54,-0.10
2357178957,-0.87,-0.54,-0.10
2357180955,-0.87,-0.54,-0.10
2357183014,-0.87,-0.54,-0.10
2357184958,-0.85,-0.54,-0.08
2357186957,-0.85,-0.54,-0.08
2357188958,-0.85,-0.54,-0.08
2357190958,-0.85,-0.54,-0.08
2357192960,-0.85,-0.54,-0.08
2357194983,-0.83,-0.56,-0.12
2357197007,-0.83,-0.56,-0.12
2357198965,-0.83,-0.56,-0.12
2357200997,-0.83,-0.56,-0.12
2357202962,-0.83,-0.56,-0.12
2357204955,-0.83,-0.55,-0.10
2357206953,-0.83,-0.55,-0.10
2357208958,-0.83,-0.55,-0.10
2357210958,-0.83,-0.55,-0.10
2357212955,-0.83,-0.55,-0.10
2357214958,-0.82,-0.55,-0.08
2357301124,-0.85,-0.54,-0.07
2357303008,-0.85,-0.54,-0.07
2357305008,-0.85,-0.54,-0.07
2357307005,-0.85,-0.53,-0.07
2357309007,-0.85,-0.53,-0.07
2357311008,-0.85,-0.53,-0.07
2357313011,-0.85,-0.53,-0.07
2357315005,-0.85,-0.53,-0.07
2357317012,-0.86,-0.50,-0.06
2357318979,-0.86,-0.50,-0.06
2357320977,-0.86,-0.50,-0.06
2357322981,-0.86,-0.50,-0.06
2357324981,-0.86,-0.50,-0.06
2357327083,-0.86,-0.51,-0.05
2357328979,-0.86,-0.51,-0.05
2357330986,-0.86,-0.51,-0.05
2357332980,-0.86,-0.51,-0.05
2357334976,-0.86,-0.51,-0.05
2357336980,-0.86,-0.52,-0.04
2357339006,-0.86,-0.52,-0.04
2357341064,-0.86,-0.52,-0.04
2357343034,-0.86,-0.52,-0.04
2357345012,-0.86,-0.52,-0.04
2357347009,-0.86,-0.52,-0.05
2357349007,-0.86,-0.52,-0.05
2357351119,-0.86,-0.52,-0.05
2357353014,-0.86,-0.52,-0.05
2357355007,-0.86,-0.52,-0.05
2357357011,-0.84,-0.50,-0.05
2357358978,-0.84,-0.50,-0.05
2357360978,-0.84,-0.50,-0.05
2357362979,-0.84,-0.50,-0.05
2357364977,-0.84,-0.50,-0.05
2357366979,-0.86,-0.48,-0.05
2357368975,-0.86,-0.48,-0.05
2357370976,-0.86,-0.48,-0.05
2357372977,-0.86,-0.48,-0.05
2357374978,-0.86,-0.48,-0.05
2357377082,-0.87,-0.49,-0.04
2357378978,-0.87,-0.49,-0.04
2357380978,-0.87,-0.49,-0.04
2357383019,-0.87,-0.49,-0.04
2357385008,-0.87,-0.49,-0.04
2357387065,-0.88,-0.50,-0.04
2357389042,-0.88,-0.50,-0.04
2357391043,-0.88,-0.50,-0.04
2357393007,-0.88,-0.50,-0.04
2357395010,-0.88,-0.50,-0.04
2357397044,-0.86,-0.51,-0.04
2357399004,-0.86,-0.51,-0.04
2357401115,-0.86,-0.51,-0.04
2357402989,-0.86,-0.51,-0.04
2357404978,-0.86,-0.51,-0.04
2357406977,-0.85,-0.52,-0.04
2357408981,-0.85,-0.52,-0.04
2357410980,-0.85,-0.52,-0.04
2357412977,-0.85,-0.52,-0.04
2357414981,-0.85,-0.52,-0.04
2357416977,-0.86,-0.53,-0.04
2357418980,-0.86,-0.53,-0.04
2357420979,-0.86,-0.53,-0.04
2357423015,-0.86,-0.53,-0.04
2357425009,-0.86,-0.53,-0.04
2357427108,-0.84,-0.52,-0.04
2357429009,-0.84,-0.52,-0.04
2357431005,-0.84,-0.52,-0.04
2357433007,-0.84,-0.52,-0.04
2357435008,-0.84,-0.52,-0.04
2357437037,-0.84,-0.52,-0.04
2357439031,-0.84,-0.53,-0.05
2357440991,-0.84,-0.53,-0.05
2357442975,-0.84,-0.53,-0.05
2357444980,-0.84,-0.53,-0.05
2357446977,-0.84,-0.53,-0.05
2357448977,-0.84,-0.52,-0.06
2357451091,-0.84,-0.52,-0.06
2357452986,-0.84,-0.52,-0.06
2357454979,-0.84,-0.52,-0.06
2357456978,-0.84,-0.52,-0.06
2357458979,-0.84,-0.56,-0.04
2357460975,-0.84,-0.56,-0.04
2357463023,-0.84,-0.56,-0.04
2357465008,-0.84,-0.56,-0.04
2357467004,-0.84,-0.56,-0.04
2357469007,-0.84,-0.56,-0.06
2357471006,-0.84,-0.56,-0.06
2357473008,-0.84,-0.56,-0.06
2357475009,-0.84,-0.56,-0.06
2357477079,-0.84,-0.56,-0.06
2357478979,-0.84,-0.56,-0.07
2357480979,-0.84,-0.56,-0.07
2357482978,-0.84,-0.56,-0.07
2357484978,-0.84,-0.56,-0.07
2357486977,-0.84,-0.56,-0.07
2357489030,-0.84,-0.55,-0.08
2357490992,-0.84,-0.55,-0.08
2357492980,-0.84,-0.55,-0.08
2357494991,-0.84,-0.55,-0.08
2357497014,-0.84,-0.55,-0.08
2357499007,-0.83,-0.54,-0.10
2357501124,-0.83,-0.54,-0.10
2357503036,-0.83,-0.54,-0.10
2357505011,-0.83,-0.54,-0.10
2357507005,-0.83,-0.54,-0.10
2357509009,-0.84,-0.55,-0.09
2357511008,-0.84,-0.55,-0.09
2357513003,-0.84,-0.55,-0.09
2357515011,-0.84,-0.55,-0.09
2357516976,-0.84,-0.55,-0.09
2357518979,-0.84,-0.55,-0.09
2357520978,-0.84,-0.55,-0.09
2357522981,-0.84,-0.55,-0.09
2357524980,-0.84,-0.55,-0.09
2357527094,-0.84,-0.55,-0.09
2357528984,-0.84,-0.54,-0.11
2357530980,-0.84,-0.54,-0.11
2357532977,-0.84,-0.54,-0.11
2357534978,-0.84,-0.54,-0.11
2357536976,-0.84,-0.54,-0.11
2357538976,-0.85,-0.53,-0.12
2357540984,-0.85,-0.53,-0.12
2357543013,-0.85,-0.53,-0.12
2357545009,-0.85,-0.53,-0.12
2357547004,-0.85,-0.53,-0.12
2357549008,-0.85,-0.53,-0.10
2357551096,-0.85,-0.53,-0.10
2357553009,-0.85,-0.53,-0.10
2357555007,-0.85,-0.53,-0.10
2357556979,-0.85,-0.53,-0.10
2357558988,-0.85,-0.53,-0.10
2357561062,-0.85,-0.53,-0.10
2357563016,-0.85,-0.53,-0.10
2357564978,-0.85,-0.53,-0.10
2357566975,-0.85,-0.53,-0.10
2357568980,-0.84,-0.53,-0.10
2357570978,-0.84,-0.53,-0.10
2357572979,-0.84,-0.53,-0.10
2357574975,-0.84,-0.53,-0.10
2357577095,-0.84,-0.53,-0.10
2357578974,-0.84,-0.53,-0.09
2357580976,-0.84,-0.53,-0.09
2357583023,-0.84,-0.53,-0.09
2357585004,-0.84,-0.53,-0.09
2357587008,-0.84,-0.53,-0.09
2357589009,-0.84,-0.54,-0.08
2357591037,-0.84,-0.54,-0.08
2357593056,-0.84,-0.54,-0.08
2357595010,-0.84,-0.54,-0.08
2357597037,-0.84,-0.54,-0.08
2357598974,-0.85,-0.54,-0.08
2357601101,-0.85,-0.54,-0.08
2357602986,-0.85,-0.54,-0.08
2357604977,-0.85,-0.54,-0.08
2357606976,-0.85,-0.54,-0.08
2357608979,-0.84,-0.54,-0.07
2357610976,-0.84,-0.54,-0.07
2357612977,-0.84,-0.54,-0.07
2357614976,-0.84,-0.54,-0.07
2357616975,-0.84,-0.54,-0.07
2357618974,-0.84,-0.54,-0.07
2357620976,-0.84,-0.53,-0.06
2357623015,-0.84,-0.53,-0.06
2357625005,-0.84,-0.53,-0.06
2357627107,-0.84,-0.53,-0.06
2357629009,-0.84,-0.53,-0.06
2357631022,-0.83,-0.54,-0.05
2357633061,-0.83,-0.54,-0.05
2357635032,-0.83,-0.54,-0.05
2357637008,-0.83,-0.54,-0.05
2357639007,-0.83,-0.54,-0.05
2357640984,-0.84,-0.55,-0.04
2357642981,-0.84,-0.55,-0.04
2357644979,-0.84,-0.55,-0.04
2357646977,-0.84,-0.55,-0.04
2357648975,-0.84,-0.55,-0.04
2357651092,-0.84,-0.55,-0.04
2357652990,-0.84,-0.55,-0.04
2357654980,-0.84,-0.55,-0.04
2357656976,-0.84,-0.55,-0.04
2357658981,-0.84,-0.55,-0.04
2357660975,-0.84,-0.54,-0.04
2357663012,-0.84,-0.54,-0.04
2357665010,-0.84,-0.54,-0.04
2357667010,-0.84,-0.54,-0.04
2357669004,-0.84,-0.54,-0.04
2357671009,-0.86,-0.54,-0.04
2357673006,-0.86,-0.54,-0.04
2357674993,-0.86,-0.54,-0.04
2357677079,-0.86,-0.54,-0.04
2357678980,-0.86,-0.54,-0.04
2357680977,-0.85,-0.54,-0.03
2357682977,-0.85,-0.54,-0.03
2357684977,-0.85,-0.54,-0.03
2357686990,-0.85,-0.54,-0.03
2357689054,-0.85,-0.54,-0.03
2357691006,-0.85,-0.52,-0.04
2357692980,-0.85,-0.52,-0.04
2357695016,-0.85,-0.52,-0.04
2357697011,-0.85,-0.52,-0.04
2357698979,-0.85,-0.52,-0.04
2357701110,-0.84,-0.52,-0.06
2357703028,-0.84,-0.52,-0.06
2357705009,-0.84,-0.52,-0.06
2357707006,-0.84,-0.52,-0.06
2357709007,-0.84,-0.52,-0.06
2357711005,-0.85,-0.50,-0.07
2357713010,-0.85,-0.50,-0.07
2357715005,-0.85,-0.50,-0.07
2357716980,-0.85,-0.50,-0.07
2357718980,-0.85,-0.50,-0.07
2357720979,-0.87,-0.51,-0.07
2357722979,-0.87,-0.51,-0.07
2357724981,-0.87,-0.51,-0.07
2357727078,-0.87,-0.51,-0.07
2357728984,-0.87,-0.51,-0.07
2357730979,-0.89,-0.49,-0.05
2357732978,-0.89,-0.49,-0.05
2357734978,-0.89,-0.49,-0.05
2357737005,-0.89,-0.49,-0.05
2357739069,-0.89,-0.49,-0.05
2357741018,-0.88,-0.50,-0.05
2357743022,-0.88,-0.50,-0.05
2357745009,-0.88,-0.50,-0.05
2357747007,-0.88,-0.50,-0.05
2357749015,-0.88,-0.50,-0.05
2357751114,-0.87,-0.50,-0.08
2357753014,-0.87,-0.50,-0.08
2357755010,-0.87,-0.50,-0.08
2357756979,-0.87,-0.50,-0.08
2357758981,-0.87,-0.50,-0.08
2357760976,-0.85,-0.50,-0.07
2357762981,-0.85,-0.50,-0.07
2357764979,-0.85,-0.50,-0.07
2357766979,-0.85,-0.50,-0.07
2357768978,-0.85,-0.50,-0.07
2357770977,-0.85,-0.50,-0.06
2357772984,-0.85,-0.50,-0.06
2357774981,-0.85,-0.50,-0.06
2357777081,-0.85,-0.50,-0.06
2357778979,-0.85,-0.50,-0.06
2357780976,-0.85,-0.50,-0.08
2357783018,-0.85,-0.50,-0.08
2357785008,-0.85,-0.50,-0.08
2357787006,-0.85,-0.50,-0.08
2357789011,-0.85,-0.50,-0.08
2357791007,-0.86,-0.52,-0.07
2357793008,-0.86,-0.52,-0.07
2357795023,-0.86,-0.52,-0.07
2357797043,-0.86,-0.52,-0.07
2357799063,-0.86,-0.52,-0.07
2357801120,-0.85,-0.53,-0.05
2357802988,-0.85,-0.53,-0.05
2357804979,-0.85,-0.53,-0.05
2357806977,-0.85,-0.53,-0.05
2357808977,-0.85,-0.53,-0.05
2357810977,-0.85,-0.53,-0.05
2357812978,-0.84,-0.55,-0.06
2357814976,-0.84,-0.55,-0.06
2357816977,-0.84,-0.55,-0.06
2357818977,-0.84,-0.55,-0.06
2357820976,-0.84,-0.55,-0.06
2357823023,-0.84,-0.55,-0.05
2357825007,-0.84,-0.55,-0.05
2357827108,-0.84,-0.55,-0.05
2357829008,-0.84,-0.55,-0.05
2357831009,-0.84,-0.55,-0.05
2357833005,-0.82,-0.57,-0.07
2357835010,-0.82,-0.57,-0.07
2357836979,-0.82,-0.57,-0.07
2357838979,-0.82,-0.57,-0.07
2357840975,-0.82,-0.57,-0.07
2357842976,-0.81,-0.56,-0.07
2357844977,-0.81,-0.56,-0.07
2357847057,-0.81,-0.56,-0.07
2357849022,-0.81,-0.56,-0.07
2357851093,-0.81,-0.56,-0.07
2357852992,-0.82,-0.57,-0.08
2357854990,-0.82,-0.57,-0.08
2357856979,-0.82,-0.57,-0.08
2357858977,-0.82,-0.57,-0.08
2357860977,-0.82,-0.57,-0.08
2357863024,-0.84,-0.58,-0.07
2357865008,-0.84,-0.58,-0.07
2357867008,-0.84,-0.58,-0.07
2357869010,-0.84,-0.58,-0.07
2357871008,-0.84,-0.58,-0.07
2357873008,-0.83,-0.57,-0.08
2357875010,-0.83,-0.57,-0.08
2357877080,-0.83,-0.57,-0.08
2357878979,-0.83,-0.57,-0.08
2357880978,-0.83,-0.57,-0.08
2357882979,-0.84,-0.56,-0.09
2357884980,-0.84,-0.56,-0.09
2357886977,-0.84,-0.56,-0.09
2357888977,-0.84,-0.56,-0.09
2357890978,-0.84,-0.56,-0.09
2357892980,-0.84,-0.55,-0.10
2357894996,-0.84,-0.55,-0.10
2357897008,-0.84,-0.55,-0.10
2357899023,-0.84,-0.55,-0.10
2357901098,-0.84,-0.55,-0.10
2357903030,-0.83,-0.54,-0.09
2357905006,-0.83,-0.54,-0.09
2357907039,-0.83,-0.54,-0.09
2357909036,-0.83,-0.54,-0.09
2357911029,-0.83,-0.54,-0.09
2357913008,-0.84,-0.52,-0.09
2357915009,-0.84,-0.52,-0.09
2357917009,-0.84,-0.52,-0.09
2357919015,-0.84,-0.52,-0.09
2357920986,-0.84,-0.52,-0.09
2357922981,-0.84,-0.53,-0.10
2357924977,-0.84,-0.53,-0.10
2357927093,-0.84,-0.53,-0.10
2357928978,-0.84,-0.53,-0.10
2357930977,-0.84,-0.53,-0.10
2357932977,-0.86,-0.52,-0.09
2357934978,-0.86,-0.52,-0.09
2357936979,-0.86,-0.52,-0.09
2357938976,-0.86,-0.52,-0.09
2357940976,-0.86,-0.52,-0.09
2357943016,-0.87,-0.52,-0.09
2357945009,-0.87,-0.52,-0.09
2357947009,-0.87,-0.52,-0.09
2357949012,-0.87,-0.52,-0.09
2357951097,-0.87,-0.52,-0.09
2357953028,-0.86,-0.51,-0.07
2357955067,-0.86,-0.51,-0.07
2357957040,-0.86,-0.51,-0.07
2357958994,-0.86,-0.51,-0.07
2357960981,-0.86,-0.51,-0.07
2357962980,-0.84,-0.51,-0.08
2357964980,-0.84,-0.51,-0.08
2357966979,-0.84,-0.51,-0.08
2357968975,-0.84,-0.51,-0.08
2357970979,-0.84,-0.51,-0.08
2357972977,-0.84,-0.53,-0.06
2357974977,-0.84,-0.53,-0.06
2357977092,-0.84,-0.53,-0.06
2357978976,-0.84,-0.53,-0.06
2357980981,-0.84,-0.53,-0.06
2357983017,-0.84,-0.53,-0.06
2357985008,-0.84,-0.53,-0.06
2357987009,-0.84,-0.53,-0.06
2357989007,-0.84,-0.53,-0.06
2357991007,-0.84,-0.53,-0.06
2357993005,-0.84,-0.53,-0.06
2357995011,-0.87,-0.55,-0.04
2357997014,-0.87,-0.55,-0.04
2357998994,-0.87,-0.55,-0.04
2358001116,-0.87,-0.55,-0.04
2358002999,-0.87,-0.55,-0.04
2358004979,-0.84,-0.51,-0.05
2358006979,-0.84,-0.51,-0.05
2358008976,-0.84,-0.51,-0.05
2358010977,-0.84,-0.51,-0.05
2358012977,-0.84,-0.51,-0.05
2358015076,-0.85,-0.51,-0.04
2358017011,-0.85,-0.51,-0.04
2358018979,-0.85,-0.51,-0.04
2358020979,-0.85,-0.51,-0.04
2358023023,-0.85,-0.51,-0.04
2358025008,-0.85,-0.50,-0.03
2358027111,-0.85,-0.50,-0.03
2358029006,-0.85,-0.50,-0.03
2358031006,-0.85,-0.50,-0.03
2358033007,-0.85,-0.50,-0.03
2358035011,-0.85,-0.54,-0.03
2358036981,-0.85,-0.54,-0.03
2358038980,-0.85,-0.54,-0.03
2358040979,-0.85,-0.54,-0.03
2358042979,-0.85,-0.54,-0.03
2358044980,-0.83,-0.54,-0.06
2358046978,-0.83,-0.54,-0.06
2358048979,-0.83,-0.54,-0.06
2358051080,-0.83,-0.54,-0.06
2358052990,-0.83,-0.54,-0.06
2358054981,-0.84,-0.54,-0.05
2358056979,-0.84,-0.54,-0.05
2358058979,-0.84,-0.54,-0.05
2358060976,-0.84,-0.54,-0.05
2358063095,-0.84,-0.54,-0.05
2358065047,-0.84,-0.55,-0.04
2358067008,-0.84,-0.55,-0.04
2358069005,-0.84,-0.55,-0.04
2358071006,-0.84,-0.55,-0.04
2358073011,-0.84,-0.55,-0.04
2358075005,-0.85,-0.55,-0.07
2358077121,-0.85,-0.55,-0.07
2358078992,-0.85,-0.55,-0.07
2358080980,-0.85,-0.55,-0.07
2358082979,-0.85,-0.55,-0.07
2358084979,-0.85,-0.53,-0.09
2358086976,-0.85,-0.53,-0.09
2358088976,-0.85,-0.53,-0.09
2358090976,-0.85,-0.53,-0.09
2358092983,-0.85,-0.53,-0.09
2358094994,-0.85,-0.52,-0.08
2358097015,-0.85,-0.52,-0.08
2358098983,-0.85,-0.52,-0.08
2358101090,-0.85,-0.52,-0.08
2358103015,-0.85,-0.52,-0.08
2358105058,-0.85,-0.53,-0.10
2358107028,-0.85,-0.53,-0.10
2358109035,-0.85,-0.53,-0.10
2358111028,-0.85,-0.53,-0.10
2358113007,-0.85,-0.53,-0.10
2358115008,-0.86,-0.51,-0.06
2358117010,-0.86,-0.51,-0.06
2358119008,-0.86,-0.51,-0.06
2358121010,-0.86,-0.51,-0.06
2358122978,-0.86,-0.51,-0.06
2358124977,-0.85,-0.52,-0.07
2358127092,-0.85,-0.52,-0.07
2358128980,-0.85,-0.52,-0.07
2358130975,-0.85,-0.52,-0.07
2358132980,-0.85,-0.52,-0.07
2358134978,-0.86,-0.50,-0.06
2358136979,-0.86,-0.50,-0.06
2358138978,-0.86,-0.50,-0.06
2358140981,-0.86,-0.50,-0.06
2358142977,-0.86,-0.50,-0.06
2358145014,-0.86,-0.51,-0.06
2358147009,-0.86,-0.51,-0.06
2358149003,-0.86,-0.51,-0.06
2358151101,-0.86,-0.51,-0.06
2358153014,-0.86,-0.51,-0.06
2358155012,-0.84,-0.53,-0.09
2358157064,-0.84,-0.53,-0.09
2358159037,-0.84,-0.53,-0.09
2358160977,-0.84,-0.53,-0.09
2358162980,-0.84,-0.53,-0.09
2358164977,-0.84,-0.55,-0.05
2358166978,-0.84,-0.55,-0.05
2358168975,-0.84,-0.55,-0.05
2358170980,-0.84,-0.55,-0.05
2358172977,-0.84,-0.55,-0.05
2358174976,-0.84,-0.57,-0.06
2358177095,-0.84,-0.57,-0.06
2358178980,-0.84,-0.57,-0.06
2358180974,-0.84,-0.57,-0.06
2358182986,-0.84,-0.57,-0.06
2358185018,-0.84,-0.57,-0.06
2358187005,-0.84,-0.52,-0.06
2358189008,-0.84,-0.52,-0.06
2358191012,-0.84,-0.52,-0.06
2358193005,-0.84,-0.52,-0.06
2358195013,-0.84,-0.52,-0.06
2358197043,-0.85,-0.51,-0.07
2358198979,-0.85,-0.51,-0.07
2358201101,-0.85,-0.51,-0.07
2358202984,-0.85,-0.51,-0.07
2358204975,-0.85,-0.51,-0.07
2358206979,-0.86,-0.50,-0.06
2358208976,-0.86,-0.50,-0.06
2358211028,-0.86,-0.50,-0.06
2358212979,-0.86,-0.50,-0.06
2358214977,-0.86,-0.50,-0.06
2358217012,-0.86,-0.52,-0.06
2358219039,-0.86,-0.52,-0.06
2358220997,-0.86,-0.52,-0.06
2358222974,-0.86,-0.52,-0.06
2358225025,-0.86,-0.52,-0.06
2358227168,-0.84,-0.53,-0.07
2358229017,-0.84,-0.53,-0.07
2358231005,-0.84,-0.53,-0.07
2358233005,-0.84,-0.53,-0.07
2358235007,-0.84,-0.53,-0.07
2358237006,-0.86,-0.52,-0.05
2358239013,-0.86,-0.52,-0.05
2358240979,-0.86,-0.52,-0.05
2358242979,-0.86,-0.52,-0.05
2358244977,-0.86,-0.52,-0.05
2358246979,-0.85,-0.54,-0.06
2358248992,-0.85,-0.54,-0.06
2358251081,-0.85,-0.54,-0.06
2358252987,-0.85,-0.54,-0.06
2358254979,-0.85,-0.54,-0.06
2358256976,-0.84,-0.54,-0.06
2358258980,-0.84,-0.54,-0.06
2358260980,-0.84,-0.54,-0.06
2358262980,-0.84,-0.54,-0.06
2358265015,-0.84,-0.54,-0.06
2358267011,-0.83,-0.54,-0.09
2358269004,-0.83,-0.54,-0.09
2358271005,-0.83,-0.54,-0.09
2358273007,-0.83,-0.54,-0.09
2358275056,-0.83,-0.54,-0.09
2358277147,-0.84,-0.56,-0.06
2358279010,-0.84,-0.56,-0.06
2358281009,-0.84,-0.56,-0.06
2358282981,-0.84,-0.56,-0.06
2358284977,-0.84,-0.56,-0.06
2358286976,-0.84,-0.59,-0.08
2358288981,-0.84,-0.59,-0.08
2358290974,-0.84,-0.59,-0.08
2358292982,-0.84,-0.59,-0.08
2358294994,-0.84,-0.59,-0.08
2358297010,-0.83,-0.59,-0.07
2358298981,-0.83,-0.59,-0.07
2358301105,-0.83,-0.59,-0.07
2358302987,-0.83,-0.59,-0.07
2358305016,-0.83,-0.59,-0.07
2358307030,-0.82,-0.57,-0.08
2358309053,-0.82,-0.57,-0.08
2358311009,-0.82,-0.57,-0.08
2358313021,-0.82,-0.57,-0.08
2358315009,-0.82,-0.57,-0.08
2358317008,-0.84,-0.55,-0.09
2358318979,-0.84,-0.55,-0.09
2358320980,-0.84,-0.55,-0.09
2358322975,-0.84,-0.55,-0.09
2358324978,-0.84,-0.55,-0.09
2358327099,-0.85,-0.52,-0.09
2358329052,-0.85,-0.52,-0.09
2358331019,-0.85,-0.52,-0.09
2358332977,-0.85,-0.52,-0.09
2358334976,-0.85,-0.52,-0.09
2358336975,-0.85,-0.50,-0.09
2358338978,-0.85,-0.50,-0.09
2358340977,-0.85,-0.50,-0.09
2358342975,-0.85,-0.50,-0.09
2358345021,-0.85,-0.50,-0.09
2358347005,-0.86,-0.50,-0.10
2358349005,-0.86,-0.50,-0.10
2358351120,-0.86,-0.50,-0.10
2358353012,-0.86,-0.50,-0.10
2358355005,-0.86,-0.50,-0.10
2358357008,-0.86,-0.51,-0.09
2358358979,-0.86,-0.51,-0.09
2358360979,-0.86,-0.51,-0.09
2358362981,-0.86,-0.51,-0.09
2358364981,-0.86,-0.51,-0.09
2358366979,-0.86,-0.51,-0.09
2358368979,-0.86,-0.52,-0.09
2358370981,-0.86,-0.52,-0.09
2358372998,-0.86,-0.52,-0.09
2358375102,-0.86,-0.52,-0.09
2358377128,-0.86,-0.52,-0.09
2358378979,-0.85,-0.52,-0.08
2358380979,-0.85,-0.52,-0.08
2358382977,-0.85,-0.52,-0.08
2358385025,-0.85,-0.52,-0.08
2358387006,-0.85,-0.52,-0.08
2358389008,-0.85,-0.53,-0.09
2358391008,-0.85,-0.53,-0.09
2358393007,-0.85,-0.53,-0.09
2358395010,-0.85,-0.53,-0.09
2358397036,-0.85,-0.53,-0.09
2358398981,-0.84,-0.53,-0.08
2358401099,-0.84,-0.53,-0.08
2358402987,-0.84,-0.53,-0.08
2358404977,-0.84,-0.53,-0.08
2358406977,-0.84,-0.53,-0.08
2358408975,-0.86,-0.53,-0.08
2358411024,-0.86,-0.53,-0.08
2358412977,-0.86,-0.53,-0.08
2358414977,-0.86,-0.53,-0.08
2358416979,-0.86,-0.53,-0.08
2358418975,-0.86,-0.52,-0.05
2358420981,-0.86,-0.52,-0.05
2358422977,-0.86,-0.52,-0.05
2358425048,-0.86,-0.52,-0.05
2358427173,-0.86,-0.52,-0.05
2358429029,-0.86,-0.51,-0.05
2358431008,-0.86,-0.51,-0.05
2358433011,-0.86,-0.51,-0.05
2358435009,-0.86,-0.51,-0.05
2358437007,-0.86,-0.51,-0.05
2358439007,-0.86,-0.51,-0.03
2358440995,-0.86,-0.51,-0.03
2358442976,-0.86,-0.51,-0.03
2358444978,-0.86,-0.51,-0.03
2358446981,-0.86,-0.51,-0.03
2358448975,-0.86,-0.52,-0.04
2358451093,-0.86,-0.52,-0.04
2358452986,-0.86,-0.52,-0.04
2358454978,-0.86,-0.52,-0.04
2358456976,-0.86,-0.52,-0.04
2358458977,-0.86,-0.52,-0.02
2358460984,-0.86,-0.52,-0.02
2358462979,-0.86,-0.52,-0.02
2358465016,-0.86,-0.52,-0.02
2358467006,-0.86,-0.52,-0.02
2358469005,-0.84,-0.52,-0.01
2358471010,-0.84,-0.52,-0.01
2358473009,-0.84,-0.52,-0.01
2358475009,-0.84,-0.52,-0.01
2358477087,-0.84,-0.52,-0.01
2358478977,-0.84,-0.53,-0.01
2358480977,-0.84,-0.53,-0.01
2358483144,-0.84,-0.53,-0.01
2358485015,-0.84,-0.53,-0.01
2358486978,-0.84,-0.53,-0.01
2358488980,-0.86,-0.50,0.01
2358490977,-0.86,-0.50,0.01
2358492982,-0.86,-0.50,0.01
2358494995,-0.86,-0.50,0.01
2358497011,-0.86,-0.50,0.01
2358498996,-0.79,-0.41,-0.08
2358501107,-0.79,-0.41,-0.08
2358502985,-0.79,-0.41,-0.08
2358505023,-0.79,-0.41,-0.08
2358507008,-0.79,-0.41,-0.08
2358509009,-0.90,-0.50,-0.05
2358511010,-0.90,-0.50,-0.05
2358513044,-0.90,-0.50,-0.05
2358515029,-0.90,-0.50,-0.05
2358517008,-0.90,-0.50,-0.05
2358519006,-0.82,-0.45,-0.09
2358520979,-0.82,-0.45,-0.09
2358522976,-0.82,-0.45,-0.09
2358524979,-0.82,-0.45,-0.09
2358527090,-0.82,-0.45,-0.09
2358529059,-0.88,-0.61,-0.10
2358531023,-0.88,-0.61,-0.10
2358532978,-0.88,-0.61,-0.10
2358534976,-0.88,-0.61,-0.10
2358536975,-0.88,-0.61,-0.10
2358538980,-0.84,-0.58,-0.10
2358540977,-0.84,-0.58,-0.10
2358542977,-0.84,-0.58,-0.10
2358545019,-0.84,-0.58,-0.10
2358547005,-0.84,-0.58,-0.10
2358549004,-0.85,-0.60,-0.10
2358551116,-0.85,-0.60,-0.10
2358553015,-0.85,-0.60,-0.10
2358555007,-0.85,-0.60,-0.10
2358557009,-0.85,-0.60,-0.10
2358558975,-0.85,-0.60,-0.10
2358560975,-0.82,-0.61,-0.11
2358562980,-0.82,-0.61,-0.11
2358564981,-0.82,-0.61,-0.11
2358566977,-0.82,-0.61,-0.11
2358568980,-0.82,-0.61,-0.11
2358570974,-0.82,-0.66,-0.12
2358572975,-0.82,-0.66,-0.12
2358574998,-0.82,-0.66,-0.12
2358577172,-0.82,-0.66,-0.12
2358579009,-0.82,-0.66,-0.12
2358580980,-0.84,-0.65,-0.06
2358582976,-0.84,-0.65,-0.06
2358585022,-0.84,-0.65,-0.06
2358587006,-0.84,-0.65,-0.06
2358589006,-0.84,-0.65,-0.06
2358591009,-0.85,-0.61,-0.07
2358593006,-0.85,-0.61,-0.07
2358595008,-0.85,-0.61,-0.07
2358597039,-0.85,-0.61,-0.07
2358598980,-0.85,-0.61,-0.07
2358601102,-0.85,-0.55,-0.12
2358602985,-0.85,-0.55,-0.12
2358604979,-0.85,-0.55,-0.12
2358606976,-0.85,-0.55,-0.12
2358608975,-0.85,-0.55,-0.12
2358610977,-0.84,-0.48,-0.14
2358612976,-0.84,-0.48,-0.14
2358615000,-0.84,-0.48,-0.14
2358617024,-0.84,-0.48,-0.14
2358618979,-0.84,-0.48,-0.14
2358620978,-0.84,-0.46,-0.12
2358623033,-0.84,-0.46,-0.12
2358625031,-0.84,-0.46,-0.12
2358627138,-0.84,-0.46,-0.12
2358629008,-0.84,-0.46,-0.12
2358631005,-0.88,-0.47,-0.05
2358633010,-0.88,-0.47,-0.05
2358635005,-0.88,-0.47,-0.05
2358637009,-0.88,-0.47,-0.05
2358639008,-0.88,-0.47,-0.05
2358641017,-0.89,-0.48,-0.09
2358642980,-0.89,-0.48,-0.09
2358644976,-0.89,-0.48,-0.09
2358646977,-0.89,-0.48,-0.09
2358648977,-0.89,-0.48,-0.09
2358651081,-0.87,-0.47,-0.09
2358652987,-0.87,-0.47,-0.09
2358654979,-0.87,-0.47,-0.09
2358656980,-0.87,-0.47,-0.09
2358658976,-0.87,-0.47,-0.09
2358660981,-0.86,-0.49,-0.10
2358662978,-0.86,-0.49,-0.10
2358664979,-0.86,-0.49,-0.10
2358667012,-0.86,-0.49,-0.10
2358669006,-0.86,-0.49,-0.10
2358671025,-0.87,-0.52,-0.08
2358673052,-0.87,-0.52,-0.08
2358675033,-0.87,-0.52,-0.08
2358677123,-0.87,-0.52,-0.08
2358679005,-0.87,-0.52,-0.08
2358681009,-0.85,-0.50,-0.06
2358682995,-0.85,-0.50,-0.06
2358684981,-0.85,-0.50,-0.06
2358686981,-0.85,-0.50,-0.06
2358688977,-0.85,-0.50,-0.06
2358690984,-0.84,-0.52,-0.07
2358692981,-0.84,-0.52,-0.07
2358694991,-0.84,-0.52,-0.07
2358697011,-0.84,-0.52,-0.07
2358698981,-0.84,-0.52,-0.07
2358701100,-0.84,-0.52,-0.07
2358702987,-0.84,-0.52,-0.07
2358704976,-0.84,-0.52,-0.07
2358707018,-0.84,-0.52,-0.07
2358709009,-0.84,-0.52,-0.07
2358711002,-0.86,-0.54,-0.05
2358713005,-0.86,-0.54,-0.05
2358715007,-0.86,-0.54,-0.05
2358717007,-0.86,-0.54,-0.05
2358719071,-0.86,-0.54,-0.05
2358721053,-0.86,-0.52,-0.05
2358723026,-0.86,-0.52,-0.05
2358724979,-0.86,-0.52,-0.05
2358727092,-0.86,-0.52,-0.05
2358728975,-0.86,-0.52,-0.05
2358730976,-0.87,-0.52,-0.05
2358732975,-0.87,-0.52,-0.05
2358734975,-0.87,-0.52,-0.05
2358736974,-0.87,-0.52,-0.05
2358738974,-0.87,-0.52,-0.05
2358740974,-0.87,-0.52,-0.05
2358742976,-0.86,-0.50,-0.05
2358744975,-0.86,-0.50,-0.05
2358747019,-0.86,-0.50,-0.05
2358749005,-0.86,-0.50,-0.05
2358751099,-0.86,-0.50,-0.05
2358753010,-0.85,-0.50,-0.07
2358755008,-0.85,-0.50,-0.07
2358757010,-0.85,-0.50,-0.07
2358759013,-0.85,-0.50,-0.07
2358760978,-0.85,-0.50,-0.07
2358762978,-0.86,-0.51,-0.08
2358764976,-0.86,-0.51,-0.08
2358766981,-0.86,-0.51,-0.08
2358769062,-0.86,-0.51,-0.08
2358771022,-0.86,-0.51,-0.08
2358772981,-0.86,-0.52,-0.07
2358774974,-0.86,-0.52,-0.07
2358777093,-0.86,-0.52,-0.07
2358778974,-0.86,-0.52,-0.07
2358780973,-0.86,-0.52,-0.07
2358782974,-0.87,-0.52,-0.08
2358784974,-0.87,-0.52,-0.08
2358787025,-0.87,-0.52,-0.08
2358789002,-0.87,-0.52,-0.08
2358791009,-0.87,-0.52,-0.08
2358793008,-0.87,-0.52,-0.07
2358795011,-0.87,-0.52,-0.07
2358797036,-0.87,-0.52,-0.07
2358799010,-0.87,-0.52,-0.07
2358801101,-0.87,-0.52,-0.07
2358802986,-0.87,-0.51,-0.07
2358804978,-0.87,-0.51,-0.07
2358806976,-0.87,-0.51,-0.07
2358808979,-0.87,-0.51,-0.07
2358810976,-0.87,-0.51,-0.07
2358812977,-0.87,-0.50,-0.06
2358814975,-0.87,-0.50,-0.06
2358816979,-0.87,-0.50,-0.06
2358818977,-0.87,-0.50,-0.06
2358820982,-0.87,-0.50,-0.06
2358823036,-0.86,-0.50,-0.05
2358824978,-0.86,-0.50,-0.05
2358827176,-0.86,-0.50,-0.05
2358829028,-0.86,-0.50,-0.05
2358831015,-0.86,-0.50,-0.05
2358833009,-0.85,-0.50,-0.05
2358835009,-0.85,-0.50,-0.05
2358837008,-0.85,-0.50,-0.05
2358839007,-0.85,-0.50,-0.05
2358841009,-0.85,-0.50,-0.05
2358842993,-0.85,-0.51,-0.05
2358844978,-0.85,-0.51,-0.05
2358846975,-0.85,-0.51,-0.05
2358848978,-0.85,-0.51,-0.05
2358851089,-0.85,-0.51,-0.05
2358852987,-0.86,-0.51,-0.05
2358854976,-0.86,-0.51,-0.05
2358856974,-0.86,-0.51,-0.05
2358858976,-0.86,-0.51,-0.05
2358860974,-0.86,-0.51,-0.05
2358862979,-0.88,-0.52,-0.06
2358864976,-0.88,-0.52,-0.06
2358867014,-0.88,-0.52,-0.06
2358869009,-0.88,-0.52,-0.06
2358871004,-0.88,-0.52,-0.06
2358873006,-0.88,-0.51,-0.06
2358875009,-0.88,-0.51,-0.06
2358877108,-0.88,-0.51,-0.06
2358879007,-0.88,-0.51,-0.06
2358880977,-0.88,-0.51,-0.06
2358882979,-0.87,-0.50,-0.06
2358884976,-0.87,-0.50,-0.06
2358886974,-0.87,-0.50,-0.06
2358888975,-0.87,-0.50,-0.06
2358890980,-0.87,-0.50,-0.06
2358892979,-0.85,-0.51,-0.06
2358894991,-0.85,-0.51,-0.06
2358897015,-0.85,-0.51,-0.06
2358898980,-0.85,-0.51,-0.06
2358901099,-0.85,-0.51,-0.06
2358902989,-0.84,-0.51,-0.07
2358904979,-0.84,-0.51,-0.07
2358907020,-0.84,-0.51,-0.07
2358909009,-0.84,-0.51,-0.07
2358911006,-0.84,-0.51,-0.07
2358913040,-0.85,-0.52,-0.08
2358915049,-0.85,-0.52,-0.08
2358917019,-0.85,-0.52,-0.08
2358919009,-0.85,-0.52,-0.08
2358921007,-0.85,-0.52,-0.08
2358923040,-0.86,-0.53,-0.10
2358924981,-0.86,-0.53,-0.10
2358927099,-0.86,-0.53,-0.10
2358928984,-0.86,-0.53,-0.10
2358930975,-0.86,-0.53,-0.10
2358932977,-0.86,-0.53,-0.10
2358934977,-0.88,-0.54,-0.10
2358936977,-0.88,-0.54,-0.10
2358938974,-0.88,-0.54,-0.10
2358940980,-0.88,-0.54,-0.10
2358942978,-0.88,-0.54,-0.10
2358944977,-0.89,-0.54,-0.11
2358947017,-0.89,-0.54,-0.11
2358949006,-0.89,-0.54,-0.11
2358951095,-0.89,-0.54,-0.11
2358953009,-0.89,-0.54,-0.11
2358955012,-0.91,-0.54,-0.12
2358957006,-0.91,-0.54,-0.12
2358959012,-0.91,-0.54,-0.12
2358960981,-0.91,-0.54,-0.12
2358962980,-0.91,-0.54,-0.12
2358964979,-0.91,-0.54,-0.13
2358967110,-0.91,-0.54,-0.13
2358969018,-0.91,-0.54,-0.13
2358970979,-0.91,-0.54,-0.13
2358972979,-0.91,-0.54,-0.13
2358974979,-0.90,-0.54,-0.16
2358977096,-0.90,-0.54,-0.16
2358978976,-0.90,-0.54,-0.16
2358980976,-0.90,-0.54,-0.16
2358982975,-0.90,-0.54,-0.16
2358984977,-0.89,-0.53,-0.14
2358987019,-0.89,-0.53,-0.14
2358989005,-0.89,-0.53,-0.14
2358991008,-0.89,-0.53,-0.14
2358993006,-0.89,-0.53,-0.14
2358995010,-0.89,-0.52,-0.16
2358997045,-0.89,-0.52,-0.16
2358999014,-0.89,-0.52,-0.16
2359001101,-0.89,-0.52,-0.16
2359002986,-0.89,-0.52,-0.16
2359004979,-0.95,-0.55,-0.23
2359006979,-0.95,-0.55,-0.23
2359008978,-0.95,-0.55,-0.23
2359010976,-0.95,-0.55,-0.23
2359013071,-0.95,-0.55,-0.23
2359015017,-0.98,-0.48,-0.07
2359016978,-0.98,-0.48,-0.07
2359018976,-0.98,-0.48,-0.07
2359020978,-0.98,-0.48,-0.07
2359022979,-0.98,-0.48,-0.07
2359025025,-1.00,-0.59,-0.22
2359027132,-1.00,-0.59,-0.22
2359029005,-1.00,-0.59,-0.22
2359031007,-1.00,-0.59,-0.22
2359033004,-1.00,-0.59,-0.22
2359035004,-1.06,-0.57,-0.23
2359037008,-1.06,-0.57,-0.23
2359039008,-1.06,-0.57,-0.23
2359040976,-1.06,-0.57,-0.23
2359042984,-1.06,-0.57,-0.23
2359044978,-1.06,-0.59,-0.16
2359046976,-1.06,-0.59,-0.16
2359048975,-1.06,-0.59,-0.16
2359051078,-1.06,-0.59,-0.16
2359052987,-1.06,-0.59,-0.16
2359054976,-1.05,-0.53,-0.12
2359056980,-1.05,-0.53,-0.12
2359058978,-1.05,-0.53,-0.12
2359060984,-1.05,-0.53,-0.12
2359062981,-1.05,-0.53,-0.12
2359064980,-1.06,-0.60,-0.17
2359067010,-1.06,-0.60,-0.17
2359069009,-1.06,-0.60,-0.17
2359071008,-1.06,-0.60,-0.17
2359073006,-1.06,-0.60,-0.17
2359075054,-1.07,-0.57,-0.15
2359077145,-1.07,-0.57,-0.15
2359079017,-1.07,-0.57,-0.15
2359081005,-1.07,-0.57,-0.15
2359083007,-1.07,-0.57,-0.15
2359084977,-1.06,-0.56,-0.12
2359086974,-1.06,-0.56,-0.12
2359088977,-1.06,-0.56,-0.12
2359090981,-1.06,-0.56,-0.12
2359092980,-1.06,-0.56,-0.12
2359094992,-1.07,-0.53,-0.08
2359097007,-1.07,-0.53,-0.08
2359098977,-1.07,-0.53,-0.08
2359101109,-1.07,-0.53,-0.08
2359102986,-1.07,-0.53,-0.08
2359104976,-1.09,-0.55,-0.09
2359107021,-1.09,-0.55,-0.09
2359109009,-1.09,-0.55,-0.09
2359111003,-1.09,-0.55,-0.09
2359113007,-1.09,-0.55,-0.09
2359115008,-1.09,-0.53,-0.07
2359117004,-1.09,-0.53,-0.07
2359119008,-1.09,-0.53,-0.07
2359120980,-1.09,-0.53,-0.07
2359122977,-1.09,-0.53,-0.07
2359124980,-1.09,-0.53,-0.07
2359127113,-1.04,-0.50,-0.02
2359129025,-1.04,-0.50,-0.02
2359130975,-1.04,-0.50,-0.02
2359132978,-1.04,-0.50,-0.02
2359134980,-1.04,-0.50,-0.02
2359137090,-1.04,-0.50,-0.00
2359139013,-1.04,-0.50,-0.00
2359140980,-1.04,-0.50,-0.00
2359142979,-1.04,-0.50,-0.00
2359144977,-1.04,-0.50,-0.00
2359147027,-1.03,-0.48,0.00
2359149004,-1.03,-0.48,0.00
2359151109,-1.03,-0.48,0.00
2359153014,-1.03,-0.48,0.00
2359155009,-1.03,-0.48,0.00
2359157008,-1.02,-0.48,0.00
2359159011,-1.02,-0.48,0.00
2359160980,-1.02,-0.48,0.00
2359162979,-1.02,-0.48,0.00
2359164990,-1.02,-0.48,0.00
2359166985,-1.01,-0.43,0.05
2359168978,-1.01,-0.43,0.05
2359170980,-1.01,-0.43,0.05
2359172979,-1.01,-0.43,0.05
2359174980,-1.01,-0.43,0.05
2359177076,-1.03,-0.45,0.06
2359178976,-1.03,-0.45,0.06
2359180975,-1.03,-0.45,0.06
2359182979,-1.03,-0.45,0.06
2359184976,-1.03,-0.45,0.06
2359187018,-0.98,-0.43,0.05
2359189008,-0.98,-0.43,0.05
2359191006,-0.98,-0.43,0.05
2359193009,-0.98,-0.43,0.05
2359195015,-0.98,-0.43,0.05
2359197050,-1.04,-0.47,0.07
2359199039,-1.04,-0.47,0.07
2359201122,-1.04,-0.47,0.07
2359203026,-1.04,-0.47,0.07
2359204976,-1.04,-0.47,0.07
2359206979,-1.00,-0.43,0.07
2359208977,-1.00,-0.43,0.07
2359210977,-1.00,-0.43,0.07
2359212977,-1.00,-0.43,0.07
2359214977,-1.00,-0.43,0.07
2359216976,-0.99,-0.44,0.07
2359218974,-0.99,-0.44,0.07
2359220981,-0.99,-0.44,0.07
2359222981,-0.99,-0.44,0.07
2359224980,-0.99,-0.44,0.07
2359227134,-1.00,-0.41,0.11
2359229009,-1.00,-0.41,0.11
2359231051,-1.00,-0.41,0.11
2359233007,-1.00,-0.41,0.11
2359235007,-1.00,-0.41,0.11
2359237008,-0.98,-0.43,0.10
2359239004,-0.98,-0.43,0.10
2359241008,-0.98,-0.43,0.10
2359242977,-0.98,-0.43,0.10
2359244976,-0.98,-0.43,0.10
2359246983,-0.97,-0.41,0.11
2359248991,-0.97,-0.41,0.11
2359251088,-0.97,-0.41,0.11
2359252987,-0.97,-0.41,0.11
2359254977,-0.97,-0.41,0.11
2359256977,-0.99,-0.41,0.12
2359259068,-0.99,-0.41,0.12
2359261016,-0.99,-0.41,0.12
2359262980,-0.99,-0.41,0.12
2359264980,-0.99,-0.41,0.12
2359267026,-0.93,-0.41,0.08
2359269007,-0.93,-0.41,0.08
2359271007,-0.93,-0.41,0.08
2359273009,-0.93,-0.41,0.08
2359275009,-0.93,-0.41,0.08
2359277126,-0.96,-0.43,0.10
2359279006,-0.96,-0.43,0.10
2359280978,-0.96,-0.43,0.10
2359282980,-0.96,-0.43,0.10
2359284980,-0.96,-0.43,0.10
2359286979,-0.91,-0.43,0.07
2359288979,-0.91,-0.43,0.07
2359290975,-0.91,-0.43,0.07
2359292979,-0.91,-0.43,0.07
2359294993,-0.91,-0.43,0.07
2359297026,-0.91,-0.42,0.10
2359298980,-0.91,-0.42,0.10
2359301100,-0.91,-0.42,0.10
2359303015,-0.91,-0.42,0.10
2359305066,-0.91,-0.42,0.10
2359307041,-0.90,-0.41,0.12
2359309007,-0.90,-0.41,0.12
2359311005,-0.90,-0.41,0.12
2359313007,-0.90,-0.41,0.12
2359315011,-0.90,-0.41,0.12
2359317008,-0.90,-0.41,0.12
2359319011,-0.91,-0.41,0.08
2359320981,-0.91,-0.41,0.08
2359322981,-0.91,-0.41,0.08
2359324978,-0.91,-0.41,0.08
2359327102,-0.91,-0.41,0.08
2359328977,-0.91,-0.38,0.09
2359330981,-0.91,-0.38,0.09
2359333024,-0.91,-0.38,0.09
2359334977,-0.91,-0.38,0.09
2359336976,-0.91,-0.38,0.09
2359338975,-0.92,-0.38,0.09
2359340974,-0.92,-0.38,0.09
2359342979,-0.92,-0.38,0.09
2359344976,-0.92,-0.38,0.09
2359347022,-0.92,-0.38,0.09
2359349009,-0.92,-0.36,0.08
2359351109,-0.92,-0.36,0.08
2359353067,-0.92,-0.36,0.08
2359355044,-0.92,-0.36,0.08
2359357005,-0.92,-0.36,0.08
2359359012,-0.92,-0.36,0.07
2359361011,-0.92,-0.36,0.07
2359363016,-0.92,-0.36,0.07
2359364979,-0.92,-0.36,0.07
2359366976,-0.92,-0.36,0.07
2359368979,-0.91,-0.36,0.06
2359370980,-0.91,-0.36,0.06
2359372979,-0.91,-0.36,0.06
2359374979,-0.91,-0.36,0.06
2359377096,-0.91,-0.36,0.06
2359378975,-0.90,-0.37,0.05
2359380979,-0.90,-0.37,0.05
2359382979,-0.90,-0.37,0.05
2359384980,-0.90,-0.37,0.05
2359387019,-0.90,-0.37,0.05
2359389005,-0.89,-0.38,0.07
2359391008,-0.89,-0.38,0.07
2359393008,-0.89,-0.38,0.07
2359395010,-0.89,-0.38,0.07
2359397044,-0.89,-0.38,0.07
2359399035,-0.86,-0.39,0.04
2359401123,-0.86,-0.39,0.04
2359403023,-0.86,-0.39,0.04
2359404978,-0.86,-0.39,0.04
2359406976,-0.86,-0.39,0.04
2359408974,-0.88,-0.40,0.07
2359410979,-0.88,-0.40,0.07
2359412976,-0.88,-0.40,0.07
2359414979,-0.88,-0.40,0.07
2359416979,-0.88,-0.40,0.07
2359418974,-0.91,-0.37,0.10
2359420980,-0.91,-0.37,0.10
2359422977,-0.91,-0.37,0.10
2359424981,-0.91,-0.37,0.10
2359427139,-0.91,-0.37,0.10
2359429009,-0.88,-0.34,0.06
2359431008,-0.88,-0.34,0.06
2359433009,-0.88,-0.34,0.06
2359435051,-0.88,-0.34,0.06
2359437012,-0.88,-0.34,0.06
2359439008,-0.95,-0.35,0.09
2359441009,-0.95,-0.35,0.09
2359442979,-0.95,-0.35,0.09
2359444975,-0.95,-0.35,0.09
2359447078,-0.95,-0.35,0.09
2359449012,-0.94,-0.32,0.10
2359451090,-0.94,-0.32,0.10
2359452987,-0.94,-0.32,0.10
2359454979,-0.94,-0.32,0.10
2359456978,-0.94,-0.32,0.10
2359458977,-0.95,-0.33,0.12
2359460980,-0.95,-0.33,0.12
2359462979,-0.95,-0.33,0.12
2359464979,-0.95,-0.33,0.12
2359467028,-0.95,-0.33,0.12
2359469010,-0.93,-0.35,0.10
2359471008,-0.93,-0.35,0.10
2359473004,-0.93,-0.35,0.10
2359475009,-0.93,-0.35,0.10
2359477110,-0.93,-0.35,0.10
2359479012,-0.94,-0.38,0.11
2359480979,-0.94,-0.38,0.11
2359482981,-0.94,-0.38,0.11
2359484976,-0.94,-0.38,0.11
2359486976,-0.94,-0.38,0.11
2359488977,-0.90,-0.38,0.12
2359491012,-0.90,-0.38,0.12
2359493054,-0.90,-0.38,0.12
2359494999,-0.90,-0.38,0.12
2359497014,-0.90,-0.38,0.12
2359498994,-0.90,-0.38,0.12
2359501107,-0.92,-0.39,0.13
2359502988,-0.92,-0.39,0.13
2359504974,-0.92,-0.39,0.13
2359507018,-0.92,-0.39,0.13
2359509003,-0.92,-0.39,0.13
2359511005,-0.92,-0.36,0.13
2359513006,-0.92,-0.36,0.13
2359515005,-0.92,-0.36,0.13
2359517009,-0.92,-0.36,0.13
2359519005,-0.92,-0.36,0.13
2359520984,-0.91,-0.34,0.12
2359522984,-0.91,-0.34,0.12
2359524975,-0.91,-0.34,0.12
2359527077,-0.91,-0.34,0.12
2359528980,-0.91,-0.34,0.12
2359530980,-0.91,-0.33,0.09
2359532977,-0.91,-0.33,0.09
2359534977,-0.91,-0.33,0.09
2359537031,-0.91,-0.33,0.09
2359539059,-0.91,-0.33,0.09
2359541018,-0.93,-0.33,0.08
2359542977,-0.93,-0.33,0.08
2359544981,-0.93,-0.33,0.08
2359547019,-0.93,-0.33,0.08
2359549008,-0.93,-0.33,0.08
2359551110,-0.89,-0.30,0.09
2359553015,-0.89,-0.30,0.09
2359555006,-0.89,-0.30,0.09
2359557008,-0.89,-0.30,0.09
2359559007,-0.89,-0.30,0.09
2359560984,-0.91,-0.29,0.12
2359562984,-0.91,-0.29,0.12
2359564984,-0.91,-0.29,0.12
2359566980,-0.91,-0.29,0.12
2359568979,-0.91,-0.29,0.12
2359570980,-0.91,-0.34,0.07
2359572981,-0.91,-0.34,0.07
2359574980,-0.91,-0.34,0.07
2359577077,-0.91,-0.34,0.07
2359578980,-0.91,-0.34,0.07
2359580978,-0.89,-0.36,0.09
2359582978,-0.89,-0.36,0.09
2359584976,-0.89,-0.36,0.09
2359587015,-0.89,-0.36,0.09
2359589008,-0.89,-0.36,0.09
2359591008,-0.86,-0.37,0.11
2359593053,-0.86,-0.37,0.11
2359595037,-0.86,-0.37,0.11
2359597048,-0.86,-0.37,0.11
2359599007,-0.86,-0.37,0.11
2359601119,-0.82,-0.36,0.09
2359603018,-0.82,-0.36,0.09
2359604977,-0.82,-0.36,0.09
2359606977,-0.82,-0.36,0.09
2359608979,-0.82,-0.36,0.09
2359610979,-0.84,-0.37,0.06
2359612980,-0.84,-0.37,0.06
2359614975,-0.84,-0.37,0.06
2359616984,-0.84,-0.37,0.06
2359618975,-0.84,-0.37,0.06
2359620977,-0.84,-0.32,0.08
2359622989,-0.84,-0.32,0.08
2359624979,-0.84,-0.32,0.08
2359627117,-0.84,-0.32,0.08
2359629009,-0.84,-0.32,0.08
2359631009,-0.82,-0.31,0.11
2359633005,-0.82,-0.31,0.11
2359635008,-0.82,-0.31,0.11
2359637007,-0.82,-0.31,0.11
2359639039,-0.82,-0.31,0.11
2359641030,-0.84,-0.30,0.10
2359642979,-0.84,-0.30,0.10
2359644979,-0.84,-0.30,0.10
2359646975,-0.84,-0.30,0.10
2359649027,-0.84,-0.30,0.10
2359651121,-0.89,-0.34,0.06
2359652990,-0.89,-0.34,0.06
2359654977,-0.89,-0.34,0.06
2359656977,-0.89,-0.34,0.06
2359658976,-0.89,-0.34,0.06
2359660979,-0.90,-0.33,0.11
2359662978,-0.90,-0.33,0.11
2359664978,-0.90,-0.33,0.11
2359667022,-0.90,-0.33,0.11
2359669005,-0.90,-0.33,0.11
2359671004,-0.92,-0.34,0.17
2359673008,-0.92,-0.34,0.17
2359675009,-0.92,-0.34,0.17
2359677110,-0.92,-0.34,0.17
2359679009,-0.92,-0.34,0.17
2359680980,-0.92,-0.34,0.17
2359682976,-0.88,-0.37,0.14
2359684977,-0.88,-0.37,0.14
2359686981,-0.88,-0.37,0.14
2359688979,-0.88,-0.37,0.14
2359690986,-0.88,-0.37,0.14
2359692978,-0.86,-0.39,0.07
2359694998,-0.86,-0.39,0.07
2359697114,-0.86,-0.39,0.07
2359699036,-0.86,-0.39,0.07
2359701113,-0.86,-0.39,0.07
2359702987,-0.80,-0.38,0.11
2359704980,-0.80,-0.38,0.11
2359707025,-0.80,-0.38,0.11
2359709007,-0.80,-0.38,0.11
2359711008,-0.80,-0.38,0.11
2359713011,-0.75,-0.41,0.10
2359715006,-0.75,-0.41,0.10
2359717011,-0.75,-0.41,0.10
2359719012,-0.75,-0.41,0.10
2359720978,-0.75,-0.41,0.10
2359722984,-0.76,-0.37,0.07
2359724979,-0.76,-0.37,0.07
2359727086,-0.76,-0.37,0.07
2359728980,-0.76,-0.37,0.07
2359730975,-0.76,-0.37,0.07
2359732976,-0.82,-0.35,0.05
2359734978,-0.82,-0.35,0.05
2359736978,-0.82,-0.35,0.05
2359738975,-0.82,-0.35,0.05
2359740981,-0.82,-0.35,0.05
2359742980,-0.82,-0.34,0.11
2359744980,-0.82,-0.34,0.11
2359747019,-0.82,-0.34,0.11
2359749015,-0.82,-0.34,0.11
2359751106,-0.82,-0.34,0.11
2359753013,-0.89,-0.36,0.14
2359755012,-0.89,-0.36,0.14
2359757009,-0.89,-0.36,0.14
2359759007,-0.89,-0.36,0.14
2359760979,-0.89,-0.36,0.14
2359762980,-0.88,-0.43,0.13
2359764980,-0.88,-0.43,0.13
2359766979,-0.88,-0.43,0.13
2359768981,-0.88,-0.43,0.13
2359770974,-0.88,-0.43,0.13
2359772976,-0.92,-0.48,0.11
2359774981,-0.92,-0.48,0.11
2359777080,-0.92,-0.48,0.11
2359778979,-0.92,-0.48,0.11
2359780979,-0.92,-0.48,0.11
2359782974,-0.84,-0.44,0.16
2359784979,-0.84,-0.44,0.16
2359787015,-0.84,-0.44,0.16
2359789007,-0.84,-0.44,0.16
2359791006,-0.84,-0.44,0.16
2359793013,-0.84,-0.49,0.15
2359795024,-0.84,-0.49,0.15
2359797011,-0.84,-0.49,0.15
2359799039,-0.84,-0.49,0.15
2359801120,-0.84,-0.49,0.15
2359802987,-0.78,-0.50,0.08
2359804981,-0.78,-0.50,0.08
2359806979,-0.78,-0.50,0.08
2359808978,-0.78,-0.50,0.08
2359810980,-0.78,-0.50,0.08
2359812980,-0.77,-0.50,0.11
2359814978,-0.77,-0.50,0.11
2359816978,-0.77,-0.50,0.11
2359818980,-0.77,-0.50,0.11
2359820986,-0.77,-0.50,0.11
2359823031,-0.72,-0.49,0.09
2359824975,-0.72,-0.49,0.09
2359827128,-0.72,-0.49,0.09
2359829041,-0.72,-0.49,0.09
2359831030,-0.72,-0.49,0.09
2359833008,-0.75,-0.51,0.07
2359835007,-0.75,-0.51,0.07
2359837005,-0.75,-0.51,0.07
2359839009,-0.75,-0.51,0.07
2359841016,-0.75,-0.51,0.07
2359843028,-0.75,-0.47,0.05
2359845019,-0.75,-0.47,0.05
2359846979,-0.75,-0.47,0.05
2359848973,-0.75,-0.47,0.05
2359851091,-0.75,-0.47,0.05
2359852988,-0.81,-0.51,0.09
2359854975,-0.81,-0.51,0.09
2359856981,-0.81,-0.51,0.09
2359858979,-0.81,-0.51,0.09
2359860979,-0.81,-0.51,0.09
2359862977,-0.78,-0.47,0.12
2359864978,-0.78,-0.47,0.12
2359867023,-0.78,-0.47,0.12
2359869055,-0.78,-0.47,0.12
2359871035,-0.78,-0.47,0.12
2359873014,-0.78,-0.47,0.12
2359875008,-0.81,-0.52,0.12
2359877123,-0.81,-0.52,0.12
2359879009,-0.81,-0.52,0.12
2359881007,-0.81,-0.52,0.12
2359883009,-0.81,-0.52,0.12
2359884980,-0.82,-0.54,0.09
2359886978,-0.82,-0.54,0.09
2359888977,-0.82,-0.54,0.09
2359890986,-0.82,-0.54,0.09
2359892981,-0.82,-0.54,0.09
2359894989,-0.80,-0.54,0.11
2359896982,-0.80,-0.54,0.11
2359899017,-0.80,-0.54,0.11
2359901101,-0.80,-0.54,0.11
2359902989,-0.80,-0.54,0.11
2359904979,-0.81,-0.53,0.12
2359907014,-0.81,-0.53,0.12
2359909009,-0.81,-0.53,0.12
2359911005,-0.81,-0.53,0.12
2359913007,-0.81,-0.53,0.12
2359915007,-0.79,-0.51,0.10
2359917007,-0.79,-0.51,0.10
2359919006,-0.79,-0.51,0.10
2359920980,-0.79,-0.51,0.10
2359922976,-0.79,-0.51,0.10
2359924973,-0.78,-0.50,0.08
2359927079,-0.78,-0.50,0.08
2359928980,-0.78,-0.50,0.08
2359930980,-0.78,-0.50,0.08
2359932978,-0.78,-0.50,0.08
2359934977,-0.76,-0.48,0.05
2359936980,-0.76,-0.48,0.05
2359938978,-0.76,-0.48,0.05
2359940978,-0.76,-0.48,0.05
2359942974,-0.76,-0.48,0.05
2359945018,-0.77,-0.46,0.07
2359947048,-0.77,-0.46,0.07
2359949008,-0.77,-0.46,0.07
2359951107,-0.77,-0.46,0.07
2359953011,-0.77,-0.46,0.07
2359955004,-0.78,-0.48,0.05
2359957003,-0.78,-0.48,0.05
2359959036,-0.78,-0.48,0.05
2359961008,-0.78,-0.48,0.05
2359962993,-0.78,-0.48,0.05
2359964977,-0.80,-0.49,0.05
2359966979,-0.80,-0.49,0.05
2359968977,-0.80,-0.49,0.05
2359970979,-0.80,-0.49,0.05
2359972979,-0.80,-0.49,0.05
2359974980,-0.80,-0.50,0.06
2359977090,-0.80,-0.50,0.06
2359978975,-0.80,-0.50,0.06
2359980978,-0.80,-0.50,0.06
2359982977,-0.80,-0.50,0.06
2359984975,-0.81,-0.53,0.06
2359987013,-0.81,-0.53,0.06
2359989005,-0.81,-0.53,0.06
2359991008,-0.81,-0.53,0.06
2359993008,-0.81,-0.53,0.06
2359995014,-0.79,-0.54,0.05
2359997028,-0.79,-0.54,0.05
2359999021,-0.79,-0.54,0.05
2360001092,-0.79,-0.54,0.05
2360002965,-0.79,-0.54,0.05
2360004958,-0.78,-0.52,0.04
2360006955,-0.78,-0.52,0.04
2360008958,-0.78,-0.52,0.04
2360010955,-0.78,-0.52,0.04
2360012957,-0.78,-0.52,0.04
2360014955,-0.77,-0.49,0.04
2360016970,-0.77,-0.49,0.04
2360018959,-0.77,-0.49,0.04
2360020957,-0.77,-0.49,0.04
2360022958,-0.77,-0.49,0.04
2360024958,-0.76,-0.46,0.05
2360027037,-0.76,-0.46,0.05
2360028953,-0.76,-0.46,0.05
2360030957,-0.76,-0.46,0.05
2360032957,-0.76,-0.46,0.05
2360034955,-0.75,-0.46,0.04
2360043067,-0.75,-0.46,0.04
2360045043,-0.77,-0.48,0.03
2360047007,-0.77,-0.48,0.03
2360049031,-0.77,-0.48,0.03
2360051114,-0.77,-0.48,0.03
2360053009,-0.77,-0.48,0.03
2360055003,-0.75,-0.50,0.02
2360057008,-0.75,-0.50,0.02
2360059006,-0.75,-0.50,0.02
2360061012,-0.75,-0.50,0.02
2360062978,-0.75,-0.50,0.02
2360064981,-0.75,-0.50,0.02
2360066977,-0.73,-0.50,0.03
2360068980,-0.73,-0.50,0.03
2360070976,-0.73,-0.50,0.03
2360072977,-0.73,-0.50,0.03
2360074980,-0.73,-0.50,0.03
2360077074,-0.73,-0.51,0.02
2360078979,-0.73,-0.51,0.02
2360080981,-0.73,-0.51,0.02
2360083019,-0.73,-0.51,0.02
2360085009,-0.73,-0.51,0.02
2360087003,-0.72,-0.50,0.03
2360089007,-0.72,-0.50,0.03
2360091006,-0.72,-0.50,0.03
2360093005,-0.72,-0.50,0.03
2360095011,-0.72,-0.50,0.03
2360096980,-0.73,-0.50,0.02
2360099016,-0.73,-0.50,0.02
2360101104,-0.73,-0.50,0.02
2360102985,-0.73,-0.50,0.02
2360104977,-0.73,-0.50,0.02
2360106977,-0.75,-0.50,0.01
2360108978,-0.75,-0.50,0.01
2360110977,-0.75,-0.50,0.01
2360112974,-0.75,-0.50,0.01
2360114979,-0.75,-0.50,0.01
2360116978,-0.76,-0.50,0.03
2360118977,-0.76,-0.50,0.03
2360120976,-0.76,-0.50,0.03
2360123021,-0.76,-0.50,0.03
2360125006,-0.76,-0.50,0.03
2360127118,-0.78,-0.46,0.03
2360129058,-0.78,-0.46,0.03
2360131042,-0.78,-0.46,0.03
2360133007,-0.78,-0.46,0.03
2360135005,-0.78,-0.46,0.03
2360137005,-0.80,-0.44,0.04
2360139010,-0.80,-0.44,0.04
2360140980,-0.80,-0.44,0.04
2360142977,-0.80,-0.44,0.04
2360144976,-0.80,-0.44,0.04
2360146981,-0.81,-0.41,0.03
2360148990,-0.81,-0.41,0.03
2360151108,-0.81,-0.41,0.03
2360153021,-0.81,-0.41,0.03
2360154980,-0.81,-0.41,0.03
2360156979,-0.83,-0.38,0.04
2360158976,-0.83,-0.38,0.04
2360160976,-0.83,-0.38,0.04
2360163024,-0.83,-0.38,0.04
2360165003,-0.83,-0.38,0.04
2360167009,-0.83,-0.39,0.01
2360169009,-0.83,-0.39,0.01
2360171005,-0.83,-0.39,0.01
2360173008,-0.83,-0.39,0.01
2360175006,-0.83,-0.39,0.01
2360177090,-0.82,-0.38,0.01
2360178984,-0.82,-0.38,0.01
2360180978,-0.82,-0.38,0.01
2360182975,-0.82,-0.38,0.01
2360184980,-0.82,-0.38,0.01
2360186979,-0.83,-0.37,-0.01
2360188979,-0.83,-0.37,-0.01
2360190980,-0.83,-0.37,-0.01
2360192978,-0.83,-0.37,-0.01
2360194990,-0.83,-0.37,-0.01
2360196978,-0.85,-0.36,-0.02
2360199015,-0.85,-0.36,-0.02
2360201093,-0.85,-0.36,-0.02
2360203023,-0.85,-0.36,-0.02
2360205008,-0.85,-0.36,-0.02
2360207005,-0.85,-0.34,-0.01
2360209006,-0.85,-0.34,-0.01
2360211005,-0.85,-0.34,-0.01
2360213007,-0.85,-0.34,-0.01
2360215072,-0.85,-0.34,-0.01
2360217003,-0.86,-0.32,-0.03
2360218979,-0.86,-0.32,-0.03
2360220978,-0.86,-0.32,-0.03
2360223029,-0.86,-0.32,-0.03
2360224978,-0.86,-0.32,-0.03
2360227158,-0.84,-0.32,-0.05
2360228990,-0.84,-0.32,-0.05
2360230976,-0.84,-0.32,-0.05
2360232975,-0.84,-0.32,-0.05
2360234976,-0.84,-0.32,-0.05
2360236980,-0.84,-0.32,-0.07
2360238977,-0.84,-0.32,-0.07
2360240979,-0.84,-0.32,-0.07
2360243021,-0.84,-0.32,-0.07
2360245004,-0.84,-0.32,-0.07
2360247002,-0.82,-0.34,-0.08
2360249012,-0.82,-0.34,-0.08
2360251107,-0.82,-0.34,-0.08
2360253053,-0.82,-0.34,-0.08
2360255042,-0.82,-0.34,-0.08
2360257014,-0.82,-0.34,-0.08
2360258980,-0.83,-0.36,-0.07
2360260977,-0.83,-0.36,-0.07
2360262979,-0.83,-0.36,-0.07
2360264977,-0.83,-0.36,-0.07
2360266980,-0.83,-0.36,-0.07
2360268979,-0.84,-0.38,-0.07
2360270979,-0.84,-0.38,-0.07
2360272980,-0.84,-0.38,-0.07
2360274979,-0.84,-0.38,-0.07
2360277090,-0.84,-0.38,-0.07
2360278978,-0.86,-0.39,-0.07
2360280981,-0.86,-0.39,-0.07
2360283014,-0.86,-0.39,-0.07
2360285006,-0.86,-0.39,-0.07
2360287006,-0.86,-0.39,-0.07
2360289005,-0.89,-0.38,-0.04
2360291008,-0.89,-0.38,-0.04
2360293008,-0.89,-0.38,-0.04
2360295002,-0.89,-0.38,-0.04
2360296979,-0.89,-0.38,-0.04
2360299013,-0.91,-0.36,-0.04
2360301101,-0.91,-0.36,-0.04
2360302986,-0.91,-0.36,-0.04
2360304976,-0.91,-0.36,-0.04
2360306977,-0.91,-0.36,-0.04
2360308976,-0.94,-0.36,-0.05
2360310981,-0.94,-0.36,-0.05
2360312977,-0.94,-0.36,-0.05
2360314978,-0.94,-0.36,-0.05
2360316976,-0.94,-0.36,-0.05
2360318977,-0.95,-0.38,-0.04
2360320979,-0.95,-0.38,-0.04
2360323014,-0.95,-0.38,-0.04
2360325007,-0.95,-0.38,-0.04
2360327107,-0.95,-0.38,-0.04
2360329056,-0.94,-0.37,-0.04
2360331034,-0.94,-0.37,-0.04
2360333015,-0.94,-0.37,-0.04
2360335009,-0.94,-0.37,-0.04
2360337008,-0.94,-0.37,-0.04
2360339008,-0.94,-0.39,-0.07
2360340980,-0.94,-0.39,-0.07
2360342980,-0.94,-0.39,-0.07
2360344981,-0.94,-0.39,-0.07
2360346984,-0.94,-0.39,-0.07
2360348977,-0.92,-0.40,-0.08
2360351092,-0.92,-0.40,-0.08
2360352987,-0.92,-0.40,-0.08
2360354979,-0.92,-0.40,-0.08
2360356978,-0.92,-0.40,-0.08
2360358977,-0.91,-0.40,-0.09
2360360979,-0.91,-0.40,-0.09
2360363013,-0.91,-0.40,-0.09
2360365010,-0.91,-0.40,-0.09
2360367008,-0.91,-0.40,-0.09
2360369006,-0.92,-0.41,-0.09
2360371007,-0.92,-0.41,-0.09
2360373004,-0.92,-0.41,-0.09
2360374993,-0.92,-0.41,-0.09
2360377084,-0.92,-0.41,-0.09
2360378979,-0.93,-0.41,-0.09
2360380977,-0.93,-0.41,-0.09
2360382977,-0.93,-0.41,-0.09
2360384981,-0.93,-0.41,-0.09
2360386976,-0.93,-0.41,-0.09
2360388976,-0.94,-0.41,-0.10
2360390974,-0.94,-0.41,-0.10
2360392979,-0.94,-0.41,-0.10
2360394991,-0.94,-0.41,-0.10
2360396982,-0.94,-0.41,-0.10
2360399011,-0.93,-0.40,-0.07
2360401096,-0.93,-0.40,-0.07
2360403020,-0.93,-0.40,-0.07
2360405003,-0.93,-0.40,-0.07
2360407005,-0.93,-0.40,-0.07
2360409008,-0.94,-0.41,-0.06
2360411005,-0.94,-0.41,-0.06
2360413008,-0.94,-0.41,-0.06
2360415064,-0.94,-0.41,-0.06
2360417003,-0.94,-0.41,-0.06
2360418978,-0.95,-0.41,-0.07
2360420979,-0.95,-0.41,-0.07
2360422976,-0.95,-0.41,-0.07
2360424984,-0.95,-0.41,-0.07
2360427091,-0.95,-0.41,-0.07
2360428980,-0.95,-0.41,-0.07
2360430980,-0.95,-0.41,-0.07
2360432979,-0.95,-0.41,-0.07
2360435027,-0.95,-0.41,-0.07
2360437014,-0.95,-0.41,-0.07
2360438975,-0.95,-0.41,-0.07
2360440975,-0.95,-0.41,-0.05
2360443019,-0.95,-0.41,-0.05
2360445008,-0.95,-0.41,-0.05
2360447008,-0.95,-0.41,-0.05
2360449008,-0.95,-0.41,-0.05
2360451119,-0.95,-0.41,-0.04
2360453011,-0.95,-0.41,-0.04
2360455010,-0.95,-0.41,-0.04
2360457024,-0.95,-0.41,-0.04
2360459014,-0.95,-0.41,-0.04
2360460975,-0.94,-0.40,-0.04
2360462973,-0.94,-0.40,-0.04
2360464978,-0.94,-0.40,-0.04
2360466977,-0.94,-0.40,-0.04
2360468975,-0.94,-0.40,-0.04
2360470975,-0.94,-0.41,-0.03
2360472979,-0.94,-0.41,-0.03
2360474977,-0.94,-0.41,-0.03
2360477090,-0.94,-0.41,-0.03
2360478979,-0.94,-0.41,-0.03
2360480974,-0.91,-0.41,-0.00
2360483023,-0.91,-0.41,-0.00
2360485007,-0.91,-0.41,-0.00
2360487008,-0.91,-0.41,-0.00
2360489007,-0.91,-0.41,-0.00
2360491009,-0.91,-0.42,0.02
2360493004,-0.91,-0.42,0.02
2360495019,-0.91,-0.42,0.02
2360496982,-0.91,-0.42,0.02
2360499021,-0.91,-0.42,0.02
2360501106,-0.92,-0.42,0.01
2360502986,-0.92,-0.42,0.01
2360504980,-0.92,-0.42,0.01
2360506976,-0.92,-0.42,0.01
2360508977,-0.92,-0.42,0.01
2360510977,-0.92,-0.41,0.04
2360512978,-0.92,-0.41,0.04
2360514977,-0.92,-0.41,0.04
2360516979,-0.92,-0.41,0.04
2360518981,-0.92,-0.41,0.04
2360520979,-0.91,-0.39,0.05
2360523021,-0.91,-0.39,0.05
2360525005,-0.91,-0.39,0.05
2360527103,-0.91,-0.39,0.05
2360529057,-0.91,-0.39,0.05
2360531037,-0.92,-0.38,0.06
2360533012,-0.92,-0.38,0.06
2360535003,-0.92,-0.38,0.06
2360537007,-0.92,-0.38,0.06
2360539012,-0.92,-0.38,0.06
2360540977,-0.91,-0.37,0.05
2360542981,-0.91,-0.37,0.05
2360544976,-0.91,-0.37,0.05
2360546975,-0.91,-0.37,0.05
2360548974,-0.91,-0.37,0.05
2360551096,-0.93,-0.38,0.05
2360552989,-0.93,-0.38,0.05
2360554981,-0.93,-0.38,0.05
2360556980,-0.93,-0.38,0.05
2360558979,-0.93,-0.38,0.05
2360561027,-0.92,-0.38,0.05
2360563028,-0.92,-0.38,0.05
2360565011,-0.92,-0.38,0.05
2360567009,-0.92,-0.38,0.05
2360569010,-0.92,-0.38,0.05
2360571009,-0.93,-0.41,0.04
2360573006,-0.93,-0.41,0.04
2360575011,-0.93,-0.41,0.04
2360577094,-0.93,-0.41,0.04
2360578980,-0.93,-0.41,0.04
2360580975,-0.95,-0.42,0.02
2360582975,-0.95,-0.42,0.02
2360584977,-0.95,-0.42,0.02
2360586978,-0.95,-0.42,0.02
2360588979,-0.95,-0.42,0.02
2360590977,-0.94,-0.44,0.01
2360592978,-0.94,-0.44,0.01
2360594990,-0.94,-0.44,0.01
2360596981,-0.94,-0.44,0.01
2360599014,-0.94,-0.44,0.01
2360601093,-0.93,-0.43,0.00
2360603027,-0.93,-0.43,0.00
2360605004,-0.93,-0.43,0.00
2360607010,-0.93,-0.43,0.00
2360609007,-0.93,-0.43,0.00
2360611005,-0.93,-0.44,-0.02
2360613008,-0.93,-0.44,-0.02
2360615007,-0.93,-0.44,-0.02
2360616980,-0.93,-0.44,-0.02
2360618975,-0.93,-0.44,-0.02
2360620977,-0.93,-0.45,-0.02
2360622990,-0.93,-0.45,-0.02
2360624975,-0.93,-0.45,-0.02
2360627081,-0.93,-0.45,-0.02
2360629001,-0.93,-0.45,-0.02
2360631138,-0.91,-0.45,-0.01
2360633015,-0.91,-0.45,-0.01
2360634978,-0.91,-0.45,-0.01
2360636975,-0.91,-0.45,-0.01
2360638977,-0.91,-0.45,-0.01
2360640976,-0.91,-0.45,-0.01
2360643022,-0.94,-0.48,-0.02
2360645007,-0.94,-0.48,-0.02
2360647003,-0.94,-0.48,-0.02
2360649007,-0.94,-0.48,-0.02
2360651116,-0.94,-0.48,-0.02
2360653013,-0.93,-0.45,-0.01
2360655008,-0.93,-0.45,-0.01
2360656978,-0.93,-0.45,-0.01
2360658984,-0.93,-0.45,-0.01
2360660981,-0.93,-0.45,-0.01
2360663042,-0.96,-0.46,0.02
2360665012,-0.96,-0.46,0.02
2360666981,-0.96,-0.46,0.02
2360668977,-0.96,-0.46,0.02
2360670976,-0.96,-0.46,0.02
2360672981,-0.96,-0.45,0.02
2360674976,-0.96,-0.45,0.02
2360677087,-0.96,-0.45,0.02
2360678974,-0.96,-0.45,0.02
2360680976,-0.96,-0.45,0.02
2360683022,-0.98,-0.48,0.04
2360685004,-0.98,-0.48,0.04
2360687003,-0.98,-0.48,0.04
2360689006,-0.98,-0.48,0.04
2360691005,-0.98,-0.48,0.04
2360693010,-0.98,-0.47,0.08
2360695017,-0.98,-0.47,0.08
2360696984,-0.98,-0.47,0.08
2360699015,-0.98,-0.47,0.08
2360701107,-0.98,-0.47,0.08
2360702988,-0.97,-0.50,0.09
2360704976,-0.97,-0.50,0.09
2360706979,-0.97,-0.50,0.09
2360708978,-0.97,-0.50,0.09
2360710977,-0.97,-0.50,0.09
2360712979,-0.95,-0.52,0.08
2360714975,-0.95,-0.52,0.08
2360716976,-0.95,-0.52,0.08
2360718981,-0.95,-0.52,0.08
2360720974,-0.95,-0.52,0.08
2360723011,-0.94,-0.56,0.10
2360725004,-0.94,-0.56,0.10
2360727106,-0.94,-0.56,0.10
2360729054,-0.94,-0.56,0.10
2360731032,-0.94,-0.56,0.10
2360733018,-0.90,-0.59,0.12
2360735010,-0.90,-0.59,0.12
2360737007,-0.90,-0.59,0.12
2360739009,-0.90,-0.59,0.12
2360740976,-0.90,-0.59,0.12
2360742976,-0.90,-0.62,0.12
2360744979,-0.90,-0.62,0.12
2360746984,-0.90,-0.62,0.12
2360748993,-0.90,-0.62,0.12
2360751094,-0.90,-0.62,0.12
2360752987,-0.89,-0.62,0.12
2360754977,-0.89,-0.62,0.12
2360756978,-0.89,-0.62,0.12
2360758980,-0.89,-0.62,0.12
2360760977,-0.89,-0.62,0.12
2360763013,-0.91,-0.62,0.16
2360765008,-0.91,-0.62,0.16
2360767007,-0.91,-0.62,0.16
2360769011,-0.91,-0.62,0.16
2360771005,-0.91,-0.62,0.16
2360773009,-0.89,-0.61,0.16
2360775010,-0.89,-0.61,0.16
2360777081,-0.89,-0.61,0.16
2360778980,-0.89,-0.61,0.16
2360780979,-0.89,-0.61,0.16
2360782978,-0.88,-0.62,0.15
2360784979,-0.88,-0.62,0.15
2360786976,-0.88,-0.62,0.15
2360788975,-0.88,-0.62,0.15
2360790980,-0.88,-0.62,0.15
2360792982,-0.87,-0.60,0.13
2360794990,-0.87,-0.60,0.13
2360796981,-0.87,-0.60,0.13
2360799012,-0.87,-0.60,0.13
2360801095,-0.87,-0.60,0.13
2360803023,-0.84,-0.58,0.15
2360805007,-0.84,-0.58,0.15
2360807004,-0.84,-0.58,0.15
2360809009,-0.84,-0.58,0.15
2360811005,-0.84,-0.58,0.15
2360813006,-0.84,-0.55,0.16
2360815009,-0.84,-0.55,0.16
2360816979,-0.84,-0.55,0.16
2360818975,-0.84,-0.55,0.16
2360820977,-0.84,-0.55,0.16
2360822985,-0.84,-0.55,0.16
2360824978,-0.84,-0.56,0.13
2360827085,-0.84,-0.56,0.13
2360828979,-0.84,-0.56,0.13
2360830977,-0.84,-0.56,0.13
2360832976,-0.84,-0.56,0.13
2360834986,-0.80,-0.55,0.12
2360837063,-0.80,-0.55,0.12
2360839026,-0.80,-0.55,0.12
2360840979,-0.80,-0.55,0.12
2360843023,-0.80,-0.55,0.12
2360845009,-0.80,-0.54,0.16
2360847006,-0.80,-0.54,0.16
2360849005,-0.80,-0.54,0.16
2360851113,-0.80,-0.54,0.16
2360853012,-0.80,-0.54,0.16
2360855008,-0.79,-0.55,0.13
2360856980,-0.79,-0.55,0.13
2360858977,-0.79,-0.55,0.13
2360860976,-0.79,-0.55,0.13
2360862980,-0.79,-0.55,0.13
2360864980,-0.80,-0.52,0.12
2360867023,-0.80,-0.52,0.12
2360869019,-0.80,-0.52,0.12
2360870981,-0.80,-0.52,0.12
2360872976,-0.80,-0.52,0.12
2360874975,-0.81,-0.52,0.16
2360877091,-0.81,-0.52,0.16
2360878980,-0.81,-0.52,0.16
2360880982,-0.81,-0.52,0.16
2360883064,-0.81,-0.52,0.16
2360885050,-0.81,-0.51,0.16
2360887009,-0.81,-0.51,0.16
2360889005,-0.81,-0.51,0.16
2360891008,-0.81,-0.51,0.16
2360893010,-0.81,-0.51,0.16
2360895014,-0.82,-0.51,0.15
2360897009,-0.82,-0.51,0.15
2360899042,-0.82,-0.51,0.15
2360901108,-0.82,-0.51,0.15
2360902985,-0.82,-0.51,0.15
2360904977,-0.82,-0.52,0.16
2360906979,-0.82,-0.52,0.16
2360908979,-0.82,-0.52,0.16
2360910977,-0.82,-0.52,0.16
2360912976,-0.82,-0.52,0.16
2360914975,-0.81,-0.53,0.16
2360916977,-0.81,-0.53,0.16
2360918974,-0.81,-0.53,0.16
2360920979,-0.81,-0.53,0.16
2360922975,-0.81,-0.53,0.16
2360925015,-0.82,-0.54,0.16
2360927107,-0.82,-0.54,0.16
2360929007,-0.82,-0.54,0.16
2360931056,-0.82,-0.54,0.16
2360933043,-0.82,-0.54,0.16
2360935007,-0.81,-0.54,0.15
2360937004,-0.81,-0.54,0.15
2360939006,-0.81,-0.54,0.15
2360941011,-0.81,-0.54,0.15
2360942981,-0.81,-0.54,0.15
2360944984,-0.82,-0.54,0.16
2360946980,-0.82,-0.54,0.16
2360948978,-0.82,-0.54,0.16
2360951094,-0.82,-0.54,0.16
2360952990,-0.82,-0.54,0.16
2360954979,-0.82,-0.53,0.15
2360956977,-0.82,-0.53,0.15
2360958979,-0.82,-0.53,0.15
2360960981,-0.82,-0.53,0.15
2360962977,-0.82,-0.53,0.15
2360965017,-0.82,-0.53,0.14
2360967007,-0.82,-0.53,0.14
2360969009,-0.82,-0.53,0.14
2360971052,-0.82,-0.53,0.14
2360973008,-0.82,-0.53,0.14
2360975008,-0.81,-0.54,0.14
2360977118,-0.81,-0.54,0.14
2360978980,-0.81,-0.54,0.14
2360980979,-0.81,-0.54,0.14
2360982975,-0.81,-0.54,0.14
2360984977,-0.81,-0.55,0.14
2360986976,-0.81,-0.55,0.14
2360988981,-0.81,-0.55,0.14
2360991031,-0.81,-0.55,0.14
2360993027,-0.81,-0.55,0.14
2360994993,-0.82,-0.57,0.14
2360996983,-0.82,-0.57,0.14
2360999018,-0.82,-0.57,0.14
2361001109,-0.82,-0.57,0.14
2361002986,-0.82,-0.57,0.14
2361005022,-0.82,-0.57,0.14
2361007008,-0.81,-0.59,0.15
2361009002,-0.81,-0.59,0.15
2361011011,-0.81,-0.59,0.15
2361013006,-0.81,-0.59,0.15
2361015006,-0.81,-0.59,0.15
2361017009,-0.80,-0.59,0.15
2361018980,-0.80,-0.59,0.15
2361020977,-0.80,-0.59,0.15
2361022984,-0.80,-0.59,0.15
2361024978,-0.80,-0.59,0.15
2361027078,-0.80,-0.60,0.15
2361028979,-0.80,-0.60,0.15
2361030976,-0.80,-0.60,0.15
2361032984,-0.80,-0.60,0.15
2361034976,-0.80,-0.60,0.15
2361036978,-0.80,-0.59,0.15
2361038985,-0.80,-0.59,0.15
2361041065,-0.80,-0.59,0.15
2361043019,-0.80,-0.59,0.15
2361045022,-0.80,-0.59,0.15
2361047007,-0.82,-0.59,0.14
2361049009,-0.82,-0.59,0.14
2361051116,-0.82,-0.59,0.14
2361053012,-0.82,-0.59,0.14
2361055010,-0.82,-0.59,0.14
2361057007,-0.81,-0.57,0.13
2361058979,-0.81,-0.57,0.13
2361060979,-0.81,-0.57,0.13
2361062975,-0.81,-0.57,0.13
2361064976,-0.81,-0.57,0.13
2361066985,-0.82,-0.56,0.13
2361068976,-0.82,-0.56,0.13
2361070980,-0.82,-0.56,0.13
2361073027,-0.82,-0.56,0.13
2361074993,-0.82,-0.56,0.13
2361077086,-0.82,-0.55,0.12
2361078976,-0.82,-0.55,0.12
2361080977,-0.82,-0.55,0.12
2361082977,-0.82,-0.55,0.12
2361085022,-0.82,-0.55,0.12
2361087009,-0.83,-0.55,0.12
2361089004,-0.83,-0.55,0.12
2361091009,-0.83,-0.55,0.12
2361093006,-0.83,-0.55,0.12
2361095010,-0.83,-0.55,0.12
2361097008,-0.84,-0.54,0.11
2361099011,-0.84,-0.54,0.11
2361101120,-0.84,-0.54,0.11
2361103028,-0.84,-0.54,0.11
2361104973,-0.84,-0.54,0.11
2361106974,-0.85,-0.53,0.11
2361108978,-0.85,-0.53,0.11
2361110976,-0.85,-0.53,0.11
2361112974,-0.85,-0.53,0.11
2361114975,-0.85,-0.53,0.11
2361116980,-0.85,-0.53,0.11
2361118974,-0.85,-0.53,0.11
2361120978,-0.85,-0.53,0.11
2361122976,-0.85,-0.53,0.11
2361125024,-0.85,-0.53,0.11
2361127121,-0.84,-0.50,0.10
2361129010,-0.84,-0.50,0.10
2361131020,-0.84,-0.50,0.10
2361133005,-0.84,-0.50,0.10
2361135007,-0.84,-0.50,0.10
2361137008,-0.86,-0.51,0.06
2361138978,-0.86,-0.51,0.06
2361140978,-0.86,-0.51,0.06
2361142981,-0.86,-0.51,0.06
2361144977,-0.86,-0.51,0.06
2361146980,-0.86,-0.50,0.06
2361148979,-0.86,-0.50,0.06
2361151081,-0.86,-0.50,0.06
2361152988,-0.86,-0.50,0.06
2361154977,-0.86,-0.50,0.06
2361156979,-0.86,-0.50,0.06
2361158981,-0.86,-0.50,0.06
2361160979,-0.86,-0.50,0.06
2361162976,-0.86,-0.50,0.06
2361165013,-0.86,-0.50,0.06
2361167010,-0.84,-0.50,0.04
2361169003,-0.84,-0.50,0.04
2361171005,-0.84,-0.50,0.04
2361173006,-0.84,-0.50,0.04
2361175004,-0.84,-0.50,0.04
2361177096,-0.82,-0.50,0.04
2361178980,-0.82,-0.50,0.04
2361180978,-0.82,-0.50,0.04
2361182977,-0.82,-0.50,0.04
2361184980,-0.82,-0.50,0.04
2361186979,-0.82,-0.50,0.04
2361188977,-0.82,-0.50,0.04
2361190976,-0.82,-0.50,0.04
2361192980,-0.82,-0.50,0.04
2361194989,-0.82,-0.50,0.04
2361196980,-0.82,-0.50,0.04
2361199016,-0.77,-0.48,0.03
2361201090,-0.77,-0.48,0.03
2361202984,-0.77,-0.48,0.03
2361205013,-0.77,-0.48,0.03
2361207006,-0.77,-0.48,0.03
2361209006,-0.79,-0.50,0.02
2361211009,-0.79,-0.50,0.02
2361213039,-0.79,-0.50,0.02
2361215013,-0.79,-0.50,0.02
2361217009,-0.79,-0.50,0.02
2361219008,-0.77,-0.49,0.01
2361220975,-0.77,-0.49,0.01
2361223033,-0.77,-0.49,0.01
2361224978,-0.77,-0.49,0.01
2361227096,-0.77,-0.49,0.01
2361228977,-0.78,-0.50,0.02
2361230977,-0.78,-0.50,0.02
2361232972,-0.78,-0.50,0.02
2361234977,-0.78,-0.50,0.02
2361236975,-0.78,-0.50,0.02
2361238977,-0.79,-0.50,0.03
2361240976,-0.79,-0.50,0.03
2361242975,-0.79,-0.50,0.03
2361245017,-0.79,-0.50,0.03
2361247007,-0.79,-0.50,0.03
2361249014,-0.80,-0.51,0.03
2361251104,-0.80,-0.51,0.03
2361253013,-0.80,-0.51,0.03
2361255006,-0.80,-0.51,0.03
2361257007,-0.80,-0.51,0.03
2361258979,-0.80,-0.51,0.03
2361260976,-0.80,-0.51,0.03
2361262973,-0.80,-0.51,0.03
2361264984,-0.80,-0.51,0.03
2361266981,-0.80,-0.51,0.03
2361268977,-0.81,-0.50,0.05
2361270977,-0.81,-0.50,0.05
2361273103,-0.81,-0.50,0.05
2361275015,-0.81,-0.50,0.05
2361277121,-0.81,-0.50,0.05
2361279014,-0.81,-0.50,0.05
2361280977,-0.81,-0.50,0.05
2361282976,-0.81,-0.50,0.05
2361285024,-0.81,-0.50,0.05
2361287006,-0.81,-0.50,0.05
2361289004,-0.82,-0.50,0.06
2361291004,-0.82,-0.50,0.06
2361293008,-0.82,-0.50,0.06
2361295008,-0.82,-0.50,0.06
2361297008,-0.82,-0.50,0.06
2361299014,-0.82,-0.50,0.07
2361301104,-0.82,-0.50,0.07
2361302986,-0.82,-0.50,0.07
2361304978,-0.82,-0.50,0.07
2361306978,-0.82,-0.50,0.07
2361308975,-0.82,-0.49,0.09
2361310975,-0.82,-0.49,0.09
2361312978,-0.82,-0.49,0.09
2361314978,-0.82,-0.49,0.09
2361316976,-0.82,-0.49,0.09
2361318974,-0.83,-0.48,0.09
2361320977,-0.83,-0.48,0.09
2361322979,-0.83,-0.48,0.09
2361325015,-0.83,-0.48,0.09
2361327108,-0.83,-0.48,0.09
2361329008,-0.83,-0.46,0.11
2361331003,-0.83,-0.46,0.11
2361333007,-0.83,-0.46,0.11
2361335006,-0.83,-0.46,0.11
2361337004,-0.83,-0.46,0.11
2361338976,-0.84,-0.46,0.11
2361341001,-0.84,-0.46,0.11
2361343064,-0.84,-0.46,0.11
2361345023,-0.84,-0.46,0.11
2361346975,-0.84,-0.46,0.11
2361348980,-0.85,-0.46,0.11
2361351091,-0.85,-0.46,0.11
2361352989,-0.85,-0.46,0.11
2361354977,-0.85,-0.46,0.11
2361356979,-0.85,-0.46,0.11
2361358977,-0.86,-0.46,0.11
2361360975,-0.86,-0.46,0.11
2361362976,-0.86,-0.46,0.11
2361365020,-0.86,-0.46,0.11
2361367007,-0.86,-0.46,0.11
2361369003,-0.88,-0.45,0.11
2361371006,-0.88,-0.45,0.11
2361373010,-0.88,-0.45,0.11
2361375010,-0.88,-0.45,0.11
2361377108,-0.88,-0.45,0.11
2361378982,-0.88,-0.45,0.11
2361381020,-0.89,-0.45,0.11
2361382979,-0.89,-0.45,0.11
2361384977,-0.89,-0.45,0.11
2361386979,-0.89,-0.45,0.11
2361388976,-0.89,-0.45,0.11
2361390977,-0.89,-0.46,0.09
2361392979,-0.89,-0.46,0.09
2361394992,-0.89,-0.46,0.09
2361396994,-0.89,-0.46,0.09
2361399066,-0.89,-0.46,0.09
2361401121,-0.89,-0.48,0.08
2361402986,-0.89,-0.48,0.08
2361405024,-0.89,-0.48,0.08
2361407004,-0.89,-0.48,0.08
2361409007,-0.89,-0.48,0.08
2361411009,-0.87,-0.51,0.00
2361413007,-0.87,-0.51,0.00
2361415008,-0.87,-0.51,0.00
2361417012,-0.87,-0.51,0.00
2361418979,-0.87,-0.51,0.00
2361420979,-0.96,-0.56,-0.07
2361422976,-0.96,-0.56,-0.07
2361424976,-0.96,-0.56,-0.07
2361427081,-0.96,-0.56,-0.07
2361428980,-0.96,-0.56,-0.07
2361430975,-0.88,-0.57,-0.14
2361432979,-0.88,-0.57,-0.14
2361434977,-0.88,-0.57,-0.14
2361436976,-0.88,-0.57,-0.14
2361438978,-0.88,-0.57,-0.14
2361440979,-0.95,-0.48,0.17
2361442976,-0.95,-0.48,0.17
2361445132,-0.95,-0.48,0.17
2361447046,-0.95,-0.48,0.17
2361449007,-0.95,-0.48,0.17
2361451112,-0.83,-0.49,0.06
2361453014,-0.83,-0.49,0.06
2361455011,-0.83,-0.49,0.06
2361457009,-0.83,-0.49,0.06
2361459010,-0.83,-0.49,0.06
2361461012,-0.93,-0.41,0.14
2361462979,-0.93,-0.41,0.14
2361464977,-0.93,-0.41,0.14
2361466974,-0.93,-0.41,0.14
2361468976,-0.93,-0.41,0.14
2361470976,-0.88,-0.47,0.18
2361472977,-0.88,-0.47,0.18
2361474977,-0.88,-0.47,0.18
2361477076,-0.88,-0.47,0.18
2361478978,-0.88,-0.47,0.18
2361480978,-0.86,-0.49,0.10
2361483021,-0.86,-0.49,0.10
2361484978,-0.86,-0.49,0.10
2361487023,-0.86,-0.49,0.10
2361489005,-0.86,-0.49,0.10
2361491045,-0.92,-0.54,0.05
2361493038,-0.92,-0.54,0.05
2361495017,-0.92,-0.54,0.05
2361497007,-0.92,-0.54,0.05
2361499013,-0.92,-0.54,0.05
2361501119,-0.82,-0.55,0.05
2361503016,-0.82,-0.55,0.05
2361504975,-0.82,-0.55,0.05
2361506977,-0.82,-0.55,0.05
2361508984,-0.82,-0.55,0.05
2361510980,-0.86,-0.43,0.28
2361512975,-0.86,-0.43,0.28
2361514979,-0.86,-0.43,0.28
2361516980,-0.86,-0.43,0.28
2361518978,-0.86,-0.43,0.28
2361520986,-0.85,-0.50,0.15
2361522977,-0.85,-0.50,0.15
2361524991,-0.85,-0.50,0.15
2361527106,-0.85,-0.50,0.15
2361529008,-0.85,-0.50,0.15
2361531007,-0.81,-0.43,0.07
2361533007,-0.81,-0.43,0.07
2361535010,-0.81,-0.43,0.07
2361537008,-0.81,-0.43,0.07
2361539019,-0.81,-0.43,0.07
2361541069,-0.91,-0.55,0.06
2361543024,-0.91,-0.55,0.06
2361544977,-0.91,-0.55,0.06
2361546976,-0.91,-0.55,0.06
2361548977,-0.91,-0.55,0.06
2361551089,-0.85,-0.48,0.07
2361552988,-0.85,-0.48,0.07
2361554977,-0.85,-0.48,0.07
2361556975,-0.85,-0.48,0.07
2361558977,-0.85,-0.48,0.07
2361560979,-0.85,-0.48,0.07
2361562976,-0.86,-0.49,0.20
2361564980,-0.86,-0.49,0.20
2361567025,-0.86,-0.49,0.20
2361569005,-0.86,-0.49,0.20
2361571004,-0.86,-0.49,0.20
2361573007,-0.89,-0.54,0.10
2361575008,-0.89,-0.54,0.10
2361577107,-0.89,-0.54,0.10
2361579014,-0.89,-0.54,0.10
2361580980,-0.89,-0.54,0.10
2361582978,-0.82,-0.45,0.12
2361584981,-0.82,-0.45,0.12
2361586975,-0.82,-0.45,0.12
2361588976,-0.82,-0.45,0.12
2361590981,-0.82,-0.45,0.12
2361592980,-0.86,-0.62,0.01
2361594989,-0.86,-0.62,0.01
2361596975,-0.86,-0.62,0.01
2361598979,-0.86,-0.62,0.01
2361601115,-0.86,-0.62,0.01
2361602985,-0.84,-0.55,-0.03
2361604975,-0.84,-0.55,-0.03
2361607017,-0.84,-0.55,-0.03
2361609006,-0.84,-0.55,-0.03
2361611004,-0.84,-0.55,-0.03
2361613007,-0.81,-0.67,-0.05
2361615010,-0.81,-0.67,-0.05
2361617011,-0.81,-0.67,-0.05
2361619010,-0.81,-0.67,-0.05
2361620979,-0.81,-0.67,-0.05
2361622990,-0.86,-0.65,-0.10
2361624976,-0.86,-0.65,-0.10
2361627086,-0.86,-0.65,-0.10
2361628975,-0.86,-0.65,-0.10
2361630978,-0.86,-0.65,-0.10
2361632977,-0.88,-0.59,0.03
2361634974,-0.88,-0.59,0.03
2361636974,-0.88,-0.59,0.03
2361638979,-0.88,-0.59,0.03
2361640976,-0.88,-0.59,0.03
2361642976,-0.88,-0.51,0.28
2361644974,-0.88,-0.51,0.28
2361647013,-0.88,-0.51,0.28
2361649010,-0.88,-0.51,0.28
2361651099,-0.88,-0.51,0.28
2361653029,-0.77,-0.44,0.22
2361655041,-0.77,-0.44,0.22
2361657011,-0.77,-0.44,0.22
2361659079,-0.77,-0.44,0.22
2361661044,-0.77,-0.44,0.22
2361663009,-0.81,-0.45,0.24
2361665014,-0.81,-0.45,0.24
2361666979,-0.81,-0.45,0.24
2361668979,-0.81,-0.45,0.24
2361670976,-0.81,-0.45,0.24
2361672980,-0.77,-0.54,0.13
2361674981,-0.77,-0.54,0.13
2361677093,-0.77,-0.54,0.13
2361678976,-0.77,-0.54,0.13
2361680977,-0.77,-0.54,0.13
2361682979,-0.75,-0.52,0.16
2361684979,-0.75,-0.52,0.16
2361687039,-0.75,-0.52,0.16
2361689049,-0.75,-0.52,0.16
2361691010,-0.75,-0.52,0.16
2361693011,-0.89,-0.55,0.16
2361695016,-0.89,-0.55,0.16
2361697010,-0.89,-0.55,0.16
2361699006,-0.89,-0.55,0.16
2361701119,-0.89,-0.55,0.16
2361702990,-0.74,-0.52,0.03
2361704979,-0.74,-0.52,0.03
2361706980,-0.74,-0.52,0.03
2361708980,-0.74,-0.52,0.03
2361711067,-0.74,-0.52,0.03
2361713019,-0.74,-0.44,0.34
2361714977,-0.74,-0.44,0.34
2361716976,-0.74,-0.44,0.34
2361718974,-0.74,-0.44,0.34
2361720984,-0.74,-0.44,0.34
2361722977,-0.79,-0.54,0.20
2361724975,-0.79,-0.54,0.20
2361727134,-0.79,-0.54,0.20
2361729011,-0.79,-0.54,0.20
2361731006,-0.79,-0.54,0.20
2361733009,-0.78,-0.55,-0.05
2361735005,-0.78,-0.55,-0.05
2361737009,-0.78,-0.55,-0.05
2361739006,-0.78,-0.55,-0.05
2361740979,-0.78,-0.55,-0.05
2361742979,-0.83,-0.54,0.12
2361744979,-0.83,-0.54,0.12
2361746979,-0.83,-0.54,0.12
2361748991,-0.83,-0.54,0.12
2361751075,-0.83,-0.54,0.12
2361752987,-0.83,-0.54,0.12
2361754974,-0.76,-0.54,0.09
2361757001,-0.76,-0.54,0.09
2361759126,-0.76,-0.54,0.09
2361761014,-0.76,-0.54,0.09
2361762975,-0.76,-0.54,0.09
2361764979,-0.84,-0.48,0.11
2361767024,-0.84,-0.48,0.11
2361769008,-0.84,-0.48,0.11
2361771009,-0.84,-0.48,0.11
2361773014,-0.84,-0.48,0.11
2361775011,-0.82,-0.50,0.08
2361777125,-0.82,-0.50,0.08
2361779007,-0.82,-0.50,0.08
2361780976,-0.82,-0.50,0.08
2361782974,-0.82,-0.50,0.08
2361784978,-0.84,-0.49,0.09
2361786981,-0.84,-0.49,0.09
