timestamp,accX,accY,accZ
2457758047,-0.85,-0.54,-0.11
2457759991,-0.85,-0.54,-0.11
2457761987,-0.86,-0.56,-0.03
2457763986,-0.86,-0.56,-0.03
2457765987,-0.86,-0.56,-0.03
2457767987,-0.86,-0.56,-0.03
2457769985,-0.86,-0.56,-0.03
2457771984,-0.86,-0.52,-0.10
2457773989,-0.86,-0.52,-0.10
2457776105,-0.86,-0.52,-0.10
2457777997,-0.86,-0.52,-0.10
2457779987,-0.86,-0.52,-0.10
2457781990,-0.86,-0.52,-0.10
2457783990,-0.87,-0.51,-0.08
2457785989,-0.87,-0.51,-0.08
2457787987,-0.87,-0.51,-0.08
2457789992,-0.87,-0.51,-0.08
2457791989,-0.87,-0.51,-0.08
2457793990,-0.85,-0.50,-0.09
2457795998,-0.85,-0.50,-0.09
2457798062,-0.85,-0.50,-0.09
2457800030,-0.85,-0.50,-0.09
2457802124,-0.85,-0.50,-0.09
2457804019,-0.78,-0.50,-0.21
2457806010,-0.78,-0.50,-0.21
2457808007,-0.78,-0.50,-0.21
2457810011,-0.78,-0.50,-0.21
2457812011,-0.78,-0.50,-0.21
2457813990,-0.83,-0.55,-0.12
2457815992,-0.83,-0.55,-0.12
2457817991,-0.83,-0.55,-0.12
2457819991,-0.83,-0.55,-0.12
2457821992,-0.83,-0.55,-0.12
2457823989,-0.81,-0.57,-0.13
2457826091,-0.81,-0.57,-0.13
2457827994,-0.81,-0.57,-0.13
2457829989,-0.81,-0.57,-0.13
2457831995,-0.81,-0.57,-0.13
2457834022,-0.82,-0.59,-0.12
2457835985,-0.82,-0.59,-0.12
2457838016,-0.82,-0.59,-0.12
2457840009,-0.82,-0.59,-0.12
2457842062,-0.82,-0.59,-0.12
2457844018,-0.81,-0.58,-0.13
2457846014,-0.81,-0.58,-0.13
2457848015,-0.81,-0.58,-0.13
2457850021,-0.81,-0.58,-0.13
2457852129,-0.81,-0.58,-0.13
2457853991,-0.82,-0.57,-0.13
2457856042,-0.82,-0.57,-0.13
2457858038,-0.82,-0.57,-0.13
2457859990,-0.82,-0.57,-0.13
2457861990,-0.82,-0.57,-0.13
2457863992,-0.83,-0.59,-0.13
2457865987,-0.83,-0.59,-0.13
2457867985,-0.83,-0.59,-0.13
2457869986,-0.83,-0.59,-0.13
2457871984,-0.83,-0.59,-0.13
2457873990,-0.83,-0.55,-0.12
2457876099,-0.83,-0.55,-0.12
2457878037,-0.83,-0.55,-0.12
2457880012,-0.83,-0.55,-0.12
2457882011,-0.83,-0.55,-0.12
2457884009,-0.83,-0.55,-0.12
2457886008,-0.83,-0.55,-0.12
2457888011,-0.83,-0.55,-0.12
2457890015,-0.83,-0.55,-0.12
2457891987,-0.83,-0.55,-0.12
2457893992,-0.84,-0.54,-0.12
2457895996,-0.84,-0.54,-0.12
2457897990,-0.84,-0.54,-0.12
2457899989,-0.84,-0.54,-0.12
2457902084,-0.84,-0.54,-0.12
2457903995,-0.84,-0.54,-0.12
2457905985,-0.84,-0.54,-0.12
2457907987,-0.84,-0.54,-0.12
2457909989,-0.84,-0.54,-0.12
2457911991,-0.84,-0.54,-0.12
2457913989,-0.84,-0.55,-0.12
2457916075,-0.84,-0.55,-0.12
2457918054,-0.84,-0.55,-0.12
2457920019,-0.84,-0.55,-0.12
2457922010,-0.84,-0.55,-0.12
2457924016,-0.84,-0.55,-0.12
2457926122,-0.84,-0.55,-0.12
2457928024,-0.84,-0.55,-0.12
2457930013,-0.84,-0.55,-0.12
2457932013,-0.84,-0.55,-0.12
2457934014,-0.84,-0.56,-0.12
2457935991,-0.84,-0.56,-0.12
2457937990,-0.84,-0.56,-0.12
2457939990,-0.84,-0.56,-0.12
2457941992,-0.84,-0.56,-0.12
2457944035,-0.83,-0.54,-0.12
2457945992,-0.83,-0.54,-0.12
2457947989,-0.83,-0.54,-0.12
2457949991,-0.83,-0.54,-0.12
2457952096,-0.83,-0.54,-0.12
2457953987,-0.83,-0.53,-0.12
2457955986,-0.83,-0.53,-0.12
2457958029,-0.83,-0.53,-0.12
2457960010,-0.83,-0.53,-0.12
2457962070,-0.83,-0.53,-0.12
2457964055,-0.84,-0.54,-0.12
2457966011,-0.84,-0.54,-0.12
2457968008,-0.84,-0.54,-0.12
2457970013,-0.84,-0.54,-0.12
2457972011,-0.84,-0.54,-0.12
2457974003,-0.84,-0.54,-0.12
2457976102,-0.84,-0.54,-0.12
2457977995,-0.84,-0.54,-0.12
2457979991,-0.84,-0.54,-0.12
2457981987,-0.84,-0.54,-0.12
2457983991,-0.84,-0.54,-0.12
2457985986,-0.84,-0.55,-0.11
2457987990,-0.84,-0.55,-0.11
2457989991,-0.84,-0.55,-0.11
2457991991,-0.84,-0.55,-0.11
2457993998,-0.84,-0.55,-0.11
2457995996,-0.84,-0.55,-0.11
2457998019,-0.84,-0.55,-0.11
2458000023,-0.84,-0.55,-0.11
2458002113,-0.84,-0.55,-0.11
2458004018,-0.84,-0.55,-0.11
2458006018,-0.83,-0.55,-0.11
2458008076,-0.83,-0.55,-0.11
2458010047,-0.83,-0.55,-0.11
2458012012,-0.83,-0.55,-0.11
2458014016,-0.83,-0.55,-0.11
2458015991,-0.83,-0.55,-0.10
2458017992,-0.83,-0.55,-0.10
2458019991,-0.83,-0.55,-0.10
2458021990,-0.83,-0.55,-0.10
2458023992,-0.83,-0.55,-0.10
2458026102,-0.83,-0.54,-0.11
2458027996,-0.83,-0.54,-0.11
2458029986,-0.83,-0.54,-0.11
2458031992,-0.83,-0.54,-0.11
2458034016,-0.83,-0.54,-0.11
2458035992,-0.84,-0.54,-0.11
2458038026,-0.84,-0.54,-0.11
2458040015,-0.84,-0.54,-0.11
2458042013,-0.84,-0.54,-0.11
2458044013,-0.84,-0.54,-0.11
2458046057,-0.83,-0.54,-0.10
2458048016,-0.83,-0.54,-0.10
2458050016,-0.83,-0.54,-0.10
2458052106,-0.83,-0.54,-0.10
2458053992,-0.83,-0.54,-0.10
2458056068,-0.84,-0.54,-0.09
2458058026,-0.84,-0.54,-0.09
2458059992,-0.84,-0.54,-0.09
2458061987,-0.84,-0.54,-0.09
2458063991,-0.84,-0.54,-0.09
2458065984,-0.84,-0.54,-0.10
2458067984,-0.84,-0.54,-0.10
2458069989,-0.84,-0.54,-0.10
2458071982,-0.84,-0.54,-0.10
2458073991,-0.84,-0.54,-0.10
2458076100,-0.84,-0.54,-0.10
2458078036,-0.84,-0.54,-0.10
2458080014,-0.84,-0.54,-0.10
2458082014,-0.84,-0.54,-0.10
2458084016,-0.84,-0.54,-0.10
2458086011,-0.83,-0.54,-0.11
2458088016,-0.83,-0.54,-0.11
2458090007,-0.83,-0.54,-0.11
2458091991,-0.83,-0.54,-0.11
2458093990,-0.83,-0.54,-0.11
2458095996,-0.84,-0.54,-0.11
2458097986,-0.84,-0.54,-0.11
2458099989,-0.84,-0.54,-0.11
2458102086,-0.84,-0.54,-0.11
2458104076,-0.84,-0.54,-0.11
2458106029,-0.84,-0.54,-0.11
2458107987,-0.84,-0.54,-0.11
2458109992,-0.84,-0.54,-0.11
2458111986,-0.84,-0.54,-0.11
2458113987,-0.84,-0.54,-0.11
2458115986,-0.83,-0.54,-0.12
2458118026,-0.83,-0.54,-0.12
2458120010,-0.83,-0.54,-0.12
2458122009,-0.83,-0.54,-0.12
2458124013,-0.83,-0.54,-0.12
2458126124,-0.83,-0.55,-0.13
2458128018,-0.83,-0.55,-0.13
2458130010,-0.83,-0.55,-0.13
2458131990,-0.83,-0.55,-0.13
2458134012,-0.83,-0.55,-0.13
2458135990,-0.83,-0.55,-0.13
2458137987,-0.83,-0.55,-0.13
2458139984,-0.83,-0.55,-0.13
2458141987,-0.83,-0.55,-0.13
2458143989,-0.83,-0.55,-0.13
2458145991,-0.83,-0.55,-0.13
2458147998,-0.83,-0.55,-0.13
2458150077,-0.83,-0.55,-0.13
2458152143,-0.83,-0.55,-0.13
2458153987,-0.83,-0.55,-0.13
2458155986,-0.83,-0.55,-0.13
2458158032,-0.83,-0.55,-0.12
2458160020,-0.83,-0.55,-0.12
2458162014,-0.83,-0.55,-0.12
2458164015,-0.83,-0.55,-0.12
2458166016,-0.83,-0.55,-0.12
2458168015,-0.83,-0.55,-0.12
2458170008,-0.83,-0.55,-0.12
2458171984,-0.83,-0.55,-0.12
2458173991,-0.83,-0.55,-0.12
2458176091,-0.83,-0.55,-0.12
2458177997,-0.83,-0.56,-0.12
2458179990,-0.83,-0.56,-0.12
2458181992,-0.83,-0.56,-0.12
2458183990,-0.83,-0.56,-0.12
2458185987,-0.83,-0.56,-0.12
2458187991,-0.83,-0.55,-0.12
2458189995,-0.83,-0.55,-0.12
2458191992,-0.83,-0.55,-0.12
2458194001,-0.83,-0.55,-0.12
2458196071,-0.83,-0.55,-0.12
2458198048,-0.82,-0.55,-0.13
2458200019,-0.82,-0.55,-0.13
2458202131,-0.82,-0.55,-0.13
2458204021,-0.82,-0.55,-0.13
2458206015,-0.82,-0.55,-0.13
2458208014,-0.83,-0.56,-0.12
2458210014,-0.83,-0.56,-0.12
2458212007,-0.83,-0.56,-0.12
2458213990,-0.83,-0.56,-0.12
2458215992,-0.83,-0.56,-0.12
2458217991,-0.83,-0.55,-0.12
2458219984,-0.83,-0.55,-0.12
2458221992,-0.83,-0.55,-0.12
2458223989,-0.83,-0.55,-0.12
2458226222,-0.83,-0.55,-0.12
2458228045,-0.84,-0.54,-0.12
2458229996,-0.84,-0.54,-0.12
2458231992,-0.84,-0.54,-0.12
2458234012,-0.84,-0.54,-0.12
2458235985,-0.84,-0.54,-0.12
2458238025,-0.84,-0.54,-0.12
2458240015,-0.84,-0.54,-0.12
2458242009,-0.84,-0.54,-0.12
2458244014,-0.84,-0.54,-0.12
2458246017,-0.84,-0.54,-0.12
2458248015,-0.84,-0.54,-0.12
2458250013,-0.84,-0.54,-0.12
2458252159,-0.84,-0.54,-0.12
2458253991,-0.84,-0.54,-0.12
2458255989,-0.84,-0.54,-0.12
2458257987,-0.84,-0.54,-0.12
2458259985,-0.84,-0.54,-0.12
2458261985,-0.84,-0.54,-0.12
2458263985,-0.84,-0.54,-0.12
2458265987,-0.84,-0.54,-0.12
2458267986,-0.84,-0.54,-0.12
2458269985,-0.84,-0.54,-0.12
2458271995,-0.84,-0.54,-0.12
2458274064,-0.84,-0.54,-0.12
2458276122,-0.84,-0.54,-0.12
2458278036,-0.84,-0.54,-0.12
2458280014,-0.84,-0.54,-0.12
2458282014,-0.84,-0.54,-0.12
2458284009,-0.84,-0.54,-0.12
2458286015,-0.84,-0.54,-0.12
2458288015,-0.83,-0.54,-0.11
2458290010,-0.83,-0.54,-0.11
2458291989,-0.83,-0.54,-0.11
2458293992,-0.83,-0.54,-0.11
2458295996,-0.83,-0.54,-0.11
2458297990,-0.83,-0.55,-0.11
2458299991,-0.83,-0.55,-0.11
2458302087,-0.83,-0.55,-0.11
2458303995,-0.83,-0.55,-0.11
2458305990,-0.83,-0.55,-0.11
2458307992,-0.83,-0.55,-0.12
2458309987,-0.83,-0.55,-0.12
2458311991,-0.83,-0.55,-0.12
2458313984,-0.83,-0.55,-0.12
2458315985,-0.83,-0.55,-0.12
2458318023,-0.84,-0.55,-0.13
2458320075,-0.84,-0.55,-0.13
2458322053,-0.84,-0.55,-0.13
2458324020,-0.84,-0.55,-0.13
2458326120,-0.84,-0.55,-0.13
2458328019,-0.84,-0.54,-0.11
2458330010,-0.84,-0.54,-0.11
2458332011,-0.84,-0.54,-0.11
2458334036,-0.84,-0.54,-0.11
2458335990,-0.84,-0.54,-0.11
2458337991,-0.84,-0.54,-0.11
2458339991,-0.84,-0.54,-0.11
2458341992,-0.84,-0.54,-0.11
2458343990,-0.84,-0.54,-0.11
2458345992,-0.84,-0.54,-0.11
2458347991,-0.84,-0.54,-0.11
2458349989,-0.83,-0.54,-0.11
2458352106,-0.83,-0.54,-0.11
2458354037,-0.83,-0.54,-0.11
2458355990,-0.83,-0.54,-0.11
2458358031,-0.83,-0.54,-0.11
2458360014,-0.83,-0.55,-0.11
2458362013,-0.83,-0.55,-0.11
2458364011,-0.83,-0.55,-0.11
2458366063,-0.83,-0.55,-0.11
2458368060,-0.83,-0.55,-0.11
2458370014,-0.83,-0.55,-0.11
2458372010,-0.83,-0.55,-0.11
2458373998,-0.83,-0.55,-0.11
2458376106,-0.83,-0.55,-0.11
2458377996,-0.83,-0.55,-0.11
2458379991,-0.83,-0.55,-0.10
2458381992,-0.83,-0.55,-0.10
2458383990,-0.83,-0.55,-0.10
2458385987,-0.83,-0.55,-0.10
2458387994,-0.83,-0.55,-0.10
2458389990,-0.83,-0.55,-0.11
2458391989,-0.83,-0.55,-0.11
2458393991,-0.83,-0.55,-0.11
2458395997,-0.83,-0.55,-0.11
2458398022,-0.83,-0.55,-0.11
2458400017,-0.83,-0.55,-0.10
2458402112,-0.83,-0.55,-0.10
2458404023,-0.83,-0.55,-0.10
2458406014,-0.83,-0.55,-0.10
2458408022,-0.83,-0.55,-0.10
2458410010,-0.84,-0.55,-0.10
2458411990,-0.84,-0.55,-0.10
2458413991,-0.84,-0.55,-0.10
2458415991,-0.84,-0.55,-0.10
2458418058,-0.84,-0.55,-0.10
2458420032,-0.84,-0.55,-0.09
2458421989,-0.84,-0.55,-0.09
2458423992,-0.84,-0.55,-0.09
2458426103,-0.84,-0.55,-0.09
2458427999,-0.84,-0.55,-0.09
2458429989,-0.83,-0.55,-0.10
2458431992,-0.83,-0.55,-0.10
2458434012,-0.83,-0.55,-0.10
2458435990,-0.83,-0.55,-0.10
2458438027,-0.83,-0.55,-0.10
2458440012,-0.83,-0.55,-0.11
2458442012,-0.83,-0.55,-0.11
2458444019,-0.83,-0.55,-0.11
2458446012,-0.83,-0.55,-0.11
2458448014,-0.83,-0.55,-0.11
2458450007,-0.84,-0.55,-0.12
2458452097,-0.84,-0.55,-0.12
2458453992,-0.84,-0.55,-0.12
2458456039,-0.84,-0.55,-0.12
2458457992,-0.84,-0.55,-0.12
2458459990,-0.84,-0.54,-0.12
2458461986,-0.84,-0.54,-0.12
2458463991,-0.84,-0.54,-0.12
2458465990,-0.84,-0.54,-0.12
2458467992,-0.84,-0.54,-0.12
2458469989,-0.84,-0.54,-0.12
2458471983,-0.84,-0.54,-0.12
2458473990,-0.84,-0.54,-0.12
2458476108,-0.84,-0.54,-0.12
2458478060,-0.84,-0.54,-0.12
2458480050,-0.84,-0.54,-0.12
2458482013,-0.84,-0.54,-0.12
2458484012,-0.84,-0.54,-0.12
2458486018,-0.84,-0.54,-0.12
2458488014,-0.84,-0.54,-0.12
2458490014,-0.83,-0.55,-0.12
2458492008,-0.83,-0.55,-0.12
2458493991,-0.83,-0.55,-0.12
2458495997,-0.83,-0.55,-0.12
2458497998,-0.83,-0.55,-0.12
2458499995,-0.83,-0.55,-0.13
2458502115,-0.83,-0.55,-0.13
2458503996,-0.83,-0.55,-0.13
2458505989,-0.83,-0.55,-0.13
2458507990,-0.83,-0.55,-0.13
2458509987,-0.83,-0.55,-0.14
2458511984,-0.83,-0.55,-0.14
2458513991,-0.83,-0.55,-0.14
2458515991,-0.83,-0.55,-0.14
2458517991,-0.83,-0.55,-0.14
2458520025,-0.82,-0.55,-0.14
2458522020,-0.82,-0.55,-0.14
2458524063,-0.82,-0.55,-0.14
2458526123,-0.82,-0.55,-0.14
2458528027,-0.82,-0.55,-0.14
2458530017,-0.84,-0.55,-0.14
2458532016,-0.84,-0.55,-0.14
2458534047,-0.84,-0.55,-0.14
2458536015,-0.84,-0.55,-0.14
2458537989,-0.84,-0.55,-0.14
2458539991,-0.84,-0.55,-0.14
2458541992,-0.83,-0.55,-0.14
2458543990,-0.83,-0.55,-0.14
2458545987,-0.83,-0.55,-0.14
2458547991,-0.83,-0.55,-0.14
2458549987,-0.83,-0.55,-0.14
2458552099,-0.82,-0.56,-0.13
2458553984,-0.82,-0.56,-0.13
2458555987,-0.82,-0.56,-0.13
2458557995,-0.82,-0.56,-0.13
2458560073,-0.82,-0.56,-0.13
2458562019,-0.83,-0.55,-0.13
2458564016,-0.83,-0.55,-0.13
2458566019,-0.83,-0.55,-0.13
2458568020,-0.83,-0.55,-0.13
2458570018,-0.83,-0.55,-0.13
2458572024,-0.82,-0.55,-0.13
2458574062,-0.82,-0.55,-0.13
2458576125,-0.82,-0.55,-0.13
2458577996,-0.82,-0.55,-0.13
2458579990,-0.82,-0.55,-0.13
2458581991,-0.82,-0.56,-0.12
2458583986,-0.82,-0.56,-0.12
2458585990,-0.82,-0.56,-0.12
2458587989,-0.82,-0.56,-0.12
2458589990,-0.82,-0.56,-0.12
2458591989,-0.83,-0.55,-0.11
2458593991,-0.83,-0.55,-0.11
2458595997,-0.83,-0.55,-0.11
2458597991,-0.83,-0.55,-0.11
2458600029,-0.83,-0.55,-0.11
2458602121,-0.83,-0.56,-0.11
2458604023,-0.83,-0.56,-0.11
2458606019,-0.83,-0.56,-0.11
2458608018,-0.83,-0.56,-0.11
2458610019,-0.83,-0.56,-0.11
2458612015,-0.82,-0.56,-0.12
2458613992,-0.82,-0.56,-0.12
2458615989,-0.82,-0.56,-0.12
2458617994,-0.82,-0.56,-0.12
2458620114,-0.82,-0.56,-0.12
2458622096,-0.83,-0.56,-0.11
2458623986,-0.83,-0.56,-0.11
2458626103,-0.83,-0.56,-0.11
2458627994,-0.83,-0.56,-0.11
2458629992,-0.83,-0.56,-0.11
2458631990,-0.83,-0.55,-0.11
2458634014,-0.83,-0.55,-0.11
2458635991,-0.83,-0.55,-0.11
2458637990,-0.83,-0.55,-0.11
2458640027,-0.83,-0.55,-0.11
2458642009,-0.83,-0.55,-0.11
2458644010,-0.83,-0.55,-0.11
2458646019,-0.83,-0.55,-0.11
2458648014,-0.83,-0.55,-0.11
2458650019,-0.83,-0.55,-0.11
2458652122,-0.83,-0.55,-0.11
2458653986,-0.83,-0.55,-0.11
2458655991,-0.83,-0.55,-0.11
2458657990,-0.83,-0.55,-0.11
2458659992,-0.83,-0.55,-0.11
2458661996,-0.84,-0.54,-0.11
2458664034,-0.84,-0.54,-0.11
2458666130,-0.84,-0.54,-0.11
2458668019,-0.84,-0.54,-0.11
2458669990,-0.84,-0.54,-0.11
2458671990,-0.83,-0.54,-0.11
2458673989,-0.83,-0.54,-0.11
2458676105,-0.83,-0.54,-0.11
2458677999,-0.83,-0.54,-0.11
2458680029,-0.83,-0.54,-0.11
2458682015,-0.84,-0.54,-0.11
2458684016,-0.84,-0.54,-0.11
2458686015,-0.84,-0.54,-0.11
2458688013,-0.84,-0.54,-0.11
2458690016,-0.84,-0.54,-0.11
2458692011,-0.84,-0.54,-0.11
2458693992,-0.84,-0.54,-0.11
2458695998,-0.84,-0.54,-0.11
2458697991,-0.84,-0.54,-0.11
2458699990,-0.84,-0.54,-0.11
2458702087,-0.85,-0.52,-0.10
2458703998,-0.85,-0.52,-0.10
2458705986,-0.85,-0.52,-0.10
2458707985,-0.85,-0.52,-0.10
2458709985,-0.85,-0.52,-0.10
2458711993,-0.84,-0.53,-0.10
2458714142,-0.84,-0.53,-0.10
2458716024,-0.84,-0.53,-0.10
2458717992,-0.84,-0.53,-0.10
2458720031,-0.84,-0.53,-0.10
2458722014,-0.84,-0.53,-0.10
2458724014,-0.84,-0.53,-0.11
2458726121,-0.84,-0.53,-0.11
2458728022,-0.84,-0.53,-0.11
2458730012,-0.84,-0.53,-0.11
2458732009,-0.84,-0.53,-0.11
2458734019,-0.84,-0.53,-0.11
2458735985,-0.84,-0.53,-0.11
2458737991,-0.84,-0.53,-0.11
2458739986,-0.84,-0.53,-0.11
2458741987,-0.84,-0.53,-0.11
2458743986,-0.84,-0.54,-0.10
2458745986,-0.84,-0.54,-0.10
2458747987,-0.84,-0.54,-0.10
2458749996,-0.84,-0.54,-0.10
2458752092,-0.84,-0.54,-0.10
2458753989,-0.84,-0.54,-0.08
2458755981,-0.84,-0.54,-0.08
2458757977,-0.84,-0.54,-0.08
2458760050,-0.84,-0.54,-0.08
2458762032,-0.84,-0.54,-0.08
2458764054,-0.84,-0.54,-0.08
2458766007,-0.84,-0.54,-0.08
2458768001,-0.84,-0.54,-0.08
2458770006,-0.84,-0.54,-0.08
2458772005,-0.84,-0.54,-0.08
2458774006,-0.84,-0.55,-0.08
2458776117,-0.84,-0.55,-0.08
2458777986,-0.84,-0.55,-0.08
2458779978,-0.84,-0.55,-0.08
2458781978,-0.84,-0.55,-0.08
2458783978,-0.84,-0.55,-0.09
2458785976,-0.84,-0.55,-0.09
2458787980,-0.84,-0.55,-0.09
2458789977,-0.84,-0.55,-0.09
2458791978,-0.84,-0.55,-0.09
2458793976,-0.83,-0.55,-0.10
2458795993,-0.83,-0.55,-0.10
2458797977,-0.83,-0.55,-0.10
2458800012,-0.83,-0.55,-0.10
2458802106,-0.83,-0.55,-0.10
2458804015,-0.83,-0.57,-0.11
2458806005,-0.83,-0.57,-0.11
2458808006,-0.83,-0.57,-0.11
2458810007,-0.83,-0.57,-0.11
2458812007,-0.83,-0.57,-0.11
2458813978,-0.83,-0.55,-0.12
2458815977,-0.83,-0.55,-0.12
2458817984,-0.83,-0.55,-0.12
2458819978,-0.83,-0.55,-0.12
2458822062,-0.83,-0.55,-0.12
2458824018,-0.83,-0.54,-0.12
2458826089,-0.83,-0.54,-0.12
2458827988,-0.83,-0.54,-0.12
2458829976,-0.83,-0.54,-0.12
2458831977,-0.83,-0.54,-0.12
2458834020,-0.83,-0.54,-0.13
2458835973,-0.83,-0.54,-0.13
2458837976,-0.83,-0.54,-0.13
2458840021,-0.83,-0.54,-0.13
2458842005,-0.83,-0.54,-0.13
2458844005,-0.83,-0.54,-0.14
2458846008,-0.83,-0.54,-0.14
2458848006,-0.83,-0.54,-0.14
2458850002,-0.83,-0.54,-0.14
2458852119,-0.83,-0.54,-0.14
2458853979,-0.84,-0.54,-0.15
2458855978,-0.84,-0.54,-0.15
2458857977,-0.84,-0.54,-0.15
2458859976,-0.84,-0.54,-0.15
2458861980,-0.84,-0.54,-0.15
2458863992,-0.83,-0.54,-0.15
2458866024,-0.83,-0.54,-0.15
2458867977,-0.83,-0.54,-0.15
2458870079,-0.83,-0.54,-0.15
2458872016,-0.83,-0.54,-0.15
2458873979,-0.83,-0.54,-0.15
2458876000,-0.83,-0.54,-0.15
2458877982,-0.83,-0.54,-0.15
2458880016,-0.83,-0.54,-0.15
2458882003,-0.83,-0.54,-0.15
2458884004,-0.82,-0.55,-0.15
2458886006,-0.82,-0.55,-0.15
2458888006,-0.82,-0.55,-0.15
2458890003,-0.82,-0.55,-0.15
2458892002,-0.82,-0.55,-0.15
2458893984,-0.83,-0.55,-0.15
2458895990,-0.83,-0.55,-0.15
2458897979,-0.83,-0.55,-0.15
2458899980,-0.83,-0.55,-0.15
2458901996,-0.83,-0.55,-0.15
2458903992,-0.83,-0.55,-0.14
2458905978,-0.83,-0.55,-0.14
2458907979,-0.83,-0.55,-0.14
2458909977,-0.83,-0.55,-0.14
2458911985,-0.83,-0.55,-0.14
2458913975,-0.83,-0.55,-0.14
2458915981,-0.83,-0.56,-0.14
2458918088,-0.83,-0.56,-0.14
2458920046,-0.83,-0.56,-0.14
2458922004,-0.83,-0.56,-0.14
2458924004,-0.83,-0.56,-0.14
2458926022,-0.83,-0.55,-0.13
2458928007,-0.83,-0.55,-0.13
2458930004,-0.83,-0.55,-0.13
2458932005,-0.83,-0.55,-0.13
2458934007,-0.83,-0.55,-0.13
2458935977,-0.82,-0.56,-0.13
2458937976,-0.82,-0.56,-0.13
2458939975,-0.82,-0.56,-0.13
2458941975,-0.82,-0.56,-0.13
2458943978,-0.82,-0.56,-0.13
2458945979,-0.83,-0.56,-0.12
2458947977,-0.83,-0.56,-0.12
2458949981,-0.83,-0.56,-0.12
2458951996,-0.83,-0.56,-0.12
2458953979,-0.83,-0.56,-0.12
2458955974,-0.83,-0.56,-0.13
2458957975,-0.83,-0.56,-0.13
2458960014,-0.83,-0.56,-0.13
2458962005,-0.83,-0.56,-0.13
2458963999,-0.83,-0.56,-0.13
2458966005,-0.83,-0.55,-0.12
2458968051,-0.83,-0.55,-0.12
2458970007,-0.83,-0.55,-0.12
2458972005,-0.83,-0.55,-0.12
2458974006,-0.83,-0.55,-0.12
2458976003,-0.83,-0.56,-0.11
2458977988,-0.83,-0.56,-0.11
2458979977,-0.83,-0.56,-0.11
2458981981,-0.83,-0.56,-0.11
2458983979,-0.83,-0.56,-0.11
2458985979,-0.82,-0.55,-0.11
2458987976,-0.82,-0.55,-0.11
2458989977,-0.82,-0.55,-0.11
2458991981,-0.82,-0.55,-0.11
2458994023,-0.82,-0.55,-0.11
2458996069,-0.83,-0.55,-0.11
2458998013,-0.83,-0.55,-0.11
2459000026,-0.83,-0.55,-0.11
2459002030,-0.83,-0.55,-0.11
2459004013,-0.83,-0.55,-0.11
2459006006,-0.83,-0.55,-0.11
2459008005,-0.83,-0.55,-0.11
2459010005,-0.83,-0.55,-0.11
2459012008,-0.83,-0.55,-0.11
2459013979,-0.83,-0.55,-0.11
2459015976,-0.84,-0.55,-0.11
2459017980,-0.84,-0.55,-0.11
2459019981,-0.84,-0.55,-0.11
2459021979,-0.84,-0.55,-0.11
2459023979,-0.84,-0.55,-0.11
2459025999,-0.83,-0.55,-0.09
2459027985,-0.83,-0.55,-0.09
2459029979,-0.83,-0.55,-0.09
2459031977,-0.83,-0.55,-0.09
2459034018,-0.83,-0.55,-0.09
2459035977,-0.83,-0.55,-0.10
2459037975,-0.83,-0.55,-0.10
2459040019,-0.83,-0.55,-0.10
2459042008,-0.83,-0.55,-0.10
2459044006,-0.83,-0.55,-0.10
2459046004,-0.83,-0.55,-0.10
2459048007,-0.83,-0.55,-0.10
2459050005,-0.83,-0.55,-0.10
2459052031,-0.83,-0.55,-0.10
2459053979,-0.83,-0.55,-0.10
2459055987,-0.84,-0.55,-0.10
2459058069,-0.84,-0.55,-0.10
2459060023,-0.84,-0.55,-0.10
2459061978,-0.84,-0.55,-0.10
2459063977,-0.84,-0.55,-0.10
2459065975,-0.84,-0.54,-0.10
2459067975,-0.84,-0.54,-0.10
2459070016,-0.84,-0.54,-0.10
2459071980,-0.84,-0.54,-0.10
2459073978,-0.84,-0.54,-0.10
2459076002,-0.84,-0.53,-0.10
2459077982,-0.84,-0.53,-0.10
2459080021,-0.84,-0.53,-0.10
2459082004,-0.84,-0.53,-0.10
2459084004,-0.84,-0.53,-0.10
2459086003,-0.84,-0.53,-0.10
2459088003,-0.84,-0.53,-0.10
2459090001,-0.84,-0.53,-0.10
2459092004,-0.84,-0.53,-0.10
2459093985,-0.84,-0.53,-0.10
2459095993,-0.84,-0.53,-0.10
2459097977,-0.84,-0.53,-0.10
2459099976,-0.84,-0.53,-0.10
2459102020,-0.84,-0.53,-0.10
2459104062,-0.84,-0.53,-0.10
2459106022,-0.84,-0.53,-0.10
2459107981,-0.84,-0.53,-0.10
2459109979,-0.84,-0.53,-0.10
2459111976,-0.84,-0.53,-0.10
2459113979,-0.84,-0.53,-0.10
2459115979,-0.84,-0.53,-0.10
2459117977,-0.84,-0.53,-0.11
2459120021,-0.84,-0.53,-0.11
2459122003,-0.84,-0.53,-0.11
2459124004,-0.84,-0.53,-0.11
2459126022,-0.84,-0.53,-0.11
2459128012,-0.84,-0.53,-0.11
2459130006,-0.84,-0.53,-0.11
2459132006,-0.84,-0.53,-0.11
2459134007,-0.84,-0.53,-0.11
2459135976,-0.84,-0.53,-0.11
2459137977,-0.84,-0.53,-0.10
2459139975,-0.84,-0.53,-0.10
2459141972,-0.84,-0.53,-0.10
2459143975,-0.84,-0.53,-0.10
2459145975,-0.84,-0.53,-0.10
2459147979,-0.84,-0.54,-0.10
2459149977,-0.84,-0.54,-0.10
2459151996,-0.84,-0.54,-0.10
2459153976,-0.84,-0.54,-0.10
2459156053,-0.84,-0.54,-0.10
2459158027,-0.84,-0.54,-0.10
2459160020,-0.84,-0.54,-0.10
2459162006,-0.84,-0.54,-0.10
2459164005,-0.84,-0.54,-0.10
2459166003,-0.84,-0.54,-0.10
2459168004,-0.84,-0.54,-0.10
2459170000,-0.84,-0.54,-0.10
2459172004,-0.84,-0.54,-0.10
2459174015,-0.84,-0.54,-0.10
2459176001,-0.84,-0.54,-0.10
2459177980,-0.83,-0.55,-0.10
2459179980,-0.83,-0.55,-0.10
2459181979,-0.83,-0.55,-0.10
2459183979,-0.83,-0.55,-0.10
2459185976,-0.83,-0.55,-0.10
2459187979,-0.83,-0.55,-0.11
2459189974,-0.83,-0.55,-0.11
2459191976,-0.83,-0.55,-0.11
2459193978,-0.83,-0.55,-0.11
2459195990,-0.83,-0.55,-0.11
2459197974,-0.83,-0.55,-0.11
2459200019,-0.83,-0.55,-0.11
2459202022,-0.83,-0.55,-0.11
2459204009,-0.83,-0.55,-0.11
2459206005,-0.83,-0.55,-0.11
2459208000,-0.82,-0.56,-0.11
2459210004,-0.82,-0.56,-0.11
2459212068,-0.82,-0.56,-0.11
2459214047,-0.82,-0.56,-0.11
2459215981,-0.82,-0.56,-0.11
2459217979,-0.82,-0.56,-0.12
2459219979,-0.82,-0.56,-0.12
2459221979,-0.82,-0.56,-0.12
2459223978,-0.82,-0.56,-0.12
2459226007,-0.82,-0.56,-0.12
2459227985,-0.83,-0.57,-0.13
2459229979,-0.83,-0.57,-0.13
2459231982,-0.83,-0.57,-0.13
2459234005,-0.83,-0.57,-0.13
2459235978,-0.83,-0.57,-0.13
2459237979,-0.83,-0.56,-0.12
2459240017,-0.83,-0.56,-0.12
2459242003,-0.83,-0.56,-0.12
2459244006,-0.83,-0.56,-0.12
2459246004,-0.83,-0.56,-0.12
2459248005,-0.83,-0.56,-0.13
2459250010,-0.83,-0.56,-0.13
2459252037,-0.83,-0.56,-0.13
2459253977,-0.83,-0.56,-0.13
2459255977,-0.83,-0.56,-0.13
2459257980,-0.83,-0.55,-0.14
2459259978,-0.83,-0.55,-0.14
2459261977,-0.83,-0.55,-0.14
2459264126,-0.83,-0.55,-0.14
2459266015,-0.83,-0.55,-0.14
2459267984,-0.83,-0.55,-0.13
2459269975,-0.83,-0.55,-0.13
2459271976,-0.83,-0.55,-0.13
2459274001,-0.83,-0.55,-0.13
2459276025,-0.83,-0.55,-0.13
2459277981,-0.83,-0.55,-0.13
2459280024,-0.83,-0.55,-0.13
2459282006,-0.83,-0.55,-0.13
2459284003,-0.83,-0.55,-0.13
2459286005,-0.83,-0.55,-0.13
2459288008,-0.83,-0.55,-0.13
2459290007,-0.83,-0.54,-0.13
2459292008,-0.83,-0.54,-0.13
2459293984,-0.83,-0.54,-0.13
2459295991,-0.83,-0.54,-0.13
2459297979,-0.83,-0.54,-0.13
2459299980,-0.84,-0.55,-0.13
2459301997,-0.84,-0.55,-0.13
2459304003,-0.84,-0.55,-0.13
2459305984,-0.84,-0.55,-0.13
2459307975,-0.84,-0.55,-0.13
2459309975,-0.84,-0.54,-0.13
2459311978,-0.84,-0.54,-0.13
2459313977,-0.84,-0.54,-0.13
2459315977,-0.84,-0.54,-0.13
2459317977,-0.84,-0.54,-0.13
2459320040,-0.84,-0.54,-0.13
2459322065,-0.84,-0.54,-0.13
2459324044,-0.84,-0.54,-0.13
2459326022,-0.84,-0.54,-0.13
2459328007,-0.84,-0.54,-0.13
2459330006,-0.84,-0.54,-0.13
2459332001,-0.84,-0.54,-0.13
2459334038,-0.84,-0.54,-0.13
2459336007,-0.84,-0.54,-0.13
2459337980,-0.84,-0.54,-0.13
2459339979,-0.84,-0.54,-0.12
2459341980,-0.84,-0.54,-0.12
2459343976,-0.84,-0.54,-0.12
2459345977,-0.84,-0.54,-0.12
2459347981,-0.84,-0.54,-0.12
2459349984,-0.84,-0.54,-0.12
2459351999,-0.84,-0.54,-0.12
2459353979,-0.84,-0.54,-0.12
2459355979,-0.84,-0.54,-0.12
2459357976,-0.84,-0.54,-0.12
2459360015,-0.84,-0.55,-0.11
2459362006,-0.84,-0.55,-0.11
2459364009,-0.84,-0.55,-0.11
2459366008,-0.84,-0.55,-0.11
2459368005,-0.84,-0.55,-0.11
2459370008,-0.84,-0.54,-0.11
2459372012,-0.84,-0.54,-0.11
2459373978,-0.84,-0.54,-0.11
2459376012,-0.84,-0.54,-0.11
2459378025,-0.84,-0.54,-0.11
2459379976,-0.83,-0.54,-0.11
2459381976,-0.83,-0.54,-0.11
2459384118,-0.83,-0.54,-0.11
2459386015,-0.83,-0.54,-0.11
2459387979,-0.83,-0.54,-0.11
2459389980,-0.83,-0.54,-0.11
2459391979,-0.83,-0.54,-0.11
2459393978,-0.83,-0.54,-0.11
2459395993,-0.83,-0.54,-0.11
2459397976,-0.83,-0.54,-0.11
2459400024,-0.83,-0.54,-0.11
2459402030,-0.83,-0.54,-0.11
2459404011,-0.83,-0.54,-0.11
2459406003,-0.83,-0.54,-0.11
2459408001,-0.83,-0.54,-0.11
2459410000,-0.82,-0.55,-0.10
2459412007,-0.82,-0.55,-0.10
2459413977,-0.82,-0.55,-0.10
2459415980,-0.82,-0.55,-0.10
2459417981,-0.82,-0.55,-0.10
2459419980,-0.83,-0.54,-0.10
2459421979,-0.83,-0.54,-0.10
2459423978,-0.83,-0.54,-0.10
2459426000,-0.83,-0.54,-0.10
2459427980,-0.83,-0.54,-0.10
2459430065,-0.84,-0.55,-0.11
2459432023,-0.84,-0.55,-0.11
2459434009,-0.84,-0.55,-0.11
2459435988,-0.84,-0.55,-0.11
2459437980,-0.84,-0.55,-0.11
2459440022,-0.84,-0.56,-0.11
2459442003,-0.84,-0.56,-0.11
2459444002,-0.84,-0.56,-0.11
2459446002,-0.84,-0.56,-0.11
2459448006,-0.84,-0.56,-0.11
2459450008,-0.84,-0.55,-0.11
2459452032,-0.84,-0.55,-0.11
2459453978,-0.84,-0.55,-0.11
2459455976,-0.84,-0.55,-0.11
2459457978,-0.84,-0.55,-0.11
2459459977,-0.83,-0.55,-0.10
2459461976,-0.83,-0.55,-0.10
2459463979,-0.83,-0.55,-0.10
2459465978,-0.83,-0.55,-0.10
2459467977,-0.83,-0.55,-0.10
2459469977,-0.83,-0.55,-0.11
2459471979,-0.83,-0.55,-0.11
2459473979,-0.83,-0.55,-0.11
2459475987,-0.83,-0.55,-0.11
2459477980,-0.83,-0.55,-0.11
2459480008,-0.83,-0.55,-0.11
2459482006,-0.83,-0.55,-0.11
2459484006,-0.83,-0.55,-0.11
2459486001,-0.83,-0.55,-0.11
2459488007,-0.83,-0.55,-0.11
2459490007,-0.83,-0.55,-0.11
2459491981,-0.83,-0.54,-0.11
2459493981,-0.83,-0.54,-0.11
2459496037,-0.83,-0.54,-0.11
2459498082,-0.83,-0.54,-0.11
2459500014,-0.83,-0.54,-0.11
2459502000,-0.83,-0.55,-0.11
2459503988,-0.83,-0.55,-0.11
2459505978,-0.83,-0.55,-0.11
2459507979,-0.83,-0.55,-0.11
2459509974,-0.83,-0.55,-0.11
2459511979,-0.84,-0.55,-0.11
2459513976,-0.84,-0.55,-0.11
2459515975,-0.84,-0.55,-0.11
2459517979,-0.84,-0.55,-0.11
2459520026,-0.84,-0.55,-0.11
2459522002,-0.84,-0.54,-0.11
2459524004,-0.84,-0.54,-0.11
2459526022,-0.84,-0.54,-0.11
2459528009,-0.84,-0.54,-0.11
2459530005,-0.84,-0.54,-0.11
2459532003,-0.84,-0.54,-0.10
2459534009,-0.84,-0.54,-0.10
2459535976,-0.84,-0.54,-0.10
2459537979,-0.84,-0.54,-0.10
2459539977,-0.84,-0.54,-0.10
2459541976,-0.83,-0.54,-0.10
2459543975,-0.83,-0.54,-0.10
2459545975,-0.83,-0.54,-0.10
2459547980,-0.83,-0.54,-0.10
2459549974,-0.83,-0.54,-0.10
2459552051,-0.84,-0.54,-0.10
2459554035,-0.84,-0.54,-0.10
2459555999,-0.84,-0.54,-0.10
2459557975,-0.84,-0.54,-0.10
2459560017,-0.84,-0.54,-0.10
2459562002,-0.84,-0.54,-0.11
2459564001,-0.84,-0.54,-0.11
2459566006,-0.84,-0.54,-0.11
2459568008,-0.84,-0.54,-0.11
2459570005,-0.84,-0.54,-0.11
2459572005,-0.84,-0.54,-0.12
2459573980,-0.84,-0.54,-0.12
2459576095,-0.84,-0.54,-0.12
2459577987,-0.84,-0.54,-0.12
2459579976,-0.84,-0.54,-0.12
2459582021,-0.84,-0.54,-0.11
2459583977,-0.84,-0.54,-0.11
2459585977,-0.84,-0.54,-0.11
2459587979,-0.84,-0.54,-0.11
2459589978,-0.84,-0.54,-0.11
2459591977,-0.83,-0.55,-0.11
2459593981,-0.83,-0.55,-0.11
2459595992,-0.83,-0.55,-0.11
2459597977,-0.83,-0.55,-0.11
2459600020,-0.83,-0.55,-0.11
2459602034,-0.83,-0.55,-0.11
2459604012,-0.83,-0.55,-0.11
2459606005,-0.83,-0.55,-0.11
2459608004,-0.83,-0.55,-0.11
2459610008,-0.83,-0.55,-0.11
2459612006,-0.83,-0.55,-0.11
2459613985,-0.83,-0.55,-0.11
2459615985,-0.83,-0.55,-0.11
2459617977,-0.83,-0.55,-0.11
2459619981,-0.83,-0.55,-0.11
2459622053,-0.83,-0.55,-0.12
2459623975,-0.83,-0.55,-0.12
2459626083,-0.83,-0.55,-0.12
2459627987,-0.83,-0.55,-0.12
2459629975,-0.83,-0.55,-0.12
2459631991,-0.82,-0.55,-0.12
2459634023,-0.82,-0.55,-0.12
2459635979,-0.82,-0.55,-0.12
2459637977,-0.82,-0.55,-0.12
2459640008,-0.82,-0.55,-0.12
2459642006,-0.82,-0.56,-0.12
2459644002,-0.82,-0.56,-0.12
2459646045,-0.82,-0.56,-0.12
2459648038,-0.82,-0.56,-0.12
2459650007,-0.82,-0.56,-0.12
2459652032,-0.83,-0.56,-0.12
2459654008,-0.83,-0.56,-0.12
2459655978,-0.83,-0.56,-0.12
2459657979,-0.83,-0.56,-0.12
2459659979,-0.83,-0.56,-0.12
2459661977,-0.83,-0.56,-0.12
2459663984,-0.83,-0.56,-0.13
2459665978,-0.83,-0.56,-0.13
2459667977,-0.83,-0.56,-0.13
2459669984,-0.83,-0.56,-0.13
2459671979,-0.83,-0.56,-0.13
2459673976,-0.83,-0.56,-0.12
2459675997,-0.83,-0.56,-0.12
2459677981,-0.83,-0.56,-0.12
2459680014,-0.83,-0.56,-0.12
2459682007,-0.83,-0.56,-0.12
2459684002,-0.83,-0.56,-0.13
2459686048,-0.83,-0.56,-0.13
2459688007,-0.83,-0.56,-0.13
2459690002,-0.83,-0.56,-0.13
2459692009,-0.83,-0.56,-0.13
2459693984,-0.83,-0.55,-0.12
2459695995,-0.83,-0.55,-0.12
2459697975,-0.83,-0.55,-0.12
2459699981,-0.83,-0.55,-0.12
2459701998,-0.83,-0.55,-0.12
2459703991,-0.83,-0.55,-0.12
2459705978,-0.83,-0.55,-0.12
2459707975,-0.83,-0.55,-0.12
2459710040,-0.83,-0.55,-0.12
2459711978,-0.83,-0.55,-0.12
2459713977,-0.83,-0.55,-0.12
2459715977,-0.83,-0.55,-0.12
2459717976,-0.83,-0.55,-0.12
2459720013,-0.83,-0.55,-0.12
2459722008,-0.83,-0.55,-0.12
2459724009,-0.84,-0.55,-0.12
2459726020,-0.84,-0.55,-0.12
2459728009,-0.84,-0.55,-0.12
2459730008,-0.84,-0.55,-0.12
2459732005,-0.84,-0.55,-0.12
2459734010,-0.84,-0.55,-0.12
2459735977,-0.84,-0.55,-0.12
2459737979,-0.84,-0.55,-0.12
2459739979,-0.84,-0.55,-0.12
2459741977,-0.84,-0.55,-0.12
2459743981,-0.83,-0.55,-0.12
2459745980,-0.83,-0.55,-0.12
2459747982,-0.83,-0.55,-0.12
2459749993,-0.83,-0.55,-0.12
2459751992,-0.83,-0.55,-0.12
2459753975,-0.83,-0.55,-0.12
2459756062,-0.83,-0.55,-0.12
2459758022,-0.83,-0.55,-0.12
2459760014,-0.83,-0.55,-0.12
2459762004,-0.83,-0.55,-0.12
2459764001,-0.82,-0.56,-0.12
2459766006,-0.82,-0.56,-0.12
2459768005,-0.82,-0.56,-0.12
2459770004,-0.82,-0.56,-0.12
2459772007,-0.82,-0.56,-0.12
2459773981,-0.82,-0.55,-0.11
2459776005,-0.82,-0.55,-0.11
2459777985,-0.82,-0.55,-0.11
2459779974,-0.82,-0.55,-0.11
2459781973,-0.82,-0.55,-0.11
2459783975,-0.84,-0.54,-0.11
2459785996,-0.84,-0.54,-0.11
2459788018,-0.84,-0.54,-0.11
2459789979,-0.84,-0.54,-0.11
2459791976,-0.84,-0.54,-0.11
2459793980,-0.83,-0.54,-0.12
2459795990,-0.83,-0.54,-0.12
2459797978,-0.83,-0.54,-0.12
2459800018,-0.83,-0.54,-0.12
2459802030,-0.83,-0.54,-0.12
2459804008,-0.84,-0.54,-0.12
2459806003,-0.84,-0.54,-0.12
2459807999,-0.84,-0.54,-0.12
2459810001,-0.84,-0.54,-0.12
2459812002,-0.84,-0.54,-0.12
2459813980,-0.84,-0.54,-0.12
2459815980,-0.84,-0.54,-0.12
2459817980,-0.84,-0.54,-0.12
2459819977,-0.84,-0.54,-0.12
2459821980,-0.84,-0.54,-0.12
2459823975,-0.84,-0.54,-0.11
2459825997,-0.84,-0.54,-0.11
2459827982,-0.84,-0.54,-0.11
2459829979,-0.84,-0.54,-0.11
2459831981,-0.84,-0.54,-0.11
2459834018,-0.84,-0.54,-0.11
2459835976,-0.84,-0.54,-0.11
2459837977,-0.84,-0.54,-0.11
2459840006,-0.84,-0.54,-0.11
2459842003,-0.84,-0.54,-0.11
2459844003,-0.84,-0.54,-0.11
2459846076,-0.84,-0.54,-0.11
2459848076,-0.84,-0.54,-0.11
2459849993,-0.84,-0.54,-0.11
2459851988,-0.84,-0.54,-0.11
2459853957,-0.84,-0.54,-0.11
2459855956,-0.84,-0.54,-0.11
2459857957,-0.84,-0.54,-0.11
2459859957,-0.84,-0.54,-0.11
2459861956,-0.84,-0.54,-0.11
2459863956,-0.84,-0.54,-0.11
2459865957,-0.84,-0.54,-0.11
2459867952,-0.84,-0.54,-0.11
2459869957,-0.84,-0.54,-0.11
2459871957,-0.84,-0.54,-0.11
2459873957,-0.84,-0.54,-0.11
2459875965,-0.84,-0.54,-0.11
2459877963,-0.84,-0.54,-0.11
2459879956,-0.84,-0.54,-0.11
2459881956,-0.84,-0.54,-0.11
2459883956,-0.84,-0.54,-0.11
2459885956,-0.84,-0.54,-0.10
2459887956,-0.84,-0.54,-0.10
2459918059,-0.84,-0.55,-0.11
2459920007,-0.84,-0.55,-0.11
2459922007,-0.84,-0.55,-0.11
2459924008,-0.84,-0.55,-0.11
2459926020,-0.83,-0.55,-0.11
2459928004,-0.83,-0.55,-0.11
2459930006,-0.83,-0.55,-0.11
2459932004,-0.83,-0.55,-0.11
2459934011,-0.83,-0.55,-0.11
2459935981,-0.84,-0.55,-0.11
2459937976,-0.84,-0.55,-0.11
2459939979,-0.84,-0.55,-0.11
2459941976,-0.84,-0.55,-0.11
2459943979,-0.84,-0.55,-0.11
2459946011,-0.84,-0.54,-0.11
2459947980,-0.84,-0.54,-0.11
2459949979,-0.84,-0.54,-0.11
2459951999,-0.84,-0.54,-0.11
2459953977,-0.84,-0.54,-0.11
2459955975,-0.83,-0.54,-0.11
2459958018,-0.83,-0.54,-0.11
2459960010,-0.83,-0.54,-0.11
2459962002,-0.83,-0.54,-0.11
2459964003,-0.83,-0.54,-0.11
2459966002,-0.82,-0.55,-0.11
2459968004,-0.82,-0.55,-0.11
2459969989,-0.82,-0.55,-0.11
2459971977,-0.82,-0.55,-0.11
2459973980,-0.82,-0.55,-0.11
2459976088,-0.83,-0.55,-0.12
2459977987,-0.83,-0.55,-0.12
2459979975,-0.83,-0.55,-0.12
2459982029,-0.83,-0.55,-0.12
2459984042,-0.83,-0.55,-0.12
2459985981,-0.83,-0.55,-0.12
2459987976,-0.83,-0.55,-0.12
2459989984,-0.83,-0.55,-0.12
2459992020,-0.83,-0.55,-0.12
2459993985,-0.83,-0.55,-0.12
2459995993,-0.83,-0.55,-0.11
2459998022,-0.83,-0.55,-0.11
2460000015,-0.83,-0.55,-0.11
2460002031,-0.83,-0.55,-0.11
2460004014,-0.83,-0.55,-0.11
2460006006,-0.83,-0.55,-0.11
2460008005,-0.83,-0.55,-0.11
2460010010,-0.83,-0.55,-0.11
2460011979,-0.83,-0.55,-0.11
2460013981,-0.83,-0.55,-0.11
2460015978,-0.84,-0.55,-0.12
2460017979,-0.84,-0.55,-0.12
2460019978,-0.84,-0.55,-0.12
2460021979,-0.84,-0.55,-0.12
2460023979,-0.84,-0.55,-0.12
2460026094,-0.84,-0.55,-0.12
2460027987,-0.84,-0.55,-0.12
2460029978,-0.84,-0.55,-0.12
2460031978,-0.84,-0.55,-0.12
2460034013,-0.84,-0.55,-0.12
2460035978,-0.84,-0.55,-0.12
2460038012,-0.84,-0.55,-0.12
2460040009,-0.84,-0.55,-0.12
2460042007,-0.84,-0.55,-0.12
2460044004,-0.84,-0.55,-0.12
2460046006,-0.84,-0.55,-0.12
2460048005,-0.84,-0.55,-0.13
2460049993,-0.84,-0.55,-0.13
2460051997,-0.84,-0.55,-0.13
2460053978,-0.84,-0.55,-0.13
2460055975,-0.84,-0.55,-0.13
2460057984,-0.83,-0.54,-0.13
2460059979,-0.83,-0.54,-0.13
2460061978,-0.83,-0.54,-0.13
2460064061,-0.83,-0.54,-0.13
2460066021,-0.83,-0.54,-0.13
2460067975,-0.83,-0.54,-0.14
2460069975,-0.83,-0.54,-0.14
2460071976,-0.83,-0.54,-0.14
2460073974,-0.83,-0.54,-0.14
2460076001,-0.83,-0.54,-0.14
2460078021,-0.83,-0.54,-0.13
2460080004,-0.83,-0.54,-0.13
2460082002,-0.83,-0.54,-0.13
2460084006,-0.83,-0.54,-0.13
2460086001,-0.83,-0.54,-0.13
2460088002,-0.84,-0.54,-0.12
2460090006,-0.84,-0.54,-0.12
2460091984,-0.84,-0.54,-0.12
2460094024,-0.84,-0.54,-0.12
2460095992,-0.84,-0.54,-0.12
2460097974,-0.84,-0.54,-0.11
2460099981,-0.84,-0.54,-0.11
2460101999,-0.84,-0.54,-0.11
2460103989,-0.84,-0.54,-0.11
2460105977,-0.84,-0.54,-0.11
2460107979,-0.83,-0.55,-0.11
2460109979,-0.83,-0.55,-0.11
2460111977,-0.83,-0.55,-0.11
2460113977,-0.83,-0.55,-0.11
2460115981,-0.83,-0.55,-0.11
2460118017,-0.83,-0.55,-0.11
2460120001,-0.83,-0.55,-0.11
2460122002,-0.83,-0.55,-0.11
2460124007,-0.83,-0.55,-0.11
2460126014,-0.83,-0.55,-0.11
2460128008,-0.83,-0.55,-0.12
2460130003,-0.83,-0.55,-0.12
2460131982,-0.83,-0.55,-0.12
2460134021,-0.83,-0.55,-0.12
2460135975,-0.83,-0.55,-0.12
2460137979,-0.82,-0.56,-0.12
2460139976,-0.82,-0.56,-0.12
2460141976,-0.82,-0.56,-0.12
2460143975,-0.82,-0.56,-0.12
2460145977,-0.82,-0.56,-0.12
2460147976,-0.82,-0.55,-0.12
2460149980,-0.82,-0.55,-0.12
2460151999,-0.82,-0.55,-0.12
2460153977,-0.82,-0.55,-0.12
2460155983,-0.82,-0.55,-0.12
2460158014,-0.83,-0.55,-0.11
2460160006,-0.83,-0.55,-0.11
2460162005,-0.83,-0.55,-0.11
2460164034,-0.83,-0.55,-0.11
2460166033,-0.83,-0.55,-0.11
2460168011,-0.84,-0.55,-0.11
2460170004,-0.84,-0.55,-0.11
2460172009,-0.84,-0.55,-0.11
2460173975,-0.84,-0.55,-0.11
2460176004,-0.84,-0.55,-0.11
2460177982,-0.84,-0.56,-0.11
2460179976,-0.84,-0.56,-0.11
2460182034,-0.84,-0.56,-0.11
2460184007,-0.84,-0.56,-0.11
2460185971,-0.84,-0.56,-0.11
2460187975,-0.84,-0.55,-0.12
2460189974,-0.84,-0.55,-0.12
2460191976,-0.84,-0.55,-0.12
2460193984,-0.84,-0.55,-0.12
2460195992,-0.84,-0.55,-0.12
2460198042,-0.83,-0.55,-0.11
2460200006,-0.83,-0.55,-0.11
2460202028,-0.83,-0.55,-0.11
2460204013,-0.83,-0.55,-0.11
2460206003,-0.83,-0.55,-0.11
2460208000,-0.83,-0.55,-0.11
2460210006,-0.83,-0.55,-0.11
2460211979,-0.83,-0.55,-0.11
2460213981,-0.83,-0.55,-0.11
2460215981,-0.83,-0.55,-0.11
2460217977,-0.83,-0.55,-0.11
2460219980,-0.83,-0.55,-0.11
2460221983,-0.83,-0.55,-0.11
2460223984,-0.83,-0.55,-0.11
2460226170,-0.83,-0.55,-0.11
2460228094,-0.83,-0.55,-0.11
2460230067,-0.83,-0.55,-0.11
2460232036,-0.83,-0.55,-0.11
2460234021,-0.83,-0.55,-0.11
2460235979,-0.83,-0.55,-0.11
2460238021,-0.83,-0.55,-0.11
2460240005,-0.83,-0.55,-0.12
2460242003,-0.83,-0.55,-0.12
2460244006,-0.83,-0.55,-0.12
2460246004,-0.83,-0.55,-0.12
2460248002,-0.83,-0.55,-0.12
2460250013,-0.84,-0.55,-0.12
2460252003,-0.84,-0.55,-0.12
2460253979,-0.84,-0.55,-0.12
2460255979,-0.84,-0.55,-0.12
2460257979,-0.84,-0.55,-0.12
2460259976,-0.84,-0.54,-0.11
2460261976,-0.84,-0.54,-0.11
2460263979,-0.84,-0.54,-0.11
2460265976,-0.84,-0.54,-0.11
2460267979,-0.84,-0.54,-0.11
2460269979,-0.84,-0.54,-0.11
2460271979,-0.84,-0.54,-0.11
2460273976,-0.84,-0.54,-0.11
2460275987,-0.84,-0.54,-0.11
2460278013,-0.84,-0.54,-0.11
2460280006,-0.83,-0.54,-0.11
2460282005,-0.83,-0.54,-0.11
2460284007,-0.83,-0.54,-0.11
2460286008,-0.83,-0.54,-0.11
2460288026,-0.83,-0.54,-0.11
2460290059,-0.84,-0.53,-0.11
2460292028,-0.84,-0.53,-0.11
2460293978,-0.84,-0.53,-0.11
2460295989,-0.84,-0.53,-0.11
2460297993,-0.84,-0.53,-0.11
2460300018,-0.83,-0.54,-0.11
2460302001,-0.83,-0.54,-0.11
2460303988,-0.83,-0.54,-0.11
2460305979,-0.83,-0.54,-0.11
2460307975,-0.83,-0.54,-0.11
2460309976,-0.83,-0.54,-0.11
2460311981,-0.83,-0.54,-0.11
2460313976,-0.83,-0.54,-0.11
2460315978,-0.83,-0.54,-0.11
2460318023,-0.83,-0.54,-0.11
2460320006,-0.83,-0.55,-0.12
2460322005,-0.83,-0.55,-0.12
2460324004,-0.83,-0.55,-0.12
2460326015,-0.83,-0.55,-0.12
2460328007,-0.83,-0.55,-0.12
2460330006,-0.83,-0.55,-0.11
2460331983,-0.83,-0.55,-0.11
2460334011,-0.83,-0.55,-0.11
2460336043,-0.83,-0.55,-0.11
2460338042,-0.83,-0.55,-0.11
2460339980,-0.83,-0.55,-0.11
2460341978,-0.83,-0.55,-0.11
2460343974,-0.83,-0.55,-0.11
2460345977,-0.83,-0.55,-0.11
2460347977,-0.83,-0.55,-0.11
2460349977,-0.82,-0.55,-0.11
2460351999,-0.82,-0.55,-0.11
2460353981,-0.82,-0.55,-0.11
2460355975,-0.82,-0.55,-0.11
2460358024,-0.82,-0.55,-0.11
2460360004,-0.83,-0.55,-0.11
2460362005,-0.83,-0.55,-0.11
2460364008,-0.83,-0.55,-0.11
2460366006,-0.83,-0.55,-0.11
2460368007,-0.83,-0.55,-0.11
2460370001,-0.83,-0.55,-0.11
2460371973,-0.83,-0.55,-0.11
2460373977,-0.83,-0.55,-0.11
2460376088,-0.83,-0.55,-0.11
2460377986,-0.83,-0.55,-0.11
2460379975,-0.83,-0.55,-0.11
2460381973,-0.83,-0.55,-0.11
2460384093,-0.83,-0.55,-0.11
2460386020,-0.83,-0.55,-0.11
2460387978,-0.83,-0.55,-0.11
2460389978,-0.83,-0.55,-0.11
2460391979,-0.83,-0.55,-0.11
2460393980,-0.83,-0.55,-0.11
2460395989,-0.83,-0.55,-0.11
2460398020,-0.83,-0.55,-0.11
2460400002,-0.83,-0.55,-0.12
2460402079,-0.83,-0.55,-0.12
2460404012,-0.83,-0.55,-0.12
2460406002,-0.83,-0.55,-0.12
2460408004,-0.83,-0.55,-0.12
2460410002,-0.83,-0.55,-0.12
2460411994,-0.83,-0.55,-0.12
2460413981,-0.83,-0.55,-0.12
2460415979,-0.83,-0.55,-0.12
2460417979,-0.83,-0.55,-0.12
2460419979,-0.83,-0.55,-0.12
2460421979,-0.83,-0.55,-0.12
2460423976,-0.83,-0.55,-0.12
2460426091,-0.83,-0.55,-0.12
2460427989,-0.83,-0.55,-0.12
2460429976,-0.83,-0.55,-0.12
2460431978,-0.83,-0.55,-0.12
2460434013,-0.83,-0.55,-0.12
2460435975,-0.83,-0.55,-0.12
2460438019,-0.83,-0.55,-0.12
2460440003,-0.83,-0.55,-0.12
2460442007,-0.83,-0.54,-0.12
2460444005,-0.83,-0.54,-0.12
2460446004,-0.83,-0.54,-0.12
2460448001,-0.83,-0.54,-0.12
2460450005,-0.83,-0.54,-0.12
2460452000,-0.84,-0.54,-0.12
2460453979,-0.84,-0.54,-0.12
2460455977,-0.84,-0.54,-0.12
2460457977,-0.84,-0.54,-0.12
2460459977,-0.84,-0.54,-0.12
2460461978,-0.84,-0.54,-0.12
2460463977,-0.84,-0.54,-0.12
2460465979,-0.84,-0.54,-0.12
2460467973,-0.84,-0.54,-0.12
2460469978,-0.84,-0.54,-0.12
2460471977,-0.84,-0.55,-0.12
2460473979,-0.84,-0.55,-0.12
2460475990,-0.84,-0.55,-0.12
2460478012,-0.84,-0.55,-0.12
2460480003,-0.84,-0.55,-0.12
2460482001,-0.84,-0.54,-0.12
2460484110,-0.84,-0.54,-0.12
2460486029,-0.84,-0.54,-0.12
2460488006,-0.84,-0.54,-0.12
2460490004,-0.84,-0.54,-0.12
2460492002,-0.83,-0.55,-0.12
2460493979,-0.83,-0.55,-0.12
2460495991,-0.83,-0.55,-0.12
2460497994,-0.83,-0.55,-0.12
2460499991,-0.83,-0.55,-0.12
2460502004,-0.84,-0.55,-0.11
2460504026,-0.84,-0.55,-0.11
2460505977,-0.84,-0.55,-0.11
2460507978,-0.84,-0.55,-0.11
2460509975,-0.84,-0.55,-0.11
2460511979,-0.83,-0.55,-0.12
2460513978,-0.83,-0.55,-0.12
2460515978,-0.83,-0.55,-0.12
2460518020,-0.83,-0.55,-0.12
2460520006,-0.83,-0.55,-0.12
2460522005,-0.83,-0.55,-0.12
2460524002,-0.83,-0.55,-0.12
2460526023,-0.83,-0.55,-0.12
2460528010,-0.83,-0.55,-0.12
2460530057,-0.83,-0.55,-0.12
2460531995,-0.83,-0.55,-0.12
2460534008,-0.83,-0.55,-0.12
2460535980,-0.83,-0.55,-0.12
2460537980,-0.83,-0.55,-0.12
2460539979,-0.83,-0.55,-0.12
2460541978,-0.83,-0.55,-0.12
2460543977,-0.83,-0.55,-0.12
2460545974,-0.83,-0.55,-0.12
2460547979,-0.83,-0.55,-0.12
2460549977,-0.83,-0.55,-0.12
2460552005,-0.83,-0.54,-0.12
2460553975,-0.83,-0.54,-0.12
2460555977,-0.83,-0.54,-0.12
2460558017,-0.83,-0.54,-0.12
2460560003,-0.83,-0.54,-0.12
2460562003,-0.83,-0.54,-0.11
2460564002,-0.83,-0.54,-0.11
2460566002,-0.83,-0.54,-0.11
2460568004,-0.83,-0.54,-0.11
2460569981,-0.83,-0.54,-0.11
2460571979,-0.83,-0.55,-0.12
2460573979,-0.83,-0.55,-0.12
2460576058,-0.83,-0.55,-0.12
2460578027,-0.83,-0.55,-0.12
2460579975,-0.83,-0.55,-0.12
2460581979,-0.83,-0.55,-0.12
2460583977,-0.83,-0.55,-0.12
2460585977,-0.83,-0.55,-0.12
2460587975,-0.83,-0.55,-0.12
2460589976,-0.83,-0.55,-0.12
2460591977,-0.83,-0.55,-0.12
2460593978,-0.83,-0.55,-0.12
2460595992,-0.83,-0.55,-0.12
2460598022,-0.83,-0.55,-0.12
2460600004,-0.83,-0.55,-0.12
2460602028,-0.83,-0.55,-0.12
2460604011,-0.83,-0.55,-0.12
2460606047,-0.83,-0.55,-0.12
2460608007,-0.83,-0.55,-0.12
2460610004,-0.83,-0.55,-0.12
2460612000,-0.83,-0.55,-0.12
2460613979,-0.84,-0.55,-0.12
2460615981,-0.84,-0.55,-0.12
2460617977,-0.84,-0.55,-0.12
2460619976,-0.84,-0.55,-0.12
2460622056,-0.84,-0.55,-0.12
2460623977,-0.83,-0.55,-0.11
2460626002,-0.83,-0.55,-0.11
2460627980,-0.83,-0.55,-0.11
2460629978,-0.83,-0.55,-0.11
2460631979,-0.83,-0.55,-0.11
2460634018,-0.84,-0.54,-0.11
2460635975,-0.84,-0.54,-0.11
2460638013,-0.84,-0.54,-0.11
2460640005,-0.84,-0.54,-0.11
2460642002,-0.84,-0.54,-0.11
2460643999,-0.84,-0.55,-0.11
2460645998,-0.84,-0.55,-0.11
2460648000,-0.84,-0.55,-0.11
2460649997,-0.84,-0.55,-0.11
2460652002,-0.84,-0.55,-0.11
2460653979,-0.84,-0.55,-0.12
2460655977,-0.84,-0.55,-0.12
2460657978,-0.84,-0.55,-0.12
2460659981,-0.84,-0.55,-0.12
2460661979,-0.84,-0.55,-0.12
2460663978,-0.84,-0.55,-0.11
2460665980,-0.84,-0.55,-0.11
2460667977,-0.84,-0.55,-0.11
2460669977,-0.84,-0.55,-0.11
2460671976,-0.84,-0.55,-0.11
2460673975,-0.84,-0.54,-0.12
2460675989,-0.84,-0.54,-0.12
2460678006,-0.84,-0.54,-0.12
2460680004,-0.84,-0.54,-0.12
2460682001,-0.84,-0.54,-0.12
2460684079,-0.83,-0.54,-0.11
2460686078,-0.83,-0.54,-0.11
2460687989,-0.83,-0.54,-0.11
2460689957,-0.83,-0.54,-0.11
2460691957,-0.83,-0.54,-0.11
2460693957,-0.84,-0.54,-0.11
2460695989,-0.84,-0.54,-0.11
2460697957,-0.84,-0.54,-0.11
2460699957,-0.84,-0.54,-0.11
2460701988,-0.84,-0.54,-0.11
2460703976,-0.83,-0.55,-0.12
2460705958,-0.83,-0.55,-0.12
2460707987,-0.83,-0.55,-0.12
2460710014,-0.83,-0.55,-0.12
2460711960,-0.83,-0.55,-0.12
2460713957,-0.82,-0.55,-0.11
2460715957,-0.82,-0.55,-0.11
2460717957,-0.82,-0.55,-0.11
2460719958,-0.82,-0.55,-0.11
2460721957,-0.82,-0.55,-0.11
2460723958,-0.83,-0.55,-0.12
2460725976,-0.83,-0.55,-0.12
2460738048,-0.84,-0.55,-0.12
2460740006,-0.84,-0.55,-0.12
2460742005,-0.84,-0.55,-0.12
2460744002,-0.84,-0.55,-0.12
2460746009,-0.84,-0.55,-0.12
2460748006,-0.84,-0.55,-0.12
2460750006,-0.84,-0.55,-0.12
2460752030,-0.84,-0.55,-0.12
2460754008,-0.84,-0.55,-0.12
2460755976,-0.84,-0.55,-0.12
2460757984,-0.84,-0.55,-0.12
2460759980,-0.84,-0.55,-0.12
2460761978,-0.84,-0.55,-0.12
2460763979,-0.84,-0.55,-0.12
2460765979,-0.84,-0.55,-0.12
2460767981,-0.84,-0.55,-0.12
2460769976,-0.84,-0.55,-0.12
2460771981,-0.84,-0.55,-0.12
2460773980,-0.84,-0.55,-0.12
2460776089,-0.84,-0.55,-0.12
2460778010,-0.84,-0.55,-0.12
2460780006,-0.84,-0.55,-0.12
2460782002,-0.84,-0.55,-0.12
2460784004,-0.84,-0.54,-0.11
2460786003,-0.84,-0.54,-0.11
2460788016,-0.84,-0.54,-0.11
2460790049,-0.84,-0.54,-0.11
2460792031,-0.84,-0.54,-0.11
2460793980,-0.84,-0.54,-0.11
2460795992,-0.84,-0.54,-0.11
2460797977,-0.84,-0.54,-0.11
2460799975,-0.84,-0.54,-0.11
2460801998,-0.84,-0.54,-0.11
2460803988,-0.84,-0.54,-0.11
2460805975,-0.84,-0.55,-0.11
2460807976,-0.84,-0.55,-0.11
2460809994,-0.84,-0.55,-0.11
2460812037,-0.84,-0.55,-0.11
2460813980,-0.84,-0.55,-0.11
2460815977,-0.84,-0.54,-0.12
2460818021,-0.84,-0.54,-0.12
2460820006,-0.84,-0.54,-0.12
2460822003,-0.84,-0.54,-0.12
2460824006,-0.84,-0.54,-0.12
2460826108,-0.83,-0.55,-0.12
2460828014,-0.83,-0.55,-0.12
2460830008,-0.83,-0.55,-0.12
2460831980,-0.83,-0.55,-0.12
2460834005,-0.83,-0.55,-0.12
2460835977,-0.83,-0.55,-0.12
2460837976,-0.83,-0.55,-0.12
2460839980,-0.83,-0.55,-0.12
2460841976,-0.83,-0.55,-0.12
2460843978,-0.83,-0.55,-0.12
2460845977,-0.82,-0.56,-0.12
2460847976,-0.82,-0.56,-0.12
2460849979,-0.82,-0.56,-0.12
2460851998,-0.82,-0.56,-0.12
2460853977,-0.82,-0.56,-0.12
2460855976,-0.83,-0.55,-0.12
2460858011,-0.83,-0.55,-0.12
2460860004,-0.83,-0.55,-0.12
2460862002,-0.83,-0.55,-0.12
2460864004,-0.83,-0.55,-0.12
2460866005,-0.83,-0.55,-0.12
2460868004,-0.83,-0.55,-0.12
2460870012,-0.83,-0.55,-0.12
2460871979,-0.83,-0.55,-0.12
2460873979,-0.83,-0.55,-0.12
2460875996,-0.83,-0.55,-0.12
2460877985,-0.83,-0.55,-0.12
2460879974,-0.83,-0.55,-0.12
2460881977,-0.83,-0.55,-0.12
2460883981,-0.83,-0.55,-0.12
2460885978,-0.82,-0.55,-0.11
2460887975,-0.82,-0.55,-0.11
2460889981,-0.82,-0.55,-0.11
2460891980,-0.82,-0.55,-0.11
2460893985,-0.82,-0.55,-0.11
2460895993,-0.83,-0.55,-0.11
2460898013,-0.83,-0.55,-0.11
2460900003,-0.83,-0.55,-0.11
2460902040,-0.83,-0.55,-0.11
2460904023,-0.83,-0.55,-0.11
2460905956,-0.83,-0.55,-0.11
2460907957,-0.83,-0.55,-0.11
2460909957,-0.83,-0.55,-0.11
2460911959,-0.83,-0.55,-0.11
2460914024,-0.83,-0.55,-0.11
2460915959,-0.82,-0.55,-0.11
2460917958,-0.82,-0.55,-0.11
2460919958,-0.82,-0.55,-0.11
2460921958,-0.82,-0.55,-0.11
2460923958,-0.82,-0.55,-0.11
2460925979,-0.83,-0.55,-0.11
2460927966,-0.83,-0.55,-0.11
2460929957,-0.83,-0.55,-0.11
2460931961,-0.83,-0.55,-0.11
2460933999,-0.83,-0.55,-0.11
2460935957,-0.83,-0.55,-0.12
2460937982,-0.83,-0.55,-0.12
2460940053,-0.83,-0.55,-0.12
2460942004,-0.83,-0.55,-0.12
2460944008,-0.83,-0.55,-0.12
2460946001,-0.83,-0.55,-0.12
2460948014,-0.83,-0.55,-0.12
2460950008,-0.83,-0.55,-0.12
2460952034,-0.83,-0.55,-0.12
2460954007,-0.83,-0.55,-0.12
2460956009,-0.83,-0.55,-0.12
2460958009,-0.83,-0.55,-0.12
2460960004,-0.83,-0.55,-0.12
2460962008,-0.83,-0.55,-0.12
2460963981,-0.83,-0.55,-0.12
2460965977,-0.84,-0.55,-0.11
2460967976,-0.84,-0.55,-0.11
2460969980,-0.84,-0.55,-0.11
2460971980,-0.84,-0.55,-0.11
2460973979,-0.84,-0.55,-0.11
2460975994,-0.84,-0.54,-0.11
2460977982,-0.84,-0.54,-0.11
2460979976,-0.84,-0.54,-0.11
2460981977,-0.84,-0.54,-0.11
2460983976,-0.84,-0.54,-0.11
2460985984,-0.84,-0.54,-0.11
2460988017,-0.84,-0.54,-0.11
2460990008,-0.84,-0.54,-0.11
2460992023,-0.84,-0.54,-0.11
2460994056,-0.84,-0.54,-0.11
2460996035,-0.84,-0.54,-0.11
2460998011,-0.84,-0.55,-0.12
2461000016,-0.84,-0.55,-0.12
2461002036,-0.84,-0.55,-0.12
2461004016,-0.84,-0.55,-0.12
2461005979,-0.84,-0.55,-0.12
2461007983,-0.83,-0.55,-0.11
2461009980,-0.83,-0.55,-0.11
2461011979,-0.83,-0.55,-0.11
2461014039,-0.83,-0.55,-0.11
2461016014,-0.83,-0.55,-0.11
2461017979,-0.84,-0.54,-0.11
2461019977,-0.84,-0.54,-0.11
2461021978,-0.84,-0.54,-0.11
2461023976,-0.84,-0.54,-0.11
2461026002,-0.84,-0.54,-0.11
2461028023,-0.83,-0.55,-0.10
2461030005,-0.83,-0.55,-0.10
2461032004,-0.83,-0.55,-0.10
2461034048,-0.83,-0.55,-0.10
2461036009,-0.83,-0.55,-0.10
2461038008,-0.84,-0.54,-0.10
2461040009,-0.84,-0.54,-0.10
2461041975,-0.84,-0.54,-0.10
2461043979,-0.84,-0.54,-0.10
2461045977,-0.84,-0.54,-0.10
2461047977,-0.84,-0.54,-0.11
2461049981,-0.84,-0.54,-0.11
2461052000,-0.84,-0.54,-0.11
2461053981,-0.84,-0.54,-0.11
2461055976,-0.84,-0.54,-0.11
2461057979,-0.83,-0.55,-0.11
2461059978,-0.83,-0.55,-0.11
2461061975,-0.83,-0.55,-0.11
2461063977,-0.83,-0.55,-0.11
2461065979,-0.83,-0.55,-0.11
2461068015,-0.82,-0.55,-0.12
2461070008,-0.82,-0.55,-0.12
2461072005,-0.82,-0.55,-0.12
2461074006,-0.82,-0.55,-0.12
2461076015,-0.82,-0.55,-0.12
2461078013,-0.82,-0.55,-0.12
2461079976,-0.82,-0.55,-0.12
2461081976,-0.82,-0.55,-0.12
2461083980,-0.82,-0.55,-0.12
2461085977,-0.82,-0.55,-0.12
2461087979,-0.82,-0.55,-0.11
2461089977,-0.82,-0.55,-0.11
2461091975,-0.82,-0.55,-0.11
2461093984,-0.82,-0.55,-0.11
2461095991,-0.82,-0.55,-0.11
2461097976,-0.83,-0.55,-0.11
2461099979,-0.83,-0.55,-0.11
2461101996,-0.83,-0.55,-0.11
2461103991,-0.83,-0.55,-0.11
2461105974,-0.83,-0.55,-0.11
2461108074,-0.83,-0.55,-0.12
2461110027,-0.83,-0.55,-0.12
2461112024,-0.83,-0.55,-0.12
2461113991,-0.83,-0.55,-0.12
2461115957,-0.83,-0.55,-0.12
2461118021,-0.83,-0.54,-0.11
2461119962,-0.83,-0.54,-0.11
2461121957,-0.83,-0.54,-0.11
2461123958,-0.83,-0.54,-0.11
2461125987,-0.83,-0.54,-0.11
2461127965,-0.83,-0.56,-0.12
2461129957,-0.83,-0.56,-0.12
2461131959,-0.83,-0.56,-0.12
2461134007,-0.83,-0.56,-0.12
2461135954,-0.83,-0.56,-0.12
2461137957,-0.83,-0.56,-0.12
2461139970,-0.83,-0.56,-0.12
2461141972,-0.83,-0.56,-0.12
2461144076,-0.83,-0.56,-0.12
2461146045,-0.83,-0.56,-0.12
2461148038,-0.82,-0.56,-0.12
2461150008,-0.82,-0.56,-0.12
2461152039,-0.82,-0.56,-0.12
2461154009,-0.82,-0.56,-0.12
2461156003,-0.82,-0.56,-0.12
2461158019,-0.83,-0.55,-0.11
2461160009,-0.83,-0.55,-0.11
2461162009,-0.83,-0.55,-0.11
2461164006,-0.83,-0.55,-0.11
2461166007,-0.83,-0.55,-0.11
2461168006,-0.82,-0.55,-0.12
2461170006,-0.82,-0.55,-0.12
2461172011,-0.82,-0.55,-0.12
2461173975,-0.82,-0.55,-0.12
2461176091,-0.82,-0.55,-0.12
2461177986,-0.83,-0.55,-0.11
2461179974,-0.83,-0.55,-0.11
2461181975,-0.83,-0.55,-0.11
2461183976,-0.83,-0.55,-0.11
2461185978,-0.83,-0.55,-0.11
2461187976,-0.83,-0.55,-0.11
2461189978,-0.83,-0.55,-0.11
2461192037,-0.83,-0.55,-0.11
2461194028,-0.83,-0.55,-0.11
2461195993,-0.83,-0.55,-0.11
2461198021,-0.83,-0.55,-0.11
2461200002,-0.83,-0.55,-0.12
2461202030,-0.83,-0.55,-0.12
2461204013,-0.83,-0.55,-0.12
2461206008,-0.83,-0.55,-0.12
2461208001,-0.83,-0.55,-0.12
2461210009,-0.83,-0.55,-0.12
2461211979,-0.83,-0.55,-0.12
2461213980,-0.83,-0.55,-0.12
2461215977,-0.83,-0.55,-0.12
2461217980,-0.83,-0.55,-0.12
2461219992,-0.82,-0.55,-0.12
2461222019,-0.82,-0.55,-0.12
2461223978,-0.82,-0.55,-0.12
2461226090,-0.82,-0.55,-0.12
2461227987,-0.82,-0.55,-0.12
2461229977,-0.82,-0.55,-0.12
2461231977,-0.82,-0.55,-0.12
2461234017,-0.82,-0.55,-0.12
2461235976,-0.82,-0.55,-0.12
2461238017,-0.82,-0.55,-0.12
2461240005,-0.83,-0.55,-0.13
2461242002,-0.83,-0.55,-0.13
2461244005,-0.83,-0.55,-0.13
2461246004,-0.83,-0.55,-0.13
2461248007,-0.83,-0.55,-0.13
2461250015,-0.84,-0.55,-0.12
2461252003,-0.84,-0.55,-0.12
2461253979,-0.84,-0.55,-0.12
2461255975,-0.84,-0.55,-0.12
2461257976,-0.84,-0.55,-0.12
2461259979,-0.84,-0.54,-0.12
2461261975,-0.84,-0.54,-0.12
2461263976,-0.84,-0.54,-0.12
2461265977,-0.84,-0.54,-0.12
2461267979,-0.84,-0.54,-0.12
2461269978,-0.83,-0.55,-0.12
2461271985,-0.83,-0.55,-0.12
2461273977,-0.83,-0.55,-0.12
2461275987,-0.83,-0.55,-0.12
2461278019,-0.83,-0.55,-0.12
2461280005,-0.84,-0.54,-0.12
2461282007,-0.84,-0.54,-0.12
2461284041,-0.84,-0.54,-0.12
2461286036,-0.84,-0.54,-0.12
2461288010,-0.84,-0.54,-0.12
2461290004,-0.83,-0.55,-0.12
2461292010,-0.83,-0.55,-0.12
2461293980,-0.83,-0.55,-0.12
2461295992,-0.83,-0.55,-0.12
2461297975,-0.83,-0.55,-0.12
2461299975,-0.82,-0.55,-0.12
2461301995,-0.82,-0.55,-0.12
2461303989,-0.82,-0.55,-0.12
2461305974,-0.82,-0.55,-0.12
2461307978,-0.82,-0.55,-0.12
2461309978,-0.83,-0.55,-0.12
2461311975,-0.83,-0.55,-0.12
2461313977,-0.83,-0.55,-0.12
2461315977,-0.83,-0.55,-0.12
2461318031,-0.83,-0.55,-0.12
2461319961,-0.83,-0.55,-0.11
2461321958,-0.83,-0.55,-0.11
2461324021,-0.83,-0.55,-0.11
2461325988,-0.83,-0.55,-0.11
2461327968,-0.83,-0.55,-0.11
2461329958,-0.83,-0.55,-0.11
2461331961,-0.83,-0.55,-0.11
2461334009,-0.83,-0.55,-0.11
2461335957,-0.83,-0.55,-0.11
2461337960,-0.83,-0.55,-0.11
2461339958,-0.83,-0.55,-0.10
2461341952,-0.83,-0.55,-0.10
2461343955,-0.83,-0.55,-0.10
2461345955,-0.83,-0.55,-0.10
2461347958,-0.83,-0.55,-0.10
2461349958,-0.83,-0.55,-0.11
2461351980,-0.83,-0.55,-0.11
2461353957,-0.83,-0.55,-0.11
2461355955,-0.83,-0.55,-0.11
2461357958,-0.83,-0.55,-0.11
2461359958,-0.84,-0.54,-0.11
2461361958,-0.84,-0.54,-0.11
2461363958,-0.84,-0.54,-0.11
2461365958,-0.84,-0.54,-0.11
2461386039,-0.84,-0.55,-0.12
2461388005,-0.84,-0.55,-0.12
2461390004,-0.84,-0.55,-0.12
2461392004,-0.84,-0.55,-0.11
2461394005,-0.84,-0.55,-0.11
2461396006,-0.84,-0.55,-0.11
2461398008,-0.84,-0.55,-0.11
2461399979,-0.84,-0.55,-0.11
2461401998,-0.84,-0.54,-0.10
2461403992,-0.84,-0.54,-0.10
2461405978,-0.84,-0.54,-0.10
2461407977,-0.84,-0.54,-0.10
2461409974,-0.84,-0.54,-0.10
2461411972,-0.84,-0.55,-0.11
2461413976,-0.84,-0.55,-0.11
2461415974,-0.84,-0.55,-0.11
2461417975,-0.84,-0.55,-0.11
2461419976,-0.84,-0.55,-0.11
2461421981,-0.84,-0.54,-0.10
2461423997,-0.84,-0.54,-0.10
2461426046,-0.84,-0.54,-0.10
2461428079,-0.84,-0.54,-0.10
2461430036,-0.84,-0.54,-0.10
2461432006,-0.84,-0.54,-0.10
2461434036,-0.84,-0.54,-0.10
2461436004,-0.84,-0.54,-0.10
2461438005,-0.84,-0.54,-0.10
2461440003,-0.84,-0.54,-0.10
2461442005,-0.84,-0.54,-0.11
2461443975,-0.84,-0.54,-0.11
2461445974,-0.84,-0.54,-0.11
2461447979,-0.84,-0.54,-0.11
2461449977,-0.84,-0.54,-0.11
2461451997,-0.84,-0.54,-0.11
2461453973,-0.84,-0.54,-0.11
2461455978,-0.84,-0.54,-0.11
2461457977,-0.84,-0.54,-0.11
2461459975,-0.84,-0.54,-0.11
2461461980,-0.83,-0.55,-0.11
2461463975,-0.83,-0.55,-0.11
2461466009,-0.83,-0.55,-0.11
2461468006,-0.83,-0.55,-0.11
2461470002,-0.83,-0.55,-0.11
2461472002,-0.83,-0.55,-0.12
2461474007,-0.83,-0.55,-0.12
2461476017,-0.83,-0.55,-0.12
2461477991,-0.83,-0.55,-0.12
2461479977,-0.83,-0.55,-0.12
2461481975,-0.83,-0.55,-0.11
2461483979,-0.83,-0.55,-0.11
2461485975,-0.83,-0.55,-0.11
2461487976,-0.83,-0.55,-0.11
2461489975,-0.83,-0.55,-0.11
2461491979,-0.84,-0.55,-0.12
2461493977,-0.84,-0.55,-0.12
2461495990,-0.84,-0.55,-0.12
2461497978,-0.84,-0.55,-0.12
2461499990,-0.84,-0.55,-0.12
2461501996,-0.84,-0.55,-0.11
2461503988,-0.84,-0.55,-0.11
2461506006,-0.84,-0.55,-0.11
2461508006,-0.84,-0.55,-0.11
2461510006,-0.84,-0.55,-0.11
2461512085,-0.84,-0.55,-0.12
2461514029,-0.84,-0.55,-0.12
2461516005,-0.84,-0.55,-0.12
2461518004,-0.84,-0.55,-0.12
2461520009,-0.84,-0.55,-0.12
2461521979,-0.84,-0.54,-0.12
2461523974,-0.84,-0.54,-0.12
2461526002,-0.84,-0.54,-0.12
2461528030,-0.84,-0.54,-0.12
2461529977,-0.84,-0.54,-0.12
2461531977,-0.83,-0.55,-0.12
2461534009,-0.83,-0.55,-0.12
2461535981,-0.83,-0.55,-0.12
2461537976,-0.83,-0.55,-0.12
2461539975,-0.83,-0.55,-0.12
2461541974,-0.83,-0.55,-0.12
2461543973,-0.83,-0.55,-0.12
2461546042,-0.83,-0.55,-0.12
2461547976,-0.83,-0.55,-0.12
2461549958,-0.83,-0.55,-0.12
2461551988,-0.84,-0.55,-0.12
2461553961,-0.84,-0.55,-0.12
2461556046,-0.84,-0.55,-0.12
2461558048,-0.84,-0.55,-0.12
2461560041,-0.84,-0.55,-0.12
2461562009,-0.84,-0.55,-0.12
2461564011,-0.83,-0.55,-0.12
2461566008,-0.83,-0.55,-0.12
2461568006,-0.83,-0.55,-0.12
2461570010,-0.83,-0.55,-0.12
2461572015,-0.83,-0.55,-0.12
2461573979,-0.83,-0.55,-0.13
2461576008,-0.83,-0.55,-0.13
2461577986,-0.83,-0.55,-0.13
2461579979,-0.83,-0.55,-0.13
2461581973,-0.83,-0.55,-0.13
2461583975,-0.82,-0.56,-0.13
2461586022,-0.82,-0.56,-0.13
2461588011,-0.82,-0.56,-0.13
2461590009,-0.82,-0.56,-0.13
2461592010,-0.82,-0.56,-0.13
2461594010,-0.83,-0.55,-0.12
2461596011,-0.83,-0.55,-0.12
2461598017,-0.83,-0.55,-0.12
2461599985,-0.83,-0.55,-0.12
2461601999,-0.83,-0.55,-0.12
2461603991,-0.83,-0.56,-0.12
2461605979,-0.83,-0.56,-0.12
2461607976,-0.83,-0.56,-0.12
2461609976,-0.83,-0.56,-0.12
2461611975,-0.83,-0.56,-0.12
2461613975,-0.83,-0.55,-0.12
2461615977,-0.83,-0.55,-0.12
2461618059,-0.83,-0.55,-0.12
2461620023,-0.83,-0.55,-0.12
2461622049,-0.83,-0.55,-0.12
2461623976,-0.83,-0.56,-0.12
2461626028,-0.83,-0.56,-0.12
2461628012,-0.83,-0.56,-0.12
2461630042,-0.83,-0.56,-0.12
2461632009,-0.83,-0.56,-0.12
2461634047,-0.83,-0.55,-0.11
2461636008,-0.83,-0.55,-0.11
2461638007,-0.83,-0.55,-0.11
2461640007,-0.83,-0.55,-0.11
2461642011,-0.83,-0.55,-0.11
2461643976,-0.83,-0.55,-0.12
2461645979,-0.83,-0.55,-0.12
2461647980,-0.83,-0.55,-0.12
2461649975,-0.83,-0.55,-0.12
2461652000,-0.83,-0.55,-0.12
2461653976,-0.83,-0.54,-0.10
2461655981,-0.83,-0.54,-0.10
2461657976,-0.83,-0.54,-0.10
2461659980,-0.83,-0.54,-0.10
2461661975,-0.83,-0.54,-0.10
2461663992,-0.83,-0.54,-0.09
2461666012,-0.83,-0.54,-0.09
2461668007,-0.83,-0.54,-0.09
2461670002,-0.83,-0.54,-0.09
2461672001,-0.83,-0.54,-0.09
2461674001,-0.83,-0.54,-0.11
2461676014,-0.83,-0.54,-0.11
2461677991,-0.83,-0.54,-0.11
2461679975,-0.83,-0.54,-0.11
2461681977,-0.83,-0.54,-0.11
2461683973,-0.84,-0.55,-0.11
2461685978,-0.84,-0.55,-0.11
2461687976,-0.84,-0.55,-0.11
2461689975,-0.84,-0.55,-0.11
2461691974,-0.84,-0.55,-0.11
2461693974,-0.83,-0.55,-0.10
2461695993,-0.83,-0.55,-0.10
2461697976,-0.83,-0.55,-0.10
2461699976,-0.83,-0.55,-0.10
2461701991,-0.83,-0.55,-0.10
2461703991,-0.83,-0.55,-0.10
2461706010,-0.83,-0.55,-0.10
2461708005,-0.83,-0.55,-0.10
2461710005,-0.83,-0.55,-0.10
2461712043,-0.83,-0.55,-0.10
2461714033,-0.83,-0.55,-0.11
2461716008,-0.83,-0.55,-0.11
2461718005,-0.83,-0.55,-0.11
2461720008,-0.83,-0.55,-0.11
2461721976,-0.83,-0.55,-0.11
2461723975,-0.83,-0.55,-0.10
2461726003,-0.83,-0.55,-0.10
2461727980,-0.83,-0.55,-0.10
2461729978,-0.83,-0.55,-0.10
2461731990,-0.83,-0.55,-0.10
2461734040,-0.82,-0.57,-0.13
2461735975,-0.82,-0.57,-0.13
2461737979,-0.82,-0.57,-0.13
2461739979,-0.82,-0.57,-0.13
2461741979,-0.82,-0.57,-0.13
2461743979,-0.82,-0.55,-0.10
2461746019,-0.82,-0.55,-0.10
2461748026,-0.82,-0.55,-0.10
2461749976,-0.82,-0.55,-0.10
2461751990,-0.82,-0.55,-0.10
2461753963,-0.82,-0.55,-0.10
2461756055,-0.83,-0.53,-0.07
2461758049,-0.83,-0.53,-0.07
2461760043,-0.83,-0.53,-0.07
2461762005,-0.83,-0.53,-0.07
2461764005,-0.83,-0.53,-0.07
2461766000,-0.83,-0.54,-0.09
2461768005,-0.83,-0.54,-0.09
2461770009,-0.83,-0.54,-0.09
2461771978,-0.83,-0.54,-0.09
2461773980,-0.83,-0.54,-0.09
2461776008,-0.83,-0.55,-0.12
2461777981,-0.83,-0.55,-0.12
2461779980,-0.83,-0.55,-0.12
2461781977,-0.83,-0.55,-0.12
2461783978,-0.83,-0.55,-0.12
2461786013,-0.84,-0.55,-0.12
2461788006,-0.84,-0.55,-0.12
2461790005,-0.84,-0.55,-0.12
2461792006,-0.84,-0.55,-0.12
2461794010,-0.84,-0.55,-0.12
2461796013,-0.83,-0.54,-0.12
2461798007,-0.83,-0.54,-0.12
2461799979,-0.83,-0.54,-0.12
2461801997,-0.83,-0.54,-0.12
2461803991,-0.83,-0.54,-0.12
2461805979,-0.84,-0.56,-0.14
2461807978,-0.84,-0.56,-0.14
2461809977,-0.84,-0.56,-0.14
2461811974,-0.84,-0.56,-0.14
2461813977,-0.84,-0.56,-0.14
2461816069,-0.84,-0.54,-0.11
2461818020,-0.84,-0.54,-0.11
2461819978,-0.84,-0.54,-0.11
2461821974,-0.84,-0.54,-0.11
2461823979,-0.84,-0.54,-0.11
2461826029,-0.82,-0.54,-0.12
2461828004,-0.82,-0.54,-0.12
2461830005,-0.82,-0.54,-0.12
2461832004,-0.82,-0.54,-0.12
2461834054,-0.82,-0.54,-0.12
2461836044,-0.84,-0.54,-0.14
2461838005,-0.84,-0.54,-0.14
2461840010,-0.84,-0.54,-0.14
2461841974,-0.84,-0.54,-0.14
2461843977,-0.84,-0.54,-0.14
2461845984,-0.84,-0.54,-0.13
2461847979,-0.84,-0.54,-0.13
2461849979,-0.84,-0.54,-0.13
2461852005,-0.84,-0.54,-0.13
2461853977,-0.84,-0.54,-0.13
2461855981,-0.84,-0.54,-0.12
2461857977,-0.84,-0.54,-0.12
2461859981,-0.84,-0.54,-0.12
2461861974,-0.84,-0.54,-0.12
2461863976,-0.84,-0.54,-0.12
2461866010,-0.84,-0.56,-0.12
2461868005,-0.84,-0.56,-0.12
2461870007,-0.84,-0.56,-0.12
2461872005,-0.84,-0.56,-0.12
2461874011,-0.84,-0.56,-0.12
2461876017,-0.84,-0.56,-0.13
2461878008,-0.84,-0.56,-0.13
2461879979,-0.84,-0.56,-0.13
2461881979,-0.84,-0.56,-0.13
2461883977,-0.84,-0.56,-0.13
2461885979,-0.83,-0.54,-0.12
2461887979,-0.83,-0.54,-0.12
2461889974,-0.83,-0.54,-0.12
2461891980,-0.83,-0.54,-0.12
2461893981,-0.83,-0.54,-0.12
2461895992,-0.83,-0.55,-0.12
2461897976,-0.83,-0.55,-0.12
2461899977,-0.83,-0.55,-0.12
2461901996,-0.83,-0.55,-0.12
2461903988,-0.83,-0.55,-0.12
2461906007,-0.83,-0.56,-0.13
2461908005,-0.83,-0.56,-0.13
2461910002,-0.83,-0.56,-0.13
2461912031,-0.83,-0.56,-0.13
2461914038,-0.83,-0.56,-0.13
2461916009,-0.82,-0.55,-0.12
2461918009,-0.82,-0.55,-0.12
2461920008,-0.82,-0.55,-0.12
2461921979,-0.82,-0.55,-0.12
2461923975,-0.82,-0.55,-0.12
2461926007,-0.84,-0.55,-0.13
2461927982,-0.84,-0.55,-0.13
2461929980,-0.84,-0.55,-0.13
2461931979,-0.84,-0.55,-0.13
2461934011,-0.84,-0.55,-0.13
2461935974,-0.83,-0.56,-0.12
2461937974,-0.83,-0.56,-0.12
2461939979,-0.83,-0.56,-0.12
2461941975,-0.83,-0.56,-0.12
2461943976,-0.83,-0.56,-0.12
2461946018,-0.83,-0.56,-0.12
2461948028,-0.83,-0.54,-0.12
2461949959,-0.83,-0.54,-0.12
2461951989,-0.83,-0.54,-0.12
2461953957,-0.83,-0.54,-0.12
2461955957,-0.83,-0.54,-0.12
2461957957,-0.83,-0.55,-0.12
2461959952,-0.83,-0.55,-0.12
2461961956,-0.83,-0.55,-0.12
2461964020,-0.83,-0.55,-0.12
2461965959,-0.83,-0.55,-0.12
2461967958,-0.83,-0.55,-0.13
2461969958,-0.83,-0.55,-0.13
2461971957,-0.83,-0.55,-0.13
2461973955,-0.83,-0.55,-0.13
2461975984,-0.83,-0.55,-0.13
2461978041,-0.83,-0.55,-0.11
2461980041,-0.83,-0.55,-0.11
2461982014,-0.83,-0.55,-0.11
2461984009,-0.83,-0.55,-0.11
2461986009,-0.83,-0.55,-0.11
2461988013,-0.83,-0.55,-0.11
2461990011,-0.83,-0.55,-0.11
2461992020,-0.83,-0.55,-0.11
2461994008,-0.83,-0.55,-0.11
2461996018,-0.83,-0.55,-0.11
2461998006,-0.84,-0.54,-0.11
2462000014,-0.84,-0.54,-0.11
2462002124,-0.84,-0.54,-0.11
2462004016,-0.84,-0.54,-0.11
2462006012,-0.84,-0.54,-0.11
2462008012,-0.84,-0.54,-0.11
2462009980,-0.84,-0.54,-0.11
2462011979,-0.84,-0.54,-0.11
2462013980,-0.84,-0.54,-0.11
2462015975,-0.84,-0.54,-0.11
2462017976,-0.83,-0.55,-0.11
2462019977,-0.83,-0.55,-0.11
2462021984,-0.83,-0.55,-0.11
2462023980,-0.83,-0.55,-0.11
2462026085,-0.83,-0.55,-0.11
2462027987,-0.84,-0.54,-0.11
2462029976,-0.84,-0.54,-0.11
2462032011,-0.84,-0.54,-0.11
2462034047,-0.84,-0.54,-0.11
2462036005,-0.84,-0.54,-0.11
2462038042,-0.83,-0.54,-0.10
2462040053,-0.83,-0.54,-0.10
2462042041,-0.83,-0.54,-0.10
2462044006,-0.83,-0.54,-0.10
2462046005,-0.83,-0.54,-0.10
2462047981,-0.84,-0.54,-0.09
2462049979,-0.84,-0.54,-0.09
2462052098,-0.84,-0.54,-0.09
2462053977,-0.84,-0.54,-0.09
2462055976,-0.84,-0.54,-0.09
2462057980,-0.84,-0.54,-0.09
2462059976,-0.84,-0.54,-0.09
2462061977,-0.84,-0.54,-0.09
2462063977,-0.84,-0.54,-0.09
2462065976,-0.84,-0.54,-0.09
2462067979,-0.84,-0.54,-0.09
2462069975,-0.84,-0.54,-0.09
2462072016,-0.84,-0.54,-0.09
2462074010,-0.84,-0.54,-0.09
2462076101,-0.84,-0.54,-0.09
2462078013,-0.83,-0.54,-0.10
2462080009,-0.83,-0.54,-0.10
2462082012,-0.83,-0.54,-0.10
2462083981,-0.83,-0.54,-0.10
2462085979,-0.83,-0.54,-0.10
2462087979,-0.84,-0.54,-0.09
2462089979,-0.84,-0.54,-0.09
2462091975,-0.84,-0.54,-0.09
2462093979,-0.84,-0.54,-0.09
2462095991,-0.84,-0.54,-0.09
2462097975,-0.83,-0.54,-0.10
2462099973,-0.83,-0.54,-0.10
2462102081,-0.83,-0.54,-0.10
2462103991,-0.83,-0.54,-0.10
2462105976,-0.83,-0.54,-0.10
2462107976,-0.83,-0.54,-0.10
2462109974,-0.83,-0.54,-0.10
2462112014,-0.83,-0.54,-0.10
2462114010,-0.83,-0.54,-0.10
2462116011,-0.83,-0.54,-0.10
2462118009,-0.83,-0.54,-0.09
2462120008,-0.83,-0.54,-0.09
2462122024,-0.83,-0.54,-0.09
2462123981,-0.83,-0.54,-0.09
2462126085,-0.83,-0.54,-0.09
2462127990,-0.84,-0.54,-0.09
2462129981,-0.84,-0.54,-0.09
2462131982,-0.84,-0.54,-0.09
2462134007,-0.84,-0.54,-0.09
2462135975,-0.84,-0.54,-0.09
2462137980,-0.84,-0.54,-0.09
2462139976,-0.84,-0.54,-0.09
2462141975,-0.84,-0.54,-0.09
2462143979,-0.84,-0.54,-0.09
2462145975,-0.84,-0.54,-0.09
2462147981,-0.84,-0.54,-0.09
2462149977,-0.84,-0.54,-0.10
2462152153,-0.84,-0.54,-0.10
2462154002,-0.84,-0.54,-0.10
2462155957,-0.84,-0.54,-0.10
2462157958,-0.84,-0.54,-0.10
2462159955,-0.84,-0.54,-0.10
2462161955,-0.84,-0.54,-0.10
2462163957,-0.84,-0.54,-0.10
2462165958,-0.84,-0.54,-0.10
2462167957,-0.84,-0.54,-0.10
2462169958,-0.83,-0.54,-0.10
2462171955,-0.83,-0.54,-0.10
2462173958,-0.83,-0.54,-0.10
2462176057,-0.83,-0.54,-0.10
2462177969,-0.83,-0.54,-0.10
2462179955,-0.83,-0.54,-0.09
2462181955,-0.83,-0.54,-0.09
2462183957,-0.83,-0.54,-0.09
2462185958,-0.83,-0.54,-0.09
2462187959,-0.83,-0.54,-0.09
2462189960,-0.83,-0.56,-0.13
2462191958,-0.83,-0.56,-0.13
2462193958,-0.83,-0.56,-0.13
2462195985,-0.83,-0.56,-0.13
2462197957,-0.83,-0.56,-0.13
2462199958,-0.83,-0.53,-0.07
2462254068,-0.83,-0.54,-0.13
2462256003,-0.83,-0.54,-0.13
2462258003,-0.83,-0.54,-0.13
2462260002,-0.84,-0.55,-0.14
2462262007,-0.84,-0.55,-0.14
2462263999,-0.84,-0.55,-0.14
2462266003,-0.84,-0.55,-0.14
2462268006,-0.84,-0.55,-0.14
2462269985,-0.82,-0.53,-0.13
2462271979,-0.82,-0.53,-0.13
2462273978,-0.82,-0.53,-0.13
2462276082,-0.82,-0.53,-0.13
2462277987,-0.82,-0.53,-0.13
2462279979,-0.79,-0.50,-0.07
2462281976,-0.79,-0.50,-0.07
2462283976,-0.79,-0.50,-0.07
2462285985,-0.79,-0.50,-0.07
2462287978,-0.79,-0.50,-0.07
2462289980,-0.82,-0.59,-0.26
2462291980,-0.82,-0.59,-0.26
2462294006,-0.82,-0.59,-0.26
2462296009,-0.82,-0.59,-0.26
2462298025,-0.82,-0.59,-0.26
2462300003,-0.85,-0.55,-0.22
2462302075,-0.85,-0.55,-0.22
2462303974,-0.85,-0.55,-0.22
2462305960,-0.85,-0.55,-0.22
2462307958,-0.85,-0.55,-0.22
2462309958,-0.89,-0.54,-0.09
2462311957,-0.89,-0.54,-0.09
2462313957,-0.89,-0.54,-0.09
2462315957,-0.89,-0.54,-0.09
2462317957,-0.89,-0.54,-0.09
2462319962,-0.89,-0.54,-0.09
2462321957,-0.85,-0.58,-0.16
2462323958,-0.85,-0.58,-0.16
2462326040,-0.85,-0.58,-0.16
2462327972,-0.85,-0.58,-0.16
2462329959,-0.85,-0.58,-0.16
2462331960,-0.87,-0.61,-0.14
2462334001,-0.87,-0.61,-0.14
2462335957,-0.87,-0.61,-0.14
2462337958,-0.87,-0.61,-0.14
2462339958,-0.87,-0.61,-0.14
2462341957,-0.76,-0.59,-0.14
2462626118,-0.82,-0.57,-0.14
2462628008,-0.82,-0.57,-0.14
2462630000,-0.82,-0.57,-0.14
2462632000,-0.82,-0.57,-0.14
2462634036,-0.82,-0.55,-0.15
2462635997,-0.82,-0.55,-0.15
2462638005,-0.82,-0.55,-0.15
2462640003,-0.82,-0.55,-0.15
2462641979,-0.82,-0.55,-0.15
2462643979,-0.83,-0.55,-0.14
2462645980,-0.83,-0.55,-0.14
2462647981,-0.83,-0.55,-0.14
2462649979,-0.83,-0.55,-0.14
2462652088,-0.83,-0.55,-0.14
2462654026,-0.82,-0.56,-0.14
2462655979,-0.82,-0.56,-0.14
2462657978,-0.82,-0.56,-0.14
2462659979,-0.82,-0.56,-0.14
2462661977,-0.82,-0.56,-0.14
2462663977,-0.82,-0.59,-0.13
2462666016,-0.82,-0.59,-0.13
2462668006,-0.82,-0.59,-0.13
2462670001,-0.82,-0.59,-0.13
2462672004,-0.82,-0.59,-0.13
2462674022,-0.82,-0.58,-0.12
2462676116,-0.82,-0.58,-0.12
2462678006,-0.82,-0.58,-0.12
2462680005,-0.82,-0.58,-0.12
2462681979,-0.82,-0.58,-0.12
2462683979,-0.82,-0.57,-0.12
2462685978,-0.82,-0.57,-0.12
2462687976,-0.82,-0.57,-0.12
2462689981,-0.82,-0.57,-0.12
2462691979,-0.82,-0.57,-0.12
2462693977,-0.81,-0.57,-0.12
2462695993,-0.81,-0.57,-0.12
2462697980,-0.81,-0.57,-0.12
2462699979,-0.81,-0.57,-0.12
2462702079,-0.81,-0.57,-0.12
2462703987,-0.81,-0.57,-0.12
2462706009,-0.83,-0.57,-0.12
2462708007,-0.83,-0.57,-0.12
2462710003,-0.83,-0.57,-0.12
2462712010,-0.83,-0.57,-0.12
2462714011,-0.83,-0.57,-0.12
2462716005,-0.83,-0.56,-0.12
2462718006,-0.83,-0.56,-0.12
2462719984,-0.83,-0.56,-0.12
2462721978,-0.83,-0.56,-0.12
2462723975,-0.83,-0.56,-0.12
2462726083,-0.83,-0.57,-0.13
2462727988,-0.83,-0.57,-0.13
2462729980,-0.83,-0.57,-0.13
2462731982,-0.83,-0.57,-0.13
2462734007,-0.83,-0.57,-0.13
2462735979,-0.83,-0.56,-0.13
2462737978,-0.83,-0.56,-0.13
2462739974,-0.83,-0.56,-0.13
2462741975,-0.83,-0.56,-0.13
2462743975,-0.83,-0.56,-0.13
2462746014,-0.84,-0.54,-0.12
2462748006,-0.84,-0.54,-0.12
2462750006,-0.84,-0.54,-0.12
2462752114,-0.84,-0.54,-0.12
2462754008,-0.84,-0.54,-0.12
2462756037,-0.85,-0.52,-0.11
2462758034,-0.85,-0.52,-0.11
2462760010,-0.85,-0.52,-0.11
2462761976,-0.85,-0.52,-0.11
2462763979,-0.85,-0.52,-0.11
2462765977,-0.86,-0.54,-0.09
2462767978,-0.86,-0.54,-0.09
2462769976,-0.86,-0.54,-0.09
2462771980,-0.86,-0.54,-0.09
2462773974,-0.86,-0.54,-0.09
2462776086,-0.84,-0.50,-0.12
2462777992,-0.84,-0.50,-0.12
2462779980,-0.84,-0.50,-0.12
2462781978,-0.84,-0.50,-0.12
2462783977,-0.84,-0.50,-0.12
2462786023,-0.86,-0.50,-0.12
2462788017,-0.86,-0.50,-0.12
2462789960,-0.86,-0.50,-0.12
2462791956,-0.86,-0.50,-0.12
2462793956,-0.86,-0.50,-0.12
2462795977,-0.85,-0.50,-0.11
2462797956,-0.85,-0.50,-0.11
2462799957,-0.85,-0.50,-0.11
2462802075,-0.85,-0.50,-0.11
2462803975,-0.85,-0.50,-0.11
2462805958,-0.84,-0.53,-0.10
2462807957,-0.84,-0.53,-0.10
2462809958,-0.84,-0.53,-0.10
2462811957,-0.84,-0.53,-0.10
2462813957,-0.84,-0.53,-0.10
2462815957,-0.83,-0.54,-0.09
2462817958,-0.83,-0.54,-0.09
2462819957,-0.83,-0.54,-0.09
2462821958,-0.83,-0.54,-0.09
2462823958,-0.83,-0.54,-0.09
2462826040,-0.84,-0.56,-0.09
2462827971,-0.84,-0.56,-0.09
2462829957,-0.84,-0.56,-0.09
2462831959,-0.84,-0.56,-0.09
2462834007,-0.84,-0.56,-0.09
2462846044,-0.82,-0.54,-0.12
2462848000,-0.82,-0.54,-0.12
2462850001,-0.82,-0.54,-0.12
2462852111,-0.82,-0.54,-0.12
2462854002,-0.82,-0.54,-0.12
2462855997,-0.84,-0.55,-0.09
2462858009,-0.84,-0.55,-0.09
2462860046,-0.84,-0.55,-0.09
2462862009,-0.84,-0.55,-0.09
2462863979,-0.84,-0.55,-0.09
2462865979,-0.84,-0.55,-0.09
2462867976,-0.84,-0.55,-0.09
2462869980,-0.84,-0.55,-0.09
2462871979,-0.84,-0.55,-0.09
2462873979,-0.84,-0.55,-0.09
2462876087,-0.83,-0.55,-0.09
2462877987,-0.83,-0.55,-0.09
2462879979,-0.83,-0.55,-0.09
2462881977,-0.83,-0.55,-0.09
2462883980,-0.83,-0.55,-0.09
2462886011,-0.82,-0.55,-0.11
2462888001,-0.82,-0.55,-0.11
2462890008,-0.82,-0.55,-0.11
2462892031,-0.82,-0.55,-0.11
2462894009,-0.82,-0.55,-0.11
2462896006,-0.82,-0.55,-0.11
2462898003,-0.83,-0.57,-0.11
2462900008,-0.83,-0.57,-0.11
2462902093,-0.83,-0.57,-0.11
2462903989,-0.83,-0.57,-0.11
2462905973,-0.83,-0.57,-0.11
2462907975,-0.82,-0.57,-0.11
2462909978,-0.82,-0.57,-0.11
2462911976,-0.82,-0.57,-0.11
2462913975,-0.82,-0.57,-0.11
2462915975,-0.82,-0.57,-0.11
2462917976,-0.83,-0.58,-0.12
2462919973,-0.83,-0.58,-0.12
2462921974,-0.83,-0.58,-0.12
2462923975,-0.83,-0.58,-0.12
2462926105,-0.83,-0.58,-0.12
2462928006,-0.83,-0.56,-0.11
2462930003,-0.83,-0.56,-0.11
2462932003,-0.83,-0.56,-0.11
2462934039,-0.83,-0.56,-0.11
2462936006,-0.83,-0.56,-0.11
2462938003,-0.83,-0.56,-0.12
2462939975,-0.83,-0.56,-0.12
2462941980,-0.83,-0.56,-0.12
2462943979,-0.83,-0.56,-0.12
2462945973,-0.83,-0.56,-0.12
2462947977,-0.82,-0.55,-0.12
2462949984,-0.82,-0.55,-0.12
2462952094,-0.82,-0.55,-0.12
2462953979,-0.82,-0.55,-0.12
2462955974,-0.82,-0.55,-0.12
2462957980,-0.83,-0.55,-0.12
2462960022,-0.83,-0.55,-0.12
2462962011,-0.83,-0.55,-0.12
2462963977,-0.83,-0.55,-0.12
2462966017,-0.83,-0.55,-0.12
2462968005,-0.83,-0.54,-0.12
2462970005,-0.83,-0.54,-0.12
2462972005,-0.83,-0.54,-0.12
2462974019,-0.83,-0.54,-0.12
2462976112,-0.83,-0.54,-0.12
2462978017,-0.84,-0.54,-0.13
2462979958,-0.84,-0.54,-0.13
2462981957,-0.84,-0.54,-0.13
2462983956,-0.84,-0.54,-0.13
2462985956,-0.84,-0.54,-0.13
2462987957,-0.84,-0.53,-0.12
2462989957,-0.84,-0.53,-0.12
2462991952,-0.84,-0.53,-0.12
2462993957,-0.84,-0.53,-0.12
2462995975,-0.84,-0.53,-0.12
2462997956,-0.84,-0.54,-0.12
2462999959,-0.84,-0.54,-0.12
2463002082,-0.84,-0.54,-0.12
2463003974,-0.84,-0.54,-0.12
2463005958,-0.84,-0.54,-0.12
2463007957,-0.85,-0.53,-0.12
2463009958,-0.85,-0.53,-0.12
2463011958,-0.85,-0.53,-0.12
2463013957,-0.85,-0.53,-0.12
2463064072,-0.84,-0.55,-0.11
2463066008,-0.84,-0.55,-0.11
2463068004,-0.83,-0.55,-0.09
2463070010,-0.83,-0.55,-0.09
2463072005,-0.83,-0.55,-0.09
2463074005,-0.83,-0.55,-0.09
2463076106,-0.83,-0.55,-0.09
2463078009,-0.84,-0.55,-0.11
2463080008,-0.84,-0.55,-0.11
2463081978,-0.84,-0.55,-0.11
2463083978,-0.84,-0.55,-0.11
2463085981,-0.84,-0.55,-0.11
2463087979,-0.84,-0.55,-0.11
2463089980,-0.83,-0.55,-0.11
2463091975,-0.83,-0.55,-0.11
2463093981,-0.83,-0.55,-0.11
2463095988,-0.83,-0.55,-0.11
2463097975,-0.83,-0.55,-0.11
2463099977,-0.84,-0.55,-0.11
2463102073,-0.84,-0.55,-0.11
2463104016,-0.84,-0.55,-0.11
2463106004,-0.84,-0.55,-0.11
2463108003,-0.84,-0.55,-0.11
2463110005,-0.83,-0.54,-0.12
2463112005,-0.83,-0.54,-0.12
2463114005,-0.83,-0.54,-0.12
2463116008,-0.83,-0.54,-0.12
2463117978,-0.83,-0.54,-0.12
2463119977,-0.84,-0.54,-0.12
2463121976,-0.84,-0.54,-0.12
2463123980,-0.84,-0.54,-0.12
2463126081,-0.84,-0.54,-0.12
2463127986,-0.84,-0.54,-0.12
2463129979,-0.83,-0.54,-0.11
2463131980,-0.83,-0.54,-0.11
2463134007,-0.83,-0.54,-0.11
2463135976,-0.83,-0.54,-0.11
2463137975,-0.83,-0.54,-0.11
2463139977,-0.84,-0.55,-0.11
2463141979,-0.84,-0.55,-0.11
2463144018,-0.84,-0.55,-0.11
2463146033,-0.84,-0.55,-0.11
2463148044,-0.84,-0.55,-0.11
2463150044,-0.83,-0.55,-0.11
2463152152,-0.83,-0.55,-0.11
2463154009,-0.83,-0.55,-0.11
2463156004,-0.83,-0.55,-0.11
2463158002,-0.83,-0.55,-0.11
2463160006,-0.83,-0.55,-0.11
2463162008,-0.83,-0.55,-0.11
2463163979,-0.83,-0.55,-0.11
2463165976,-0.83,-0.55,-0.11
2463167977,-0.83,-0.55,-0.11
2463169978,-0.84,-0.55,-0.12
2463171986,-0.84,-0.55,-0.12
2463173977,-0.84,-0.55,-0.12
2463176078,-0.84,-0.55,-0.12
2463177986,-0.84,-0.55,-0.12
2463179979,-0.83,-0.56,-0.11
2463181978,-0.83,-0.56,-0.11
2463184007,-0.83,-0.56,-0.11
2463186051,-0.83,-0.56,-0.11
2463188001,-0.83,-0.56,-0.11
2463190004,-0.83,-0.55,-0.11
2463192002,-0.83,-0.55,-0.11
2463194005,-0.83,-0.55,-0.11
2463196016,-0.83,-0.55,-0.11
2463197979,-0.83,-0.55,-0.11
2463199981,-0.83,-0.55,-0.12
2463202088,-0.83,-0.55,-0.12
2463203988,-0.83,-0.55,-0.12
2463205975,-0.83,-0.55,-0.12
2463208135,-0.83,-0.55,-0.12
2463210014,-0.83,-0.56,-0.12
2463211979,-0.83,-0.56,-0.12
2463213977,-0.83,-0.56,-0.12
2463215977,-0.83,-0.56,-0.12
2463217977,-0.83,-0.56,-0.12
2463219981,-0.84,-0.56,-0.13
2463221980,-0.84,-0.56,-0.13
2463224024,-0.84,-0.56,-0.13
2463226112,-0.84,-0.56,-0.13
2463228010,-0.84,-0.56,-0.13
2463230005,-0.83,-0.55,-0.11
2463232003,-0.83,-0.55,-0.11
2463234043,-0.83,-0.55,-0.11
2463236008,-0.83,-0.55,-0.11
2463237979,-0.83,-0.55,-0.11
2463239981,-0.84,-0.55,-0.13
2463241979,-0.84,-0.55,-0.13
2463243980,-0.84,-0.55,-0.13
2463245980,-0.84,-0.55,-0.13
2463247977,-0.84,-0.55,-0.13
2463249979,-0.84,-0.55,-0.13
2463252107,-0.84,-0.55,-0.13
2463254062,-0.84,-0.55,-0.13
2463256020,-0.84,-0.55,-0.13
2463257978,-0.84,-0.55,-0.13
2463259977,-0.84,-0.54,-0.12
2463261979,-0.84,-0.54,-0.12
2463264018,-0.84,-0.54,-0.12
2463266001,-0.84,-0.54,-0.12
2463268028,-0.84,-0.54,-0.12
2463270035,-0.84,-0.54,-0.12
2463272008,-0.84,-0.54,-0.12
2463274005,-0.84,-0.54,-0.12
2463276109,-0.84,-0.54,-0.12
2463278008,-0.84,-0.54,-0.12
2463279979,-0.84,-0.54,-0.12
2463281978,-0.85,-0.54,-0.13
2463283975,-0.85,-0.54,-0.13
2463285980,-0.85,-0.54,-0.13
2463287976,-0.85,-0.54,-0.13
2463289979,-0.85,-0.54,-0.13
2463291980,-0.84,-0.54,-0.12
2463293980,-0.84,-0.54,-0.12
2463295993,-0.84,-0.54,-0.12
2463297975,-0.84,-0.54,-0.12
2463300051,-0.84,-0.54,-0.12
2463302141,-0.82,-0.53,-0.11
2463304026,-0.82,-0.53,-0.11
2463306004,-0.82,-0.53,-0.11
2463308000,-0.82,-0.53,-0.11
2463310002,-0.82,-0.53,-0.11
2463312001,-0.83,-0.54,-0.12
2463314004,-0.83,-0.54,-0.12
2463316007,-0.83,-0.54,-0.12
2463317979,-0.83,-0.54,-0.12
2463319979,-0.83,-0.54,-0.12
2463321976,-0.83,-0.54,-0.11
2463323976,-0.83,-0.54,-0.11
2463326089,-0.83,-0.54,-0.11
2463327988,-0.83,-0.54,-0.11
2463329981,-0.83,-0.54,-0.11
2463331982,-0.83,-0.54,-0.07
2463334008,-0.83,-0.54,-0.07
2463335976,-0.83,-0.54,-0.07
2463337977,-0.83,-0.54,-0.07
2463339976,-0.83,-0.54,-0.07
2463341979,-0.84,-0.56,-0.08
2463344020,-0.84,-0.56,-0.08
2463346006,-0.84,-0.56,-0.08
2463348004,-0.84,-0.56,-0.08
2463350067,-0.84,-0.56,-0.08
2463352162,-0.82,-0.56,-0.08
2463354008,-0.82,-0.56,-0.08
2463356005,-0.82,-0.56,-0.08
2463358006,-0.82,-0.56,-0.08
2463359992,-0.82,-0.56,-0.08
2463361979,-0.82,-0.57,-0.07
2463363981,-0.82,-0.57,-0.07
2463365973,-0.82,-0.57,-0.07
2463367974,-0.82,-0.57,-0.07
2463369985,-0.82,-0.57,-0.07
2463371979,-0.82,-0.56,-0.07
2463373977,-0.82,-0.56,-0.07
2463376085,-0.82,-0.56,-0.07
2463378004,-0.82,-0.56,-0.07
2463380026,-0.82,-0.56,-0.07
2463381980,-0.82,-0.57,-0.09
2463384023,-0.82,-0.57,-0.09
2463386005,-0.82,-0.57,-0.09
2463388007,-0.82,-0.57,-0.09
2463390006,-0.82,-0.57,-0.09
2463392006,-0.84,-0.55,-0.07
2463394012,-0.84,-0.55,-0.07
2463395991,-0.84,-0.55,-0.07
2463397975,-0.84,-0.55,-0.07
2463399979,-0.84,-0.55,-0.07
2463402093,-0.86,-0.55,-0.11
2463403988,-0.86,-0.55,-0.11
2463405976,-0.86,-0.55,-0.11
2463407974,-0.86,-0.55,-0.11
2463409981,-0.86,-0.55,-0.11
2463411977,-0.83,-0.53,-0.10
2463413976,-0.83,-0.53,-0.10
2463415977,-0.83,-0.53,-0.10
2463417974,-0.83,-0.53,-0.10
2463419976,-0.83,-0.53,-0.10
2463421979,-0.83,-0.51,-0.07
2463424011,-0.83,-0.51,-0.07
2463426113,-0.83,-0.51,-0.07
2463428034,-0.83,-0.51,-0.07
2463430025,-0.83,-0.51,-0.07
2463432009,-0.84,-0.54,-0.10
2463434041,-0.84,-0.54,-0.10
2463436010,-0.84,-0.54,-0.10
2463438008,-0.84,-0.54,-0.10
2463440008,-0.84,-0.54,-0.10
2463441979,-0.85,-0.52,-0.10
2463443973,-0.85,-0.52,-0.10
2463445979,-0.85,-0.52,-0.10
2463447980,-0.85,-0.52,-0.10
2463449975,-0.85,-0.52,-0.10
2463452094,-0.84,-0.52,-0.10
2463453981,-0.84,-0.52,-0.10
2463455980,-0.84,-0.52,-0.10
2463457979,-0.84,-0.52,-0.10
2463459975,-0.84,-0.52,-0.10
2463461978,-0.85,-0.52,-0.11
2463464015,-0.85,-0.52,-0.11
2463466005,-0.85,-0.52,-0.11
2463468004,-0.85,-0.52,-0.11
2463470005,-0.85,-0.52,-0.11
2463472007,-0.85,-0.52,-0.11
2463474087,-0.85,-0.53,-0.12
2463476118,-0.85,-0.53,-0.12
2463478046,-0.85,-0.53,-0.12
2463480007,-0.85,-0.53,-0.12
2463481977,-0.85,-0.53,-0.12
2463483977,-0.83,-0.53,-0.11
2463485978,-0.83,-0.53,-0.11
2463487978,-0.83,-0.53,-0.11
2463489979,-0.83,-0.53,-0.11
2463491980,-0.83,-0.53,-0.11
2463493976,-0.84,-0.53,-0.11
2463495991,-0.84,-0.53,-0.11
2463497978,-0.84,-0.53,-0.11
2463499986,-0.84,-0.53,-0.11
2463502108,-0.84,-0.53,-0.11
2463504022,-0.83,-0.56,-0.13
2463506007,-0.83,-0.56,-0.13
2463508008,-0.83,-0.56,-0.13
2463510004,-0.83,-0.56,-0.13
2463512008,-0.83,-0.56,-0.13
2463514008,-0.83,-0.55,-0.12
2463516010,-0.83,-0.55,-0.12
2463517979,-0.83,-0.55,-0.12
2463519979,-0.83,-0.55,-0.12
2463521981,-0.83,-0.55,-0.12
2463523979,-0.83,-0.56,-0.13
2463526083,-0.83,-0.56,-0.13
2463527987,-0.83,-0.56,-0.13
2463529979,-0.83,-0.56,-0.13
2463531980,-0.83,-0.56,-0.13
2463534031,-0.84,-0.57,-0.14
2463536057,-0.84,-0.57,-0.14
2463538019,-0.84,-0.57,-0.14
2463539974,-0.84,-0.57,-0.14
2463541973,-0.84,-0.57,-0.14
2463544023,-0.82,-0.58,-0.12
2463546007,-0.82,-0.58,-0.12
2463548002,-0.82,-0.58,-0.12
2463550005,-0.82,-0.58,-0.12
2463552123,-0.82,-0.58,-0.12
2463554006,-0.82,-0.59,-0.12
2463556009,-0.82,-0.59,-0.12
2463557976,-0.82,-0.59,-0.12
2463559976,-0.82,-0.59,-0.12
2463561978,-0.82,-0.59,-0.12
2463563979,-0.80,-0.58,-0.11
2463565985,-0.80,-0.58,-0.11
2463567980,-0.80,-0.58,-0.11
2463569979,-0.80,-0.58,-0.11
2463571977,-0.80,-0.58,-0.11
2463573984,-0.82,-0.58,-0.12
2463576108,-0.82,-0.58,-0.12
2463577988,-0.82,-0.58,-0.12
2463579987,-0.82,-0.58,-0.12
2463582061,-0.82,-0.58,-0.12
2463584047,-0.81,-0.55,-0.12
2463586002,-0.81,-0.55,-0.12
2463588003,-0.81,-0.55,-0.12
2463590005,-0.81,-0.55,-0.12
2463592006,-0.81,-0.55,-0.12
2463594009,-0.83,-0.56,-0.13
2463596008,-0.83,-0.56,-0.13
2463598007,-0.83,-0.56,-0.13
2463599977,-0.83,-0.56,-0.13
2463602094,-0.83,-0.56,-0.13
2463603991,-0.83,-0.55,-0.12
2463605974,-0.83,-0.55,-0.12
2463607980,-0.83,-0.55,-0.12
2463609980,-0.83,-0.55,-0.12
2463611978,-0.83,-0.55,-0.12
2463613977,-0.84,-0.56,-0.12
2463615979,-0.84,-0.56,-0.12
2463617979,-0.84,-0.56,-0.12
2463619977,-0.84,-0.56,-0.12
2463622049,-0.84,-0.56,-0.12
2463624019,-0.84,-0.55,-0.12
2463626104,-0.84,-0.55,-0.12
2463628057,-0.84,-0.55,-0.12
2463630040,-0.84,-0.55,-0.12
2463632008,-0.84,-0.55,-0.12
2463634042,-0.83,-0.54,-0.12
2463636007,-0.83,-0.54,-0.12
2463638003,-0.83,-0.54,-0.12
2463639999,-0.83,-0.54,-0.12
2463642005,-0.83,-0.54,-0.12
2463643978,-0.84,-0.55,-0.13
2463645979,-0.84,-0.55,-0.13
2463647975,-0.84,-0.55,-0.13
2463649977,-0.84,-0.55,-0.13
2463652099,-0.84,-0.55,-0.13
2463653978,-0.84,-0.53,-0.12
2463655977,-0.84,-0.53,-0.12
2463657980,-0.84,-0.53,-0.12
2463659976,-0.84,-0.53,-0.12
2463661981,-0.84,-0.53,-0.12
2463664012,-0.84,-0.53,-0.12
2463666006,-0.84,-0.52,-0.13
2463668003,-0.84,-0.52,-0.13
2463670006,-0.84,-0.52,-0.13
2463672007,-0.84,-0.52,-0.13
2463674060,-0.84,-0.52,-0.13
2463676114,-0.84,-0.53,-0.12
2463678043,-0.84,-0.53,-0.12
2463680019,-0.84,-0.53,-0.12
2463682013,-0.84,-0.53,-0.12
2463683977,-0.84,-0.53,-0.12
2463685975,-0.84,-0.54,-0.12
2463687977,-0.84,-0.54,-0.12
2463689976,-0.84,-0.54,-0.12
2463691977,-0.84,-0.54,-0.12
2463693981,-0.84,-0.54,-0.12
2463695991,-0.85,-0.54,-0.11
2463697976,-0.85,-0.54,-0.11
2463699977,-0.85,-0.54,-0.11
2463702084,-0.85,-0.54,-0.11
2463704023,-0.85,-0.54,-0.11
2463706010,-0.84,-0.53,-0.09
2463708010,-0.84,-0.53,-0.09
2463710008,-0.84,-0.53,-0.09
2463712007,-0.84,-0.53,-0.09
2463714010,-0.84,-0.53,-0.09
2463716002,-0.84,-0.54,-0.10
2463717977,-0.84,-0.54,-0.10
2463719980,-0.84,-0.54,-0.10
2463721979,-0.84,-0.54,-0.10
2463723973,-0.84,-0.54,-0.10
2463726083,-0.84,-0.53,-0.09
2463727987,-0.84,-0.53,-0.09
2463729977,-0.84,-0.53,-0.09
2463731980,-0.84,-0.53,-0.09
2463734010,-0.84,-0.53,-0.09
2463735980,-0.84,-0.54,-0.09
2463738066,-0.84,-0.54,-0.09
2463740039,-0.84,-0.54,-0.09
2463741975,-0.84,-0.54,-0.09
2463744027,-0.84,-0.54,-0.09
2463746008,-0.84,-0.55,-0.09
2463748004,-0.84,-0.55,-0.09
2463750010,-0.84,-0.55,-0.09
2463752130,-0.84,-0.55,-0.09
2463754007,-0.84,-0.55,-0.09
2463756012,-0.83,-0.55,-0.08
2463757980,-0.83,-0.55,-0.08
2463759979,-0.83,-0.55,-0.08
2463761985,-0.83,-0.55,-0.08
2463763978,-0.83,-0.55,-0.08
2463765980,-0.83,-0.55,-0.08
2463767980,-0.83,-0.55,-0.08
2463769973,-0.83,-0.55,-0.08
2463771981,-0.83,-0.55,-0.08
2463773980,-0.83,-0.55,-0.08
2463776077,-0.83,-0.55,-0.09
2463777987,-0.83,-0.55,-0.09
2463779993,-0.83,-0.55,-0.09
2463782013,-0.83,-0.55,-0.09
2463784027,-0.83,-0.55,-0.09
2463786132,-0.84,-0.55,-0.09
2463788034,-0.84,-0.55,-0.09
2463790006,-0.84,-0.55,-0.09
2463792001,-0.84,-0.55,-0.09
2463794003,-0.84,-0.55,-0.09
2463796009,-0.83,-0.55,-0.09
2463798004,-0.83,-0.55,-0.09
2463799988,-0.83,-0.55,-0.09
2463802093,-0.83,-0.55,-0.09
2463803991,-0.83,-0.55,-0.09
2463805977,-0.83,-0.55,-0.10
2463807976,-0.83,-0.55,-0.10
2463809976,-0.83,-0.55,-0.10
2463811974,-0.83,-0.55,-0.10
2463813974,-0.83,-0.55,-0.10
2463815979,-0.83,-0.55,-0.10
2463817976,-0.83,-0.55,-0.10
2463819977,-0.83,-0.55,-0.10
2463821973,-0.83,-0.55,-0.10
2463824010,-0.83,-0.55,-0.10
2463826111,-0.83,-0.56,-0.11
2463828009,-0.83,-0.56,-0.11
2463830004,-0.83,-0.56,-0.11
2463832025,-0.83,-0.56,-0.11
2463834057,-0.83,-0.56,-0.11
2463836050,-0.84,-0.55,-0.11
2463838008,-0.84,-0.55,-0.11
2463840008,-0.84,-0.55,-0.11
2463841979,-0.84,-0.55,-0.11
2463843978,-0.84,-0.55,-0.11
2463845979,-0.84,-0.54,-0.11
2463847979,-0.84,-0.54,-0.11
2463849980,-0.84,-0.54,-0.11
2463852099,-0.84,-0.54,-0.11
2463853984,-0.84,-0.54,-0.11
2463855977,-0.84,-0.54,-0.11
2463857977,-0.83,-0.55,-0.11
2463859981,-0.83,-0.55,-0.11
2463861980,-0.83,-0.55,-0.11
2463864015,-0.83,-0.55,-0.11
2463866007,-0.83,-0.55,-0.11
2463868000,-0.83,-0.55,-0.13
2463870004,-0.83,-0.55,-0.13
2463872005,-0.83,-0.55,-0.13
2463874005,-0.83,-0.55,-0.13
2463876089,-0.83,-0.55,-0.13
2463877985,-0.84,-0.54,-0.13
2463879985,-0.84,-0.54,-0.13
2463882028,-0.84,-0.54,-0.13
2463884018,-0.84,-0.54,-0.13
2463885976,-0.84,-0.54,-0.13
2463887976,-0.84,-0.54,-0.13
2463889979,-0.84,-0.54,-0.13
2463891995,-0.84,-0.54,-0.13
2463894106,-0.84,-0.54,-0.13
2463896014,-0.84,-0.54,-0.13
2463897976,-0.83,-0.54,-0.13
2463899975,-0.83,-0.54,-0.13
2463902094,-0.83,-0.54,-0.13
2463904024,-0.83,-0.54,-0.13
2463906000,-0.83,-0.54,-0.13
2463907999,-0.83,-0.54,-0.13
2463910006,-0.83,-0.54,-0.13
2463912005,-0.83,-0.54,-0.13
2463914004,-0.83,-0.54,-0.13
2463916006,-0.83,-0.54,-0.13
2463917980,-0.83,-0.54,-0.12
2463919981,-0.83,-0.54,-0.12
2463921978,-0.83,-0.54,-0.12
2463923973,-0.83,-0.54,-0.12
2463926087,-0.83,-0.54,-0.12
2463927987,-0.84,-0.54,-0.12
2463929977,-0.84,-0.54,-0.12
2463931978,-0.84,-0.54,-0.12
2463933982,-0.84,-0.54,-0.12
2463936019,-0.84,-0.54,-0.12
2463937974,-0.83,-0.55,-0.12
2463939982,-0.83,-0.55,-0.12
2463942134,-0.83,-0.55,-0.12
2463944048,-0.83,-0.55,-0.12
2463946007,-0.83,-0.55,-0.12
2463948001,-0.83,-0.56,-0.12
2463950004,-0.83,-0.56,-0.12
2463952122,-0.83,-0.56,-0.12
2463954009,-0.83,-0.56,-0.12
2463956006,-0.83,-0.56,-0.12
2463958019,-0.83,-0.55,-0.12
2463959980,-0.83,-0.55,-0.12
2463961980,-0.83,-0.55,-0.12
2463963977,-0.83,-0.55,-0.12
2463965979,-0.83,-0.55,-0.12
2463967980,-0.83,-0.55,-0.11
2463969979,-0.83,-0.55,-0.11
2463971979,-0.83,-0.55,-0.11
2463973980,-0.83,-0.55,-0.11
2463976078,-0.83,-0.55,-0.11
2463977988,-0.83,-0.55,-0.11
2463979984,-0.83,-0.55,-0.11
2463981980,-0.83,-0.55,-0.11
2463984015,-0.83,-0.55,-0.11
2463986053,-0.83,-0.55,-0.11
2463988056,-0.83,-0.56,-0.13
2463990048,-0.83,-0.56,-0.13
2463992011,-0.83,-0.56,-0.13
2463994006,-0.83,-0.56,-0.13
2463996015,-0.83,-0.56,-0.13
2463998006,-0.83,-0.56,-0.12
2464000010,-0.83,-0.56,-0.12
2464002108,-0.83,-0.56,-0.12
2464003991,-0.83,-0.56,-0.12
2464005973,-0.83,-0.56,-0.12
2464007975,-0.82,-0.56,-0.11
2464009975,-0.82,-0.56,-0.11
2464011975,-0.82,-0.56,-0.11
2464013976,-0.82,-0.56,-0.11
2464015979,-0.82,-0.56,-0.11
2464017974,-0.82,-0.56,-0.11
2464019974,-0.82,-0.56,-0.11
2464021974,-0.82,-0.56,-0.11
2464024014,-0.82,-0.56,-0.11
2464026100,-0.82,-0.56,-0.11
2464028013,-0.82,-0.56,-0.10
2464030010,-0.82,-0.56,-0.10
2464032008,-0.82,-0.56,-0.10
2464034008,-0.82,-0.56,-0.10
2464036021,-0.82,-0.56,-0.10
2464038065,-0.83,-0.55,-0.11
2464040019,-0.83,-0.55,-0.11
2464041979,-0.83,-0.55,-0.11
2464043977,-0.83,-0.55,-0.11
2464045980,-0.83,-0.55,-0.11
2464047977,-0.83,-0.55,-0.11
2464049979,-0.84,-0.55,-0.11
2464052100,-0.84,-0.55,-0.11
2464053978,-0.84,-0.55,-0.11
2464055977,-0.84,-0.55,-0.11
2464057976,-0.84,-0.55,-0.11
2464059974,-0.83,-0.54,-0.11
2464061980,-0.83,-0.54,-0.11
2464064026,-0.83,-0.54,-0.11
2464066007,-0.83,-0.54,-0.11
2464068008,-0.83,-0.54,-0.11
2464070010,-0.84,-0.54,-0.11
2464072008,-0.84,-0.54,-0.11
2464074009,-0.84,-0.54,-0.11
2464076091,-0.84,-0.54,-0.11
2464077986,-0.84,-0.54,-0.11
2464079977,-0.84,-0.54,-0.12
2464081980,-0.84,-0.54,-0.12
2464083979,-0.84,-0.54,-0.12
2464086017,-0.84,-0.54,-0.12
2464088017,-0.84,-0.54,-0.12
2464089981,-0.84,-0.54,-0.11
2464091974,-0.84,-0.54,-0.11
2464093979,-0.84,-0.54,-0.11
2464096010,-0.84,-0.54,-0.11
2464098090,-0.84,-0.54,-0.11
2464100017,-0.84,-0.54,-0.11
2464102095,-0.84,-0.54,-0.11
2464104031,-0.84,-0.54,-0.11
2464106006,-0.84,-0.54,-0.11
2464108004,-0.84,-0.54,-0.11
2464110006,-0.84,-0.53,-0.10
2464112004,-0.84,-0.53,-0.10
2464114001,-0.84,-0.53,-0.10
2464116007,-0.84,-0.53,-0.10
2464117979,-0.84,-0.53,-0.10
2464119979,-0.84,-0.52,-0.10
2464121980,-0.84,-0.52,-0.10
2464123974,-0.84,-0.52,-0.10
2464126084,-0.84,-0.52,-0.10
2464127989,-0.84,-0.52,-0.10
2464129981,-0.84,-0.53,-0.09
2464131981,-0.84,-0.53,-0.09
2464133980,-0.84,-0.53,-0.09
2464136021,-0.84,-0.53,-0.09
2464137979,-0.84,-0.53,-0.09
2464139976,-0.84,-0.53,-0.09
2464141975,-0.84,-0.53,-0.09
2464144026,-0.84,-0.53,-0.09
2464146075,-0.84,-0.53,-0.09
2464148037,-0.84,-0.53,-0.09
2464150002,-0.84,-0.53,-0.08
2464152123,-0.84,-0.53,-0.08
2464154008,-0.84,-0.53,-0.08
2464156006,-0.84,-0.53,-0.08
2464158004,-0.84,-0.53,-0.08
2464160011,-0.84,-0.54,-0.08
2464161980,-0.84,-0.54,-0.08
2464163980,-0.84,-0.54,-0.08
2464165979,-0.84,-0.54,-0.08
2464167981,-0.84,-0.54,-0.08
2464169976,-0.84,-0.54,-0.07
2464171974,-0.84,-0.54,-0.07
2464173977,-0.84,-0.54,-0.07
2464176083,-0.84,-0.54,-0.07
2464177989,-0.84,-0.54,-0.07
2464179984,-0.84,-0.53,-0.07
2464181981,-0.84,-0.53,-0.07
2464184014,-0.84,-0.53,-0.07
2464186008,-0.84,-0.53,-0.07
2464188010,-0.84,-0.53,-0.07
2464190044,-0.84,-0.54,-0.08
2464192038,-0.84,-0.54,-0.08
2464194033,-0.84,-0.54,-0.08
2464196021,-0.84,-0.54,-0.08
2464198009,-0.84,-0.54,-0.08
2464200013,-0.84,-0.54,-0.08
2464202093,-0.84,-0.54,-0.08
2464203990,-0.84,-0.54,-0.08
2464205976,-0.84,-0.54,-0.08
2464207976,-0.84,-0.54,-0.08
2464209977,-0.83,-0.55,-0.08
2464211976,-0.83,-0.55,-0.08
2464213975,-0.83,-0.55,-0.08
2464215970,-0.83,-0.55,-0.08
2464217978,-0.83,-0.55,-0.08
2464219972,-0.83,-0.55,-0.09
2464221977,-0.83,-0.55,-0.09
2464224013,-0.83,-0.55,-0.09
2464226205,-0.83,-0.55,-0.09
2464228098,-0.83,-0.55,-0.09
2464230049,-0.84,-0.56,-0.10
2464232023,-0.84,-0.56,-0.10
2464234006,-0.84,-0.56,-0.10
2464236046,-0.84,-0.56,-0.10
2464238008,-0.84,-0.56,-0.10
2464240011,-0.84,-0.56,-0.10
2464242069,-0.84,-0.56,-0.11
2464244021,-0.84,-0.56,-0.11
2464245976,-0.84,-0.56,-0.11
2464247979,-0.84,-0.56,-0.11
2464249982,-0.84,-0.56,-0.11
2464252106,-0.83,-0.56,-0.13
2464253975,-0.83,-0.56,-0.13
2464255979,-0.83,-0.56,-0.13
2464257979,-0.83,-0.56,-0.13
2464259977,-0.83,-0.56,-0.13
2464261976,-0.82,-0.55,-0.12
2464264021,-0.82,-0.55,-0.12
2464266010,-0.82,-0.55,-0.12
2464268005,-0.82,-0.55,-0.12
2464270008,-0.82,-0.55,-0.12
2464272007,-0.83,-0.56,-0.12
2464274006,-0.83,-0.56,-0.12
2464276078,-0.83,-0.56,-0.12
2464277987,-0.83,-0.56,-0.12
2464279978,-0.83,-0.56,-0.12
2464281974,-0.83,-0.57,-0.14
2464283974,-0.83,-0.57,-0.14
2464285984,-0.83,-0.57,-0.14
2464287977,-0.83,-0.57,-0.14
2464289980,-0.83,-0.57,-0.14
2464291991,-0.82,-0.56,-0.13
2464294014,-0.82,-0.56,-0.13
2464295990,-0.82,-0.56,-0.13
2464297977,-0.82,-0.56,-0.13
2464299976,-0.82,-0.56,-0.13
2464302174,-0.82,-0.56,-0.14
2464304035,-0.82,-0.56,-0.14
2464306006,-0.82,-0.56,-0.14
2464308004,-0.82,-0.56,-0.14
2464310006,-0.82,-0.56,-0.14
2464312008,-0.82,-0.55,-0.15
2464314003,-0.82,-0.55,-0.15
2464316002,-0.82,-0.55,-0.15
2464317978,-0.82,-0.55,-0.15
2464319980,-0.82,-0.55,-0.15
2464321980,-0.83,-0.55,-0.16
2464323977,-0.83,-0.55,-0.16
2464326085,-0.83,-0.55,-0.16
2464327987,-0.83,-0.55,-0.16
2464329979,-0.83,-0.55,-0.16
2464331980,-0.83,-0.55,-0.15
2464333979,-0.83,-0.55,-0.15
2464336009,-0.83,-0.55,-0.15
2464337977,-0.83,-0.55,-0.15
2464339976,-0.83,-0.55,-0.15
2464341978,-0.82,-0.55,-0.15
2464344017,-0.82,-0.55,-0.15
2464346003,-0.82,-0.55,-0.15
2464348020,-0.82,-0.55,-0.15
2464350058,-0.82,-0.55,-0.15
2464352163,-0.83,-0.55,-0.15
2464354003,-0.83,-0.55,-0.15
2464356001,-0.83,-0.55,-0.15
2464358006,-0.83,-0.55,-0.15
2464360013,-0.83,-0.55,-0.15
2464361979,-0.82,-0.55,-0.15
2464363979,-0.82,-0.55,-0.15
2464365979,-0.82,-0.55,-0.15
2464367975,-0.82,-0.55,-0.15
2464369979,-0.82,-0.55,-0.15
2464371978,-0.83,-0.55,-0.13
2464373979,-0.83,-0.55,-0.13
2464376080,-0.83,-0.55,-0.13
2464377987,-0.83,-0.55,-0.13
2464379974,-0.83,-0.55,-0.13
2464381978,-0.82,-0.55,-0.13
2464384012,-0.82,-0.55,-0.13
2464386006,-0.82,-0.55,-0.13
2464388006,-0.82,-0.55,-0.13
2464390009,-0.82,-0.55,-0.13
2464392009,-0.83,-0.56,-0.12
2464394009,-0.83,-0.56,-0.12
2464396036,-0.83,-0.56,-0.12
2464398111,-0.83,-0.56,-0.12
2464400018,-0.83,-0.56,-0.12
2464402092,-0.82,-0.56,-0.11
2464403987,-0.82,-0.56,-0.11
2464405976,-0.82,-0.56,-0.11
2464407974,-0.82,-0.56,-0.11
2464409975,-0.82,-0.56,-0.11
2464411976,-0.83,-0.57,-0.10
2464413977,-0.83,-0.57,-0.10
2464415980,-0.83,-0.57,-0.10
2464417980,-0.83,-0.57,-0.10
2464419977,-0.83,-0.57,-0.10
2464421977,-0.84,-0.52,0.00
2464424025,-0.84,-0.52,0.00
2464426097,-0.84,-0.52,0.00
2464428004,-0.84,-0.52,0.00
2464430007,-0.84,-0.52,0.00
2464432003,-0.84,-0.52,0.00
2464434000,-0.81,-0.62,-0.18
2464436038,-0.81,-0.62,-0.18
2464437981,-0.81,-0.62,-0.18
2464439984,-0.81,-0.62,-0.18
2464441980,-0.81,-0.62,-0.18
2464444130,-0.81,-0.60,-0.16
2464446013,-0.81,-0.60,-0.16
2464447981,-0.81,-0.60,-0.16
2464449980,-0.81,-0.60,-0.16
2464452098,-0.81,-0.60,-0.16
2464453980,-0.82,-0.57,-0.17
2464455975,-0.82,-0.57,-0.17
2464457980,-0.82,-0.57,-0.17
2464459979,-0.82,-0.57,-0.17
2464461979,-0.82,-0.57,-0.17
2464464019,-0.75,-0.55,-0.04
2464466005,-0.75,-0.55,-0.04
2464468005,-0.75,-0.55,-0.04
2464470007,-0.75,-0.55,-0.04
2464472002,-0.75,-0.55,-0.04
2464474006,-0.78,-0.57,-0.10
2464476098,-0.78,-0.57,-0.10
2464477989,-0.78,-0.57,-0.10
2464479981,-0.78,-0.57,-0.10
2464481983,-0.78,-0.57,-0.10
2464483985,-0.85,-0.57,-0.12
2464485981,-0.85,-0.57,-0.12
2464487976,-0.85,-0.57,-0.12
2464489979,-0.85,-0.57,-0.12
2464491980,-0.85,-0.57,-0.12
2464493980,-0.86,-0.62,-0.09
2464495991,-0.86,-0.62,-0.09
2464497992,-0.86,-0.62,-0.09
2464499981,-0.86,-0.62,-0.09
2464502075,-0.86,-0.62,-0.09
2464504055,-0.84,-0.53,-0.09
2464506033,-0.84,-0.53,-0.09
2464508015,-0.84,-0.53,-0.09
2464510010,-0.84,-0.53,-0.09
2464512006,-0.84,-0.53,-0.09
2464514010,-0.87,-0.53,-0.20
2464516012,-0.87,-0.53,-0.20
2464518004,-0.87,-0.53,-0.20
2464520011,-0.87,-0.53,-0.20
2464521980,-0.87,-0.53,-0.20
2464523980,-0.79,-0.40,-0.01
2464526094,-0.79,-0.40,-0.01
2464527988,-0.79,-0.40,-0.01
2464529980,-0.79,-0.40,-0.01
2464531978,-0.79,-0.40,-0.01
2464533979,-0.83,-0.52,-0.11
2464536011,-0.83,-0.52,-0.11
2464537977,-0.83,-0.52,-0.11
2464539978,-0.83,-0.52,-0.11
2464541978,-0.83,-0.52,-0.11
2464544023,-0.93,-0.53,-0.14
2464546009,-0.93,-0.53,-0.14
2464548005,-0.93,-0.53,-0.14
2464550005,-0.93,-0.53,-0.14
2464552176,-0.93,-0.53,-0.14
2464554038,-0.88,-0.51,-0.02
2464556016,-0.88,-0.51,-0.02
2464558010,-0.88,-0.51,-0.02
2464559977,-0.88,-0.51,-0.02
2464561980,-0.88,-0.51,-0.02
2464563976,-0.84,-0.57,-0.12
2464565977,-0.84,-0.57,-0.12
2464567981,-0.84,-0.57,-0.12
2464569978,-0.84,-0.57,-0.12
2464571985,-0.84,-0.57,-0.12
2464573976,-0.86,-0.50,-0.17
2464576096,-0.86,-0.50,-0.17
2464577988,-0.86,-0.50,-0.17
2464579977,-0.86,-0.50,-0.17
2464581978,-0.86,-0.50,-0.17
2464584017,-0.82,-0.50,-0.12
2464586009,-0.82,-0.50,-0.12
2464588005,-0.82,-0.50,-0.12
2464590008,-0.82,-0.50,-0.12
2464592009,-0.82,-0.50,-0.12
2464594005,-0.84,-0.41,-0.11
2464596007,-0.84,-0.41,-0.11
2464597977,-0.84,-0.41,-0.11
2464599975,-0.84,-0.41,-0.11
2464602100,-0.84,-0.41,-0.11
2464604056,-0.85,-0.47,-0.11
2464606026,-0.85,-0.47,-0.11
2464607977,-0.85,-0.47,-0.11
2464609977,-0.85,-0.47,-0.11
2464611980,-0.85,-0.47,-0.11
2464613973,-0.91,-0.51,-0.09
2464615974,-0.91,-0.51,-0.09
2464617976,-0.91,-0.51,-0.09
2464619975,-0.91,-0.51,-0.09
2464622051,-0.91,-0.51,-0.09
2464624020,-0.91,-0.51,-0.09
2464626110,-0.88,-0.52,-0.05
2464628007,-0.88,-0.52,-0.05
2464630008,-0.88,-0.52,-0.05
2464632005,-0.88,-0.52,-0.05
2464634004,-0.88,-0.52,-0.05
2464636029,-0.83,-0.64,-0.12
2464637977,-0.83,-0.64,-0.12
2464639971,-0.83,-0.64,-0.12
2464641977,-0.83,-0.64,-0.12
2464643973,-0.83,-0.64,-0.12
2464645977,-0.82,-0.60,-0.08
2464647973,-0.82,-0.60,-0.08
2464649976,-0.82,-0.60,-0.08
2464652090,-0.82,-0.60,-0.08
2464653980,-0.82,-0.60,-0.08
2464655974,-0.75,-0.62,-0.08
2464657986,-0.75,-0.62,-0.08
2464660148,-0.75,-0.62,-0.08
2464662016,-0.75,-0.62,-0.08
2464664027,-0.75,-0.62,-0.08
2464666006,-0.75,-0.62,-0.13
2464668004,-0.75,-0.62,-0.13
2464670003,-0.75,-0.62,-0.13
2464672003,-0.75,-0.62,-0.13
2464674003,-0.75,-0.62,-0.13
2464676114,-0.75,-0.61,-0.11
2464677993,-0.75,-0.61,-0.11
2464679979,-0.75,-0.61,-0.11
2464681980,-0.75,-0.61,-0.11
2464683980,-0.75,-0.61,-0.11
2464685974,-0.82,-0.64,-0.11
2464687979,-0.82,-0.64,-0.11
2464689980,-0.82,-0.64,-0.11
2464691976,-0.82,-0.64,-0.11
2464693981,-0.82,-0.64,-0.11
2464695990,-0.87,-0.62,-0.09
2464697976,-0.87,-0.62,-0.09
2464699972,-0.87,-0.62,-0.09
2464702122,-0.87,-0.62,-0.09
2464704035,-0.87,-0.62,-0.09
2464706065,-0.83,-0.66,-0.12
2464708043,-0.83,-0.66,-0.12
2464710004,-0.83,-0.66,-0.12
2464712003,-0.83,-0.66,-0.12
2464714002,-0.83,-0.66,-0.12
2464716005,-0.82,-0.57,-0.06
2464718001,-0.82,-0.57,-0.06
2464720005,-0.82,-0.57,-0.06
2464721980,-0.82,-0.57,-0.06
2464723979,-0.82,-0.57,-0.06
2464726094,-0.79,-0.57,-0.11
2464727987,-0.79,-0.57,-0.11
2464729980,-0.79,-0.57,-0.11
2464731978,-0.79,-0.57,-0.11
2464733986,-0.79,-0.57,-0.11
2464736011,-0.79,-0.52,-0.12
2464737976,-0.79,-0.52,-0.12
2464739979,-0.79,-0.52,-0.12
2464741976,-0.79,-0.52,-0.12
2464744020,-0.79,-0.52,-0.12
2464746008,-0.83,-0.51,-0.14
2464748000,-0.83,-0.51,-0.14
2464750032,-0.83,-0.51,-0.14
2464752173,-0.83,-0.51,-0.14
2464754034,-0.83,-0.51,-0.14
2464756050,-0.88,-0.52,-0.14
2464758002,-0.88,-0.52,-0.14
2464760006,-0.88,-0.52,-0.14
2464761978,-0.88,-0.52,-0.14
2464763981,-0.88,-0.52,-0.14
2464765977,-0.89,-0.51,-0.13
2464767984,-0.89,-0.51,-0.13
2464769979,-0.89,-0.51,-0.13
2464771977,-0.89,-0.51,-0.13
2464773979,-0.89,-0.51,-0.13
2464776096,-0.86,-0.52,-0.18
2464777987,-0.86,-0.52,-0.18
2464779979,-0.86,-0.52,-0.18
2464781980,-0.86,-0.52,-0.18
2464784016,-0.86,-0.52,-0.18
2464786005,-0.86,-0.50,-0.16
2464788008,-0.86,-0.50,-0.16
2464790007,-0.86,-0.50,-0.16
2464792008,-0.86,-0.50,-0.16
2464794007,-0.86,-0.50,-0.16
2464796009,-0.86,-0.49,-0.17
2464797987,-0.86,-0.49,-0.17
2464800137,-0.86,-0.49,-0.17
2464802130,-0.86,-0.49,-0.17
2464803995,-0.86,-0.49,-0.17
2464806007,-0.84,-0.48,-0.17
2464807981,-0.84,-0.48,-0.17
2464809989,-0.84,-0.48,-0.17
2464811984,-0.84,-0.48,-0.17
2464813977,-0.84,-0.48,-0.17
2464815975,-0.84,-0.48,-0.17
2464817975,-0.85,-0.47,-0.14
2464819980,-0.85,-0.47,-0.14
2464821979,-0.85,-0.47,-0.14
2464824022,-0.85,-0.47,-0.14
2464826103,-0.85,-0.47,-0.14
2464828005,-0.85,-0.52,-0.11
2464830002,-0.85,-0.52,-0.11
2464832003,-0.85,-0.52,-0.11
2464834002,-0.85,-0.52,-0.11
2464836037,-0.85,-0.52,-0.11
2464837979,-0.86,-0.53,-0.09
2464839979,-0.86,-0.53,-0.09
2464841975,-0.86,-0.53,-0.09
2464843993,-0.86,-0.53,-0.09
2464846140,-0.86,-0.53,-0.09
2464848013,-0.86,-0.54,-0.10
2464849976,-0.86,-0.54,-0.10
2464852104,-0.86,-0.54,-0.10
2464853980,-0.86,-0.54,-0.10
2464855980,-0.86,-0.54,-0.10
2464857981,-0.83,-0.56,-0.09
2464859980,-0.83,-0.56,-0.09
2464861980,-0.83,-0.56,-0.09
2464864019,-0.83,-0.56,-0.09
2464866004,-0.83,-0.56,-0.09
2464868004,-0.80,-0.57,-0.08
2464870002,-0.80,-0.57,-0.08
2464872007,-0.80,-0.57,-0.08
2464874007,-0.80,-0.57,-0.08
2464876102,-0.80,-0.57,-0.08
2464877987,-0.80,-0.57,-0.07
2464879979,-0.80,-0.57,-0.07
2464881980,-0.80,-0.57,-0.07
2464883979,-0.80,-0.57,-0.07
2464885978,-0.80,-0.57,-0.07
2464887979,-0.80,-0.57,-0.05
2464889979,-0.80,-0.57,-0.05
2464892095,-0.80,-0.57,-0.05
2464894008,-0.80,-0.57,-0.05
2464895993,-0.80,-0.57,-0.05
2464897979,-0.81,-0.60,-0.07
2464899982,-0.81,-0.60,-0.07
2464902112,-0.81,-0.60,-0.07
2464904029,-0.81,-0.60,-0.07
2464906006,-0.81,-0.60,-0.07
2464908057,-0.82,-0.61,-0.07
2464910004,-0.82,-0.61,-0.07
2464912005,-0.82,-0.61,-0.07
2464914004,-0.82,-0.61,-0.07
2464916004,-0.82,-0.61,-0.07
2464918002,-0.83,-0.61,-0.07
2464919979,-0.83,-0.61,-0.07
2464921977,-0.83,-0.61,-0.07
2464923981,-0.83,-0.61,-0.07
2464926091,-0.83,-0.61,-0.07
2464927988,-0.81,-0.60,-0.09
2464929981,-0.81,-0.60,-0.09
2464931980,-0.81,-0.60,-0.09
2464933980,-0.81,-0.60,-0.09
2464936013,-0.81,-0.60,-0.09
2464938035,-0.81,-0.59,-0.10
2464940030,-0.81,-0.59,-0.10
2464941979,-0.81,-0.59,-0.10
2464944018,-0.81,-0.59,-0.10
2464946005,-0.81,-0.59,-0.10
2464948003,-0.82,-0.57,-0.12
2464950007,-0.82,-0.57,-0.12
2464952121,-0.82,-0.57,-0.12
2464954005,-0.82,-0.57,-0.12
2464956003,-0.82,-0.57,-0.12
2464957980,-0.84,-0.56,-0.12
2464959979,-0.84,-0.56,-0.12
2464961978,-0.84,-0.56,-0.12
2464963976,-0.84,-0.56,-0.12
2464965981,-0.84,-0.56,-0.12
2464967979,-0.84,-0.54,-0.14
2464969979,-0.84,-0.54,-0.14
2464971976,-0.84,-0.54,-0.14
2464973976,-0.84,-0.54,-0.14
2464976081,-0.84,-0.54,-0.14
2464977987,-0.86,-0.52,-0.15
2464979976,-0.86,-0.52,-0.15
2464981977,-0.86,-0.52,-0.15
2464984011,-0.86,-0.52,-0.15
2464986006,-0.86,-0.52,-0.15
2464988008,-0.86,-0.51,-0.15
2464990007,-0.86,-0.51,-0.15
2464992006,-0.86,-0.51,-0.15
2464994003,-0.86,-0.51,-0.15
2464996011,-0.86,-0.51,-0.15
2464998065,-0.85,-0.52,-0.16
2465000022,-0.85,-0.52,-0.16
2465002105,-0.85,-0.52,-0.16
2465003991,-0.85,-0.52,-0.16
2465005982,-0.85,-0.52,-0.16
2465007980,-0.85,-0.52,-0.16
2465010018,-0.86,-0.50,-0.16
2465011975,-0.86,-0.50,-0.16
2465013976,-0.86,-0.50,-0.16
2465015984,-0.86,-0.50,-0.16
2465017976,-0.86,-0.50,-0.16
2465019981,-0.86,-0.51,-0.17
2465021979,-0.86,-0.51,-0.17
2465024022,-0.86,-0.51,-0.17
2465026100,-0.86,-0.51,-0.17
2465028005,-0.86,-0.51,-0.17
2465030005,-0.85,-0.51,-0.17
2465032005,-0.85,-0.51,-0.17
2465034005,-0.85,-0.51,-0.17
2465036035,-0.85,-0.51,-0.17
2465037979,-0.85,-0.51,-0.17
2465039976,-0.84,-0.52,-0.16
2465041979,-0.84,-0.52,-0.16
2465043975,-0.84,-0.52,-0.16
2465046049,-0.84,-0.52,-0.16
2465048020,-0.84,-0.52,-0.16
2465049977,-0.82,-0.52,-0.14
2465052095,-0.82,-0.52,-0.14
2465053974,-0.82,-0.52,-0.14
2465055974,-0.82,-0.52,-0.14
2465057974,-0.82,-0.52,-0.14
2465059974,-0.84,-0.53,-0.11
2465061976,-0.84,-0.53,-0.11
2465064022,-0.84,-0.53,-0.11
2465066004,-0.84,-0.53,-0.11
2465068003,-0.84,-0.53,-0.11
2465070006,-0.85,-0.52,-0.09
2465072001,-0.85,-0.52,-0.09
2465074004,-0.85,-0.52,-0.09
2465076091,-0.85,-0.52,-0.09
2465077987,-0.85,-0.52,-0.09
2465079979,-0.87,-0.52,-0.07
2465081978,-0.87,-0.52,-0.07
2465083972,-0.87,-0.52,-0.07
2465085981,-0.87,-0.52,-0.07
2465087979,-0.87,-0.52,-0.07
2465089977,-0.85,-0.54,-0.06
2465091985,-0.85,-0.54,-0.06
2465094094,-0.85,-0.54,-0.06
2465096014,-0.85,-0.54,-0.06
2465097978,-0.85,-0.54,-0.06
2465099977,-0.85,-0.54,-0.05
2465102093,-0.85,-0.54,-0.05
2465104025,-0.85,-0.54,-0.05
2465106003,-0.85,-0.54,-0.05
2465108004,-0.85,-0.54,-0.05
2465110007,-0.84,-0.55,-0.05
2465112052,-0.84,-0.55,-0.05
2465114009,-0.84,-0.55,-0.05
2465116001,-0.84,-0.55,-0.05
2465118002,-0.84,-0.55,-0.05
2465119978,-0.83,-0.54,-0.05
2465121979,-0.83,-0.54,-0.05
2465123979,-0.83,-0.54,-0.05
2465126086,-0.83,-0.54,-0.05
2465127987,-0.83,-0.54,-0.05
2465129980,-0.82,-0.53,-0.06
2465131979,-0.82,-0.53,-0.06
2465133981,-0.82,-0.53,-0.06
2465136015,-0.82,-0.53,-0.06
2465137981,-0.82,-0.53,-0.06
2465139978,-0.81,-0.54,-0.07
2465142121,-0.81,-0.54,-0.07
2465144040,-0.81,-0.54,-0.07
2465146006,-0.81,-0.54,-0.07
2465148003,-0.81,-0.54,-0.07
2465150004,-0.82,-0.55,-0.09
2465152123,-0.82,-0.55,-0.09
2465154003,-0.82,-0.55,-0.09
2465156004,-0.82,-0.55,-0.09
2465157980,-0.82,-0.55,-0.09
2465159978,-0.82,-0.57,-0.09
2465161978,-0.82,-0.57,-0.09
2465163977,-0.82,-0.57,-0.09
2465165975,-0.82,-0.57,-0.09
2465167980,-0.82,-0.57,-0.09
2465169980,-0.82,-0.59,-0.12
2465171978,-0.82,-0.59,-0.12
2465173974,-0.82,-0.59,-0.12
2465176074,-0.82,-0.59,-0.12
2465177988,-0.82,-0.59,-0.12
2465179980,-0.82,-0.62,-0.12
2465181976,-0.82,-0.62,-0.12
2465184010,-0.82,-0.62,-0.12
2465186006,-0.82,-0.62,-0.12
2465188041,-0.82,-0.62,-0.12
2465190059,-0.81,-0.62,-0.14
2465192040,-0.81,-0.62,-0.14
2465194003,-0.81,-0.62,-0.14
2465196011,-0.81,-0.62,-0.14
2465198007,-0.81,-0.62,-0.14
2465200009,-0.81,-0.62,-0.14
2465202095,-0.81,-0.62,-0.15
2465203992,-0.81,-0.62,-0.15
2465205975,-0.81,-0.62,-0.15
2465207975,-0.81,-0.62,-0.15
2465209976,-0.81,-0.62,-0.15
2465211975,-0.83,-0.61,-0.16
2465214022,-0.83,-0.61,-0.16
2465215979,-0.83,-0.61,-0.16
2465217979,-0.83,-0.61,-0.16
2465219978,-0.83,-0.61,-0.16
2465221977,-0.84,-0.57,-0.16
2465224023,-0.84,-0.57,-0.16
2465226106,-0.84,-0.57,-0.16
2465228007,-0.84,-0.57,-0.16
2465230005,-0.84,-0.57,-0.16
2465232002,-0.86,-0.53,-0.14
2465234007,-0.86,-0.53,-0.14
2465236064,-0.86,-0.53,-0.14
2465238039,-0.86,-0.53,-0.14
2465240015,-0.86,-0.53,-0.14
2465241976,-0.86,-0.49,-0.13
2465243976,-0.86,-0.49,-0.13
2465245981,-0.86,-0.49,-0.13
2465247977,-0.86,-0.49,-0.13
2465249983,-0.86,-0.49,-0.13
2465252107,-0.86,-0.49,-0.13
2465253974,-0.86,-0.49,-0.13
2465255977,-0.86,-0.49,-0.13
2465257975,-0.86,-0.49,-0.13
2465259975,-0.86,-0.49,-0.13
2465261978,-0.86,-0.50,-0.14
2465264013,-0.86,-0.50,-0.14
2465266003,-0.86,-0.50,-0.14
2465268005,-0.86,-0.50,-0.14
2465270008,-0.86,-0.50,-0.14
2465272006,-0.87,-0.53,-0.13
2465274005,-0.87,-0.53,-0.13
2465276097,-0.87,-0.53,-0.13
2465277986,-0.87,-0.53,-0.13
2465279977,-0.87,-0.53,-0.13
2465281977,-0.87,-0.57,-0.14
2465283977,-0.87,-0.57,-0.14
2465285975,-0.87,-0.57,-0.14
2465287975,-0.87,-0.57,-0.14
2465289979,-0.87,-0.57,-0.14
2465291980,-0.88,-0.60,-0.15
2465293981,-0.88,-0.60,-0.15
2465296060,-0.88,-0.60,-0.15
2465298018,-0.88,-0.60,-0.15
2465299975,-0.88,-0.60,-0.15
2465302094,-0.88,-0.60,-0.18
2465304026,-0.88,-0.60,-0.18
2465306000,-0.88,-0.60,-0.18
2465308001,-0.88,-0.60,-0.18
2465310006,-0.88,-0.60,-0.18
2465312009,-0.88,-0.59,-0.20
2465314004,-0.88,-0.59,-0.20
2465316005,-0.88,-0.59,-0.20
2465317976,-0.88,-0.59,-0.20
2465319976,-0.88,-0.59,-0.20
2465321978,-0.89,-0.55,-0.23
2465323977,-0.89,-0.55,-0.23
2465326086,-0.89,-0.55,-0.23
2465327987,-0.89,-0.55,-0.23
2465329980,-0.89,-0.55,-0.23
2465331979,-0.89,-0.55,-0.25
2465333983,-0.89,-0.55,-0.25
2465335984,-0.89,-0.55,-0.25
2465338051,-0.89,-0.55,-0.25
2465339994,-0.89,-0.55,-0.25
2465341975,-0.93,-0.46,-0.09
2465344049,-0.93,-0.46,-0.09
2465346036,-0.93,-0.46,-0.09
2465348015,-0.93,-0.46,-0.09
2465350005,-0.93,-0.46,-0.09
2465352124,-0.88,-0.52,-0.19
2465354007,-0.88,-0.52,-0.19
2465356007,-0.88,-0.52,-0.19
2465358005,-0.88,-0.52,-0.19
2465360012,-0.88,-0.52,-0.19
2465361977,-0.95,-0.52,-0.08
2465363984,-0.95,-0.52,-0.08
2465365980,-0.95,-0.52,-0.08
2465367979,-0.95,-0.52,-0.08
2465369976,-0.95,-0.52,-0.08
2465371974,-0.98,-0.65,-0.20
2465373979,-0.98,-0.65,-0.20
2465376077,-0.98,-0.65,-0.20
2465377986,-0.98,-0.65,-0.20
2465379979,-0.98,-0.65,-0.20
2465381977,-0.98,-0.65,-0.20
2465384012,-1.02,-0.59,-0.02
2465386008,-1.02,-0.59,-0.02
2465388006,-1.02,-0.59,-0.02
2465390004,-1.02,-0.59,-0.02
2465392003,-1.02,-0.59,-0.02
2465394007,-1.04,-0.64,-0.08
2465396007,-1.04,-0.64,-0.08
2465397978,-1.04,-0.64,-0.08
2465399979,-1.04,-0.64,-0.08
2465402082,-1.04,-0.64,-0.08
2465404003,-1.01,-0.64,-0.12
2465406064,-1.01,-0.64,-0.12
2465408021,-1.01,-0.64,-0.12
2465409978,-1.01,-0.64,-0.12
2465411977,-1.01,-0.64,-0.12
2465413980,-1.02,-0.61,-0.07
2465415977,-1.02,-0.61,-0.07
2465417976,-1.02,-0.61,-0.07
2465419976,-1.02,-0.61,-0.07
2465421978,-1.02,-0.61,-0.07
2465424016,-0.96,-0.55,0.01
2465426110,-0.96,-0.55,0.01
2465428006,-0.96,-0.55,0.01
2465430006,-0.96,-0.55,0.01
2465432006,-0.96,-0.55,0.01
2465434003,-0.93,-0.53,0.01
2465436006,-0.93,-0.53,0.01
2465437981,-0.93,-0.53,0.01
2465440006,-0.93,-0.53,0.01
2465441975,-0.93,-0.53,0.01
2465443975,-0.89,-0.50,0.03
2465445977,-0.89,-0.50,0.03
2465447977,-0.89,-0.50,0.03
2465449975,-0.89,-0.50,0.03
2465452180,-0.89,-0.50,0.03
2465454017,-0.89,-0.50,-0.00
2465455975,-0.89,-0.50,-0.00
2465457975,-0.89,-0.50,-0.00
2465459977,-0.89,-0.50,-0.00
2465461979,-0.89,-0.50,-0.00
2465464019,-0.95,-0.49,0.01
2465466005,-0.95,-0.49,0.01
2465468004,-0.95,-0.49,0.01
2465470002,-0.95,-0.49,0.01
2465472001,-0.95,-0.49,0.01
2465474005,-1.03,-0.59,-0.13
2465476113,-1.03,-0.59,-0.13
2465477986,-1.03,-0.59,-0.13
2465479979,-1.03,-0.59,-0.13
2465481979,-1.03,-0.59,-0.13
2465483980,-1.22,-0.62,-0.05
2465485979,-1.22,-0.62,-0.05
2465487979,-1.22,-0.62,-0.05
2465489978,-1.22,-0.62,-0.05
2465491981,-1.22,-0.62,-0.05
2465493977,-1.11,-0.74,-0.46
2465495992,-1.11,-0.74,-0.46
2465497979,-1.11,-0.74,-0.46
2465500097,-1.11,-0.74,-0.46
2465502133,-1.11,-0.74,-0.46
2465504024,-1.11,-0.47,0.25
2465506000,-1.11,-0.47,0.25
2465508001,-1.11,-0.47,0.25
2465510005,-1.11,-0.47,0.25
2465512007,-1.11,-0.47,0.25
2465514001,-1.04,-0.66,-0.21
2465516006,-1.04,-0.66,-0.21
2465517977,-1.04,-0.66,-0.21
2465519976,-1.04,-0.66,-0.21
2465521975,-1.04,-0.66,-0.21
2465523981,-1.01,-0.64,-0.12
2465526089,-1.01,-0.64,-0.12
2465527990,-1.01,-0.64,-0.12
2465529979,-1.01,-0.64,-0.12
2465531984,-1.01,-0.64,-0.12
2465533980,-1.03,-0.55,-0.11
2465535976,-1.03,-0.55,-0.11
2465537981,-1.03,-0.55,-0.11
2465540016,-1.03,-0.55,-0.11
2465541979,-1.03,-0.55,-0.11
2465544016,-0.80,-0.54,-0.15
2465546029,-0.80,-0.54,-0.15
2465548046,-0.80,-0.54,-0.15
2465550035,-0.80,-0.54,-0.15
2465552117,-0.80,-0.54,-0.15
2465554003,-0.93,-0.36,0.06
2465556010,-0.93,-0.36,0.06
2465558002,-0.93,-0.36,0.06
2465560013,-0.93,-0.36,0.06
2465561977,-0.93,-0.36,0.06
2465563973,-0.83,-0.60,-0.29
2465565981,-0.83,-0.60,-0.29
2465567980,-0.83,-0.60,-0.29
2465569980,-0.83,-0.60,-0.29
2465571979,-0.83,-0.60,-0.29
2465573978,-0.83,-0.60,-0.29
2465576076,-0.92,-0.42,-0.01
2465577987,-0.92,-0.42,-0.01
2465579978,-0.92,-0.42,-0.01
2465581981,-0.92,-0.42,-0.01
2465584011,-0.92,-0.42,-0.01
2465586005,-0.87,-0.48,-0.12
2465588005,-0.87,-0.48,-0.12
2465590008,-0.87,-0.48,-0.12
2465592007,-0.87,-0.48,-0.12
2465594063,-0.87,-0.48,-0.12
2465596044,-0.97,-0.49,-0.10
2465598010,-0.97,-0.49,-0.10
2465599975,-0.97,-0.49,-0.10
2465602102,-0.97,-0.49,-0.10
2465603991,-0.97,-0.49,-0.10
2465605978,-1.00,-0.39,0.01
2465607975,-1.00,-0.39,0.01
2465609975,-1.00,-0.39,0.01
2465611979,-1.00,-0.39,0.01
2465613979,-1.00,-0.39,0.01
2465615977,-0.95,-0.55,-0.13
2465617976,-0.95,-0.55,-0.13
2465619974,-0.95,-0.55,-0.13
2465622080,-0.95,-0.55,-0.13
2465624052,-0.95,-0.55,-0.13
2465626113,-0.95,-0.37,0.04
2465628014,-0.95,-0.37,0.04
2465630008,-0.95,-0.37,0.04
2465632013,-0.95,-0.37,0.04
2465634010,-0.95,-0.37,0.04
2465636016,-0.88,-0.54,-0.10
2465637981,-0.88,-0.54,-0.10
2465640058,-0.88,-0.54,-0.10
2465642028,-0.88,-0.54,-0.10
2465643976,-0.88,-0.54,-0.10
2465645977,-0.89,-0.43,-0.05
2465647980,-0.89,-0.43,-0.05
2465649976,-0.89,-0.43,-0.05
2465652095,-0.89,-0.43,-0.05
2465653974,-0.89,-0.43,-0.05
2465655974,-0.83,-0.44,0.01
2465657975,-0.83,-0.44,0.01
2465659975,-0.83,-0.44,0.01
2465661988,-0.83,-0.44,0.01
2465664029,-0.83,-0.44,0.01
2465666005,-0.81,-0.47,-0.04
2465668009,-0.81,-0.47,-0.04
2465670012,-0.81,-0.47,-0.04
2465672009,-0.81,-0.47,-0.04
2465674010,-0.81,-0.47,-0.04
2465676094,-0.84,-0.43,0.02
2465677988,-0.84,-0.43,0.02
2465679980,-0.84,-0.43,0.02
2465681977,-0.84,-0.43,0.02
2465683976,-0.84,-0.43,0.02
2465685980,-0.85,-0.46,-0.03
2465687978,-0.85,-0.46,-0.03
2465689976,-0.85,-0.46,-0.03
2465692031,-0.85,-0.46,-0.03
2465694043,-0.85,-0.46,-0.03
2465696002,-0.90,-0.43,-0.03
2465697976,-0.90,-0.43,-0.03
2465699979,-0.90,-0.43,-0.03
2465702090,-0.90,-0.43,-0.03
2465704028,-0.90,-0.43,-0.03
2465706003,-0.95,-0.46,-0.05
2465708002,-0.95,-0.46,-0.05
2465710007,-0.95,-0.46,-0.05
2465712001,-0.95,-0.46,-0.05
2465714004,-0.95,-0.46,-0.05
2465716002,-0.94,-0.44,-0.02
2465717979,-0.94,-0.44,-0.02
2465719981,-0.94,-0.44,-0.02
2465721980,-0.94,-0.44,-0.02
2465723979,-0.94,-0.44,-0.02
2465726113,-0.95,-0.45,0.02
2465727988,-0.95,-0.45,0.02
2465729980,-0.95,-0.45,0.02
2465731980,-0.95,-0.45,0.02
2465733979,-0.95,-0.45,0.02
2465735979,-0.93,-0.48,-0.06
2465737974,-0.93,-0.48,-0.06
2465740016,-0.93,-0.48,-0.06
2465741979,-0.93,-0.48,-0.06
2465744026,-0.93,-0.48,-0.06
2465746004,-0.93,-0.50,-0.05
2465748035,-0.93,-0.50,-0.05
2465750041,-0.93,-0.50,-0.05
2465752154,-0.93,-0.50,-0.05
2465754001,-0.93,-0.50,-0.05
2465756003,-0.88,-0.50,-0.06
2465758005,-0.88,-0.50,-0.06
2465760011,-0.88,-0.50,-0.06
2465761975,-0.88,-0.50,-0.06
2465763976,-0.88,-0.50,-0.06
2465765981,-0.88,-0.50,-0.06
2465767980,-0.85,-0.47,0.00
2465769979,-0.85,-0.47,0.00
2465771977,-0.85,-0.47,0.00
2465773976,-0.85,-0.47,0.00
2465776076,-0.85,-0.47,0.00
2465777987,-0.85,-0.50,-0.04
2465779977,-0.85,-0.50,-0.04
2465781979,-0.85,-0.50,-0.04
2465784008,-0.85,-0.50,-0.04
2465786007,-0.85,-0.50,-0.04
2465788003,-0.82,-0.48,-0.04
2465790008,-0.82,-0.48,-0.04
2465792020,-0.82,-0.48,-0.04
2465794006,-0.82,-0.48,-0.04
2465795992,-0.82,-0.48,-0.04
2465797974,-0.83,-0.49,-0.03
2465799974,-0.83,-0.49,-0.03
2465802253,-0.83,-0.49,-0.03
2465804020,-0.83,-0.49,-0.03
2465805979,-0.83,-0.49,-0.03
2465807980,-0.81,-0.46,-0.07
2465809979,-0.81,-0.46,-0.07
2465811979,-0.81,-0.46,-0.07
2465813978,-0.81,-0.46,-0.07
2465815977,-0.81,-0.46,-0.07
2465817977,-0.84,-0.45,-0.01
2465819977,-0.84,-0.45,-0.01
2465821978,-0.84,-0.45,-0.01
2465824021,-0.84,-0.45,-0.01
2465826100,-0.84,-0.45,-0.01
2465828010,-0.84,-0.47,-0.06
2465830042,-0.84,-0.47,-0.06
2465832009,-0.84,-0.47,-0.06
2465834005,-0.84,-0.47,-0.06
2465836002,-0.84,-0.47,-0.06
2465838002,-0.85,-0.45,-0.06
2465840017,-0.85,-0.45,-0.06
2465841976,-0.85,-0.45,-0.06
2465843979,-0.85,-0.45,-0.06
2465845977,-0.85,-0.45,-0.06
2465847977,-0.85,-0.46,-0.08
2465849976,-0.85,-0.46,-0.08
2465852090,-0.85,-0.46,-0.08
2465853975,-0.85,-0.46,-0.08
2465855978,-0.85,-0.46,-0.08
2465857979,-0.84,-0.45,-0.11
2465860120,-0.84,-0.45,-0.11
2465862018,-0.84,-0.45,-0.11
2465864024,-0.84,-0.45,-0.11
2465866006,-0.84,-0.45,-0.11
2465868004,-0.83,-0.41,-0.09
2465870001,-0.83,-0.41,-0.09
2465872006,-0.83,-0.41,-0.09
2465874006,-0.83,-0.41,-0.09
2465876115,-0.83,-0.41,-0.09
2465877989,-0.81,-0.41,-0.12
2465879981,-0.81,-0.41,-0.12
2465881979,-0.81,-0.41,-0.12
2465883979,-0.81,-0.41,-0.12
2465885979,-0.81,-0.41,-0.12
2465887981,-0.80,-0.38,-0.09
2465889979,-0.80,-0.38,-0.09
2465891977,-0.80,-0.38,-0.09
2465893980,-0.80,-0.38,-0.09
2465895991,-0.80,-0.38,-0.09
2465897978,-0.82,-0.41,-0.13
2465899977,-0.82,-0.41,-0.13
2465902059,-0.82,-0.41,-0.13
2465904017,-0.82,-0.41,-0.13
2465906070,-0.82,-0.41,-0.13
2465908044,-0.85,-0.37,-0.12
2465910010,-0.85,-0.37,-0.12
2465912011,-0.85,-0.37,-0.12
2465914011,-0.85,-0.37,-0.12
2465916014,-0.85,-0.37,-0.12
2465918012,-0.86,-0.35,-0.09
2465920014,-0.86,-0.35,-0.09
2465921980,-0.86,-0.35,-0.09
2465923974,-0.86,-0.35,-0.09
2465926096,-0.86,-0.35,-0.09
2465927988,-0.87,-0.33,-0.10
2465929997,-0.87,-0.33,-0.10
2465932024,-0.87,-0.33,-0.10
2465933979,-0.87,-0.33,-0.10
2465935977,-0.87,-0.33,-0.10
2465937980,-0.88,-0.29,-0.07
2465940013,-0.88,-0.29,-0.07
2465941979,-0.88,-0.29,-0.07
2465944027,-0.88,-0.29,-0.07
2465946007,-0.88,-0.29,-0.07
2465948009,-0.88,-0.29,-0.08
2465950009,-0.88,-0.29,-0.08
2465952119,-0.88,-0.29,-0.08
2465954011,-0.88,-0.29,-0.08
2465956012,-0.88,-0.29,-0.08
2465957976,-0.88,-0.29,-0.08
2465959985,-0.87,-0.26,-0.05
2465961979,-0.87,-0.26,-0.05
2465963978,-0.87,-0.26,-0.05
2465965983,-0.87,-0.26,-0.05
2465968063,-0.87,-0.26,-0.05
2465970022,-0.86,-0.27,-0.06
2465971979,-0.86,-0.27,-0.06
2465973979,-0.86,-0.27,-0.06
2465976089,-0.86,-0.27,-0.06
2465977987,-0.86,-0.27,-0.06
2465979981,-0.84,-0.26,-0.03
2465981977,-0.84,-0.26,-0.03
2465984017,-0.84,-0.26,-0.03
2465986013,-0.84,-0.26,-0.03
2465988013,-0.84,-0.26,-0.03
2465990007,-0.85,-0.29,-0.03
2465992009,-0.85,-0.29,-0.03
2465994012,-0.85,-0.29,-0.03
2465996016,-0.85,-0.29,-0.03
2465997979,-0.85,-0.29,-0.03
2465999983,-0.85,-0.30,-0.02
2466002096,-0.85,-0.30,-0.02
2466003990,-0.85,-0.30,-0.02
2466005975,-0.85,-0.30,-0.02
2466007976,-0.85,-0.30,-0.02
2466009979,-0.86,-0.29,-0.02
2466011977,-0.86,-0.29,-0.02
2466013977,-0.86,-0.29,-0.02
2466015976,-0.86,-0.29,-0.02
2466017977,-0.86,-0.29,-0.02
2466019976,-0.89,-0.29,-0.05
2466021974,-0.89,-0.29,-0.05
2466024013,-0.89,-0.29,-0.05
2466026105,-0.89,-0.29,-0.05
2466028014,-0.89,-0.29,-0.05
2466030010,-0.89,-0.27,-0.02
2466032009,-0.89,-0.27,-0.02
2466034052,-0.89,-0.27,-0.02
2466036054,-0.89,-0.27,-0.02
2466038045,-0.89,-0.27,-0.02
2466040036,-0.90,-0.29,-0.03
2466041978,-0.90,-0.29,-0.03
2466043978,-0.90,-0.29,-0.03
2466045972,-0.90,-0.29,-0.03
2466047977,-0.90,-0.29,-0.03
2466049978,-0.89,-0.29,-0.02
2466052096,-0.89,-0.29,-0.02
2466053977,-0.89,-0.29,-0.02
2466055979,-0.89,-0.29,-0.02
2466057978,-0.89,-0.29,-0.02
2466059976,-0.88,-0.30,-0.01
2466061975,-0.88,-0.30,-0.01
2466064010,-0.88,-0.30,-0.01
2466066007,-0.88,-0.30,-0.01
2466068006,-0.88,-0.30,-0.01
2466070005,-0.88,-0.32,-0.00
2466072007,-0.88,-0.32,-0.00
2466074001,-0.88,-0.32,-0.00
2466076092,-0.88,-0.32,-0.00
2466077986,-0.88,-0.32,-0.00
2466079975,-0.88,-0.30,0.03
2466081976,-0.88,-0.30,0.03
2466083976,-0.88,-0.30,0.03
2466085980,-0.88,-0.30,0.03
2466087979,-0.88,-0.30,0.03
2466090037,-0.90,-0.32,0.01
2466092026,-0.90,-0.32,0.01
2466093985,-0.90,-0.32,0.01
2466095991,-0.90,-0.32,0.01
2466097979,-0.90,-0.32,0.01
2466099981,-0.90,-0.30,0.01
2466102095,-0.90,-0.30,0.01
2466104032,-0.90,-0.30,0.01
2466106010,-0.90,-0.30,0.01
2466108009,-0.90,-0.30,0.01
2466110009,-0.92,-0.29,0.01
2466112004,-0.92,-0.29,0.01
2466114007,-0.92,-0.29,0.01
2466116004,-0.92,-0.29,0.01
2466117979,-0.92,-0.29,0.01
2466119982,-0.91,-0.29,-0.01
2466121981,-0.91,-0.29,-0.01
2466123980,-0.91,-0.29,-0.01
2466126085,-0.91,-0.29,-0.01
2466127990,-0.91,-0.29,-0.01
2466129981,-0.90,-0.28,-0.02
2466131981,-0.90,-0.28,-0.02
2466133979,-0.90,-0.28,-0.02
2466136026,-0.90,-0.28,-0.02
2466138109,-0.90,-0.28,-0.02
2466140035,-0.89,-0.29,-0.03
2466141977,-0.89,-0.29,-0.03
2466144021,-0.89,-0.29,-0.03
2466146000,-0.89,-0.29,-0.03
2466148002,-0.89,-0.29,-0.03
2466150006,-0.89,-0.29,-0.03
2466152123,-0.89,-0.29,-0.02
2466154004,-0.89,-0.29,-0.02
2466156003,-0.89,-0.29,-0.02
2466157981,-0.89,-0.29,-0.02
2466159973,-0.89,-0.29,-0.02
2466161979,-0.89,-0.30,-0.03
2466163976,-0.89,-0.30,-0.03
2466165974,-0.89,-0.30,-0.03
2466167980,-0.89,-0.30,-0.03
2466169981,-0.89,-0.30,-0.03
2466171979,-0.89,-0.30,-0.02
2466173980,-0.89,-0.30,-0.02
2466176080,-0.89,-0.30,-0.02
2466177988,-0.89,-0.30,-0.02
2466179981,-0.89,-0.30,-0.02
2466181979,-0.88,-0.31,-0.02
2466184007,-0.88,-0.31,-0.02
2466186008,-0.88,-0.31,-0.02
2466188065,-0.88,-0.31,-0.02
2466190049,-0.88,-0.31,-0.02
2466192003,-0.89,-0.30,0.00
2466194007,-0.89,-0.30,0.00
2466196011,-0.89,-0.30,0.00
2466198004,-0.89,-0.30,0.00
2466200008,-0.89,-0.30,0.00
2466202095,-0.89,-0.29,0.01
2466203992,-0.89,-0.29,0.01
2466205977,-0.89,-0.29,0.01
2466207979,-0.89,-0.29,0.01
2466209976,-0.89,-0.29,0.01
2466211976,-0.89,-0.31,-0.01
2466213976,-0.89,-0.31,-0.01
2466215979,-0.89,-0.31,-0.01
2466217978,-0.89,-0.31,-0.01
2466219976,-0.89,-0.31,-0.01
2466221976,-0.90,-0.31,0.01
2466224010,-0.90,-0.31,0.01
2466226213,-0.90,-0.31,0.01
2466228053,-0.90,-0.31,0.01
2466230012,-0.90,-0.31,0.01
2466232009,-0.89,-0.34,0.01
2466234004,-0.89,-0.34,0.01
2466236001,-0.89,-0.34,0.01
2466238039,-0.89,-0.34,0.01
2466240008,-0.89,-0.34,0.01
2466241977,-0.87,-0.39,0.06
2466243976,-0.87,-0.39,0.06
2466245978,-0.87,-0.39,0.06
2466248064,-0.87,-0.39,0.06
2466250016,-0.87,-0.39,0.06
2466252109,-0.95,-0.36,-0.02
2466253979,-0.95,-0.36,-0.02
2466255974,-0.95,-0.36,-0.02
2466257974,-0.95,-0.36,-0.02
2466259975,-0.95,-0.36,-0.02
2466261975,-0.80,-0.37,0.10
2466264021,-0.80,-0.37,0.10
2466266001,-0.80,-0.37,0.10
2466268005,-0.80,-0.37,0.10
2466270007,-0.80,-0.37,0.10
2466272004,-0.91,-0.35,0.11
2466274005,-0.91,-0.35,0.11
2466276099,-0.91,-0.35,0.11
2466277986,-0.91,-0.35,0.11
2466279979,-0.91,-0.35,0.11
2466281979,-0.91,-0.39,-0.01
2466283980,-0.91,-0.39,-0.01
2466285974,-0.91,-0.39,-0.01
2466287975,-0.91,-0.39,-0.01
2466289975,-0.91,-0.39,-0.01
2466291977,-0.94,-0.34,0.04
2466294022,-0.94,-0.34,0.04
2466296044,-0.94,-0.34,0.04
2466298010,-0.94,-0.34,0.04
2466299975,-0.94,-0.34,0.04
2466302090,-0.92,-0.35,0.03
2466304026,-0.92,-0.35,0.03
2466306004,-0.92,-0.35,0.03
2466308003,-0.92,-0.35,0.03
2466310005,-0.92,-0.35,0.03
2466312006,-0.89,-0.37,0.08
2466314007,-0.89,-0.37,0.08
2466316008,-0.89,-0.37,0.08
2466317979,-0.89,-0.37,0.08
2466319979,-0.89,-0.37,0.08
2466321979,-0.95,-0.36,0.03
2466323979,-0.95,-0.36,0.03
2466326081,-0.95,-0.36,0.03
2466327985,-0.95,-0.36,0.03
2466329980,-0.95,-0.36,0.03
2466331979,-0.91,-0.42,0.02
2466333979,-0.91,-0.42,0.02
2466335978,-0.91,-0.42,0.02
2466337978,-0.91,-0.42,0.02
2466340041,-0.91,-0.42,0.02
2466342051,-0.91,-0.42,0.02
2466344042,-0.90,-0.39,0.09
2466346044,-0.90,-0.39,0.09
2466348012,-0.90,-0.39,0.09
2466350009,-0.90,-0.39,0.09
2466352118,-0.90,-0.39,0.09
2466354007,-0.89,-0.45,0.05
2466356002,-0.89,-0.45,0.05
2466358006,-0.89,-0.45,0.05
2466360008,-0.89,-0.45,0.05
2466361981,-0.89,-0.45,0.05
2466363978,-0.89,-0.45,0.05
2466365977,-0.89,-0.45,0.05
2466367977,-0.89,-0.45,0.05
2466369984,-0.89,-0.45,0.05
2466371981,-0.89,-0.45,0.05
2466373981,-0.88,-0.47,0.03
2466376076,-0.88,-0.47,0.03
2466377987,-0.88,-0.47,0.03
2466379979,-0.88,-0.47,0.03
2466381978,-0.88,-0.47,0.03
2466383981,-0.87,-0.49,0.06
2466386006,-0.87,-0.49,0.06
2466388004,-0.87,-0.49,0.06
2466390006,-0.87,-0.49,0.06
2466392007,-0.87,-0.49,0.06
2466394005,-0.90,-0.49,0.08
2466396004,-0.90,-0.49,0.08
2466397977,-0.90,-0.49,0.08
2466399981,-0.90,-0.49,0.08
2466402079,-0.90,-0.49,0.08
2466403991,-0.93,-0.51,0.04
2466405976,-0.93,-0.51,0.04
2466407974,-0.93,-0.51,0.04
2466409973,-0.93,-0.51,0.04
2466412058,-0.93,-0.51,0.04
2466414021,-0.94,-0.52,0.04
2466415979,-0.94,-0.52,0.04
2466417978,-0.94,-0.52,0.04
2466419975,-0.94,-0.52,0.04
2466421976,-0.94,-0.52,0.04
2466423974,-0.89,-0.52,0.07
2466426116,-0.89,-0.52,0.07
2466428010,-0.89,-0.52,0.07
2466430002,-0.89,-0.52,0.07
2466432006,-0.89,-0.52,0.07
2466434001,-0.89,-0.55,0.06
2466436005,-0.89,-0.55,0.06
2466438006,-0.89,-0.55,0.06
2466439980,-0.89,-0.55,0.06
2466441999,-0.89,-0.55,0.06
2466444021,-0.88,-0.57,0.05
2466446018,-0.88,-0.57,0.05
2466447977,-0.88,-0.57,0.05
2466449984,-0.88,-0.57,0.05
2466452089,-0.88,-0.57,0.05
2466453973,-0.87,-0.61,0.06
2466455973,-0.87,-0.61,0.06
2466457980,-0.87,-0.61,0.06
2466459976,-0.87,-0.61,0.06
2466461974,-0.87,-0.61,0.06
2466463982,-0.86,-0.61,0.07
2466466108,-0.86,-0.61,0.07
2466468048,-0.86,-0.61,0.07
2466470001,-0.86,-0.61,0.07
2466472007,-0.86,-0.61,0.07
2466474003,-0.86,-0.63,0.07
2466476113,-0.86,-0.63,0.07
2466478013,-0.86,-0.63,0.07
2466480007,-0.86,-0.63,0.07
2466482008,-0.86,-0.63,0.07
2466483980,-0.86,-0.64,0.05
2466485976,-0.86,-0.64,0.05
2466487977,-0.86,-0.64,0.05
2466489985,-0.86,-0.64,0.05
2466491975,-0.86,-0.64,0.05
