timestamp,accX,accY,accZ
2227747049,-0.89,-0.47,-0.00
2227749028,-0.89,-0.47,-0.00
2227751110,-0.89,-0.47,-0.00
2227752995,-0.89,-0.47,-0.00
2227754985,-0.90,-0.45,-0.02
2227756991,-0.90,-0.45,-0.02
2227758987,-0.90,-0.45,-0.02
2227760984,-0.90,-0.45,-0.02
2227762990,-0.90,-0.45,-0.02
2227764991,-0.87,-0.43,-0.01
2227766993,-0.87,-0.43,-0.01
2227768991,-0.87,-0.43,-0.01
2227770991,-0.87,-0.43,-0.01
2227772986,-0.87,-0.43,-0.01
2227774991,-0.89,-0.45,0.00
2227777058,-0.89,-0.45,0.00
2227778990,-0.89,-0.45,0.00
2227780992,-0.89,-0.45,0.00
2227782989,-0.89,-0.45,0.00
2227784991,-0.88,-0.46,-0.00
2227787058,-0.88,-0.46,-0.00
2227789030,-0.88,-0.46,-0.00
2227791009,-0.88,-0.46,-0.00
2227793013,-0.88,-0.46,-0.00
2227795017,-0.88,-0.50,0.00
2227797012,-0.88,-0.50,0.00
2227799016,-0.88,-0.50,0.00
2227801120,-0.88,-0.50,0.00
2227802995,-0.88,-0.50,0.00
2227804991,-0.88,-0.49,0.00
2227806992,-0.88,-0.49,0.00
2227809020,-0.88,-0.49,0.00
2227810987,-0.88,-0.49,0.00
2227812990,-0.88,-0.49,0.00
2227814987,-0.89,-0.49,-0.00
2227816991,-0.89,-0.49,-0.00
2227818991,-0.89,-0.49,-0.00
2227820989,-0.89,-0.49,-0.00
2227822992,-0.89,-0.49,-0.00
2227824989,-0.88,-0.46,-0.01
2227827126,-0.88,-0.46,-0.01
2227829016,-0.88,-0.46,-0.01
2227831014,-0.88,-0.46,-0.01
2227833015,-0.88,-0.46,-0.01
2227835009,-0.89,-0.45,-0.01
2227837012,-0.89,-0.45,-0.01
2227839018,-0.89,-0.45,-0.01
2227840991,-0.89,-0.45,-0.01
2227842994,-0.89,-0.45,-0.01
2227844991,-0.88,-0.46,-0.00
2227846991,-0.88,-0.46,-0.00
2227848990,-0.88,-0.46,-0.00
2227851120,-0.88,-0.46,-0.00
2227852996,-0.88,-0.46,-0.00
2227854987,-0.89,-0.48,-0.01
2227856987,-0.89,-0.48,-0.01
2227858987,-0.89,-0.48,-0.01
2227860986,-0.89,-0.48,-0.01
2227862987,-0.89,-0.48,-0.01
2227864987,-0.89,-0.49,-0.01
2227867027,-0.89,-0.49,-0.01
2227869011,-0.89,-0.49,-0.01
2227871007,-0.89,-0.49,-0.01
2227873027,-0.89,-0.49,-0.01
2227875039,-0.88,-0.49,-0.01
2227877127,-0.88,-0.49,-0.01
2227879065,-0.88,-0.49,-0.01
2227881016,-0.88,-0.49,-0.01
2227883016,-0.88,-0.49,-0.01
2227884992,-0.88,-0.48,-0.02
2227886992,-0.88,-0.48,-0.02
2227888990,-0.88,-0.48,-0.02
2227890987,-0.88,-0.48,-0.02
2227892995,-0.88,-0.48,-0.02
2227894999,-0.88,-0.48,-0.01
2227896992,-0.88,-0.48,-0.01
2227898991,-0.88,-0.48,-0.01
2227901106,-0.88,-0.48,-0.01
2227902998,-0.88,-0.48,-0.01
2227904986,-0.88,-0.48,-0.01
2227907014,-0.88,-0.48,-0.01
2227909047,-0.88,-0.48,-0.01
2227911006,-0.88,-0.48,-0.01
2227913010,-0.88,-0.48,-0.01
2227915011,-0.88,-0.48,-0.01
2227917015,-0.88,-0.48,-0.02
2227919013,-0.88,-0.48,-0.02
2227920997,-0.88,-0.48,-0.02
2227922991,-0.88,-0.48,-0.02
2227924987,-0.88,-0.48,-0.02
2227927095,-0.88,-0.50,-0.02
2227928989,-0.88,-0.50,-0.02
2227930989,-0.88,-0.50,-0.02
2227932986,-0.88,-0.50,-0.02
2227934984,-0.88,-0.50,-0.02
2227936990,-0.88,-0.50,-0.02
2227938991,-0.88,-0.50,-0.02
2227940989,-0.88,-0.50,-0.02
2227942987,-0.88,-0.50,-0.02
2227944986,-0.88,-0.50,-0.02
2227947021,-0.88,-0.49,-0.01
2227949011,-0.88,-0.49,-0.01
2227951104,-0.88,-0.49,-0.01
2227953063,-0.88,-0.49,-0.01
2227955021,-0.88,-0.49,-0.01
2227957015,-0.88,-0.48,-0.01
2227959014,-0.88,-0.48,-0.01
2227961018,-0.88,-0.48,-0.01
2227962992,-0.88,-0.48,-0.01
2227964990,-0.88,-0.48,-0.01
2227966987,-0.88,-0.48,-0.01
2227968987,-0.88,-0.48,-0.01
2227970992,-0.88,-0.48,-0.01
2227972991,-0.88,-0.48,-0.01
2227974989,-0.88,-0.48,-0.01
2227977093,-0.88,-0.48,-0.01
2227978989,-0.88,-0.48,-0.01
2227980990,-0.88,-0.48,-0.01
2227982998,-0.88,-0.48,-0.01
2227984989,-0.88,-0.48,-0.01
2227987024,-0.88,-0.48,-0.01
2227989047,-0.88,-0.48,-0.01
2227990993,-0.88,-0.48,-0.01
2227992969,-0.88,-0.48,-0.01
2227994996,-0.88,-0.48,-0.01
2227996967,-0.88,-0.48,-0.01
2227998967,-0.88,-0.48,-0.01
2228001086,-0.88,-0.48,-0.01
2228002980,-0.88,-0.48,-0.01
2228004967,-0.88,-0.48,-0.01
2228006967,-0.89,-0.48,-0.01
2228009008,-0.89,-0.48,-0.01
2228010967,-0.89,-0.48,-0.01
2228012965,-0.89,-0.48,-0.01
2228014964,-0.89,-0.48,-0.01
2228016964,-0.89,-0.48,-0.01
2228018963,-0.89,-0.48,-0.01
2228020966,-0.89,-0.48,-0.01
2228022962,-0.89,-0.48,-0.01
2228024962,-0.89,-0.48,-0.01
2228027068,-0.88,-0.48,-0.02
2228028971,-0.88,-0.48,-0.02
2228030964,-0.88,-0.48,-0.02
2228032964,-0.88,-0.48,-0.02
2228034965,-0.88,-0.48,-0.02
2228167061,-0.89,-0.48,-0.00
2228169015,-0.89,-0.48,-0.01
2228171017,-0.89,-0.48,-0.01
2228173010,-0.89,-0.48,-0.01
2228175014,-0.89,-0.48,-0.01
2228177126,-0.89,-0.48,-0.01
2228179019,-0.88,-0.47,-0.01
2228180990,-0.88,-0.47,-0.01
2228182992,-0.88,-0.47,-0.01
2228184992,-0.88,-0.47,-0.01
2228186991,-0.88,-0.47,-0.01
2228188987,-0.88,-0.48,-0.01
2228190986,-0.88,-0.48,-0.01
2228192990,-0.88,-0.48,-0.01
2228194995,-0.88,-0.48,-0.01
2228196990,-0.88,-0.48,-0.01
2228198987,-0.88,-0.48,-0.02
2228201091,-0.88,-0.48,-0.02
2228202997,-0.88,-0.48,-0.02
2228204988,-0.88,-0.48,-0.02
2228207019,-0.88,-0.48,-0.02
2228209048,-0.88,-0.48,-0.02
2228211008,-0.88,-0.48,-0.02
2228213051,-0.88,-0.48,-0.02
2228215029,-0.88,-0.48,-0.02
2228217014,-0.88,-0.48,-0.02
2228219009,-0.88,-0.48,-0.02
2228221016,-0.88,-0.48,-0.02
2228222989,-0.88,-0.48,-0.02
2228224997,-0.88,-0.48,-0.02
2228227180,-0.88,-0.48,-0.02
2228229034,-0.88,-0.49,-0.01
2228231002,-0.88,-0.49,-0.01
2228232997,-0.88,-0.49,-0.01
2228234986,-0.88,-0.49,-0.01
2228236990,-0.88,-0.49,-0.01
2228238990,-0.88,-0.48,-0.01
2228240990,-0.88,-0.48,-0.01
2228242986,-0.88,-0.48,-0.01
2228244987,-0.88,-0.48,-0.01
2228247029,-0.88,-0.48,-0.01
2228249010,-0.88,-0.48,-0.02
2228251118,-0.88,-0.48,-0.02
2228253016,-0.88,-0.48,-0.02
2228255014,-0.88,-0.48,-0.02
2228257015,-0.88,-0.48,-0.02
2228259010,-0.89,-0.47,-0.02
2228261036,-0.89,-0.47,-0.02
2228262992,-0.89,-0.47,-0.02
2228265069,-0.89,-0.47,-0.02
2228267024,-0.89,-0.47,-0.02
2228268987,-0.88,-0.48,-0.02
2228270990,-0.88,-0.48,-0.02
2228272990,-0.88,-0.48,-0.02
2228274989,-0.88,-0.48,-0.02
2228277111,-0.88,-0.48,-0.02
2228278991,-0.88,-0.48,-0.02
2228280983,-0.88,-0.49,-0.01
2228282987,-0.88,-0.49,-0.01
2228284986,-0.88,-0.49,-0.01
2228287028,-0.88,-0.49,-0.01
2228289009,-0.88,-0.49,-0.01
2228291019,-0.88,-0.48,-0.02
2228293019,-0.88,-0.48,-0.02
2228295025,-0.88,-0.48,-0.02
2228297018,-0.88,-0.48,-0.02
2228299015,-0.88,-0.48,-0.02
2228301098,-0.88,-0.48,-0.01
2228302997,-0.88,-0.48,-0.01
2228304991,-0.88,-0.48,-0.01
2228306995,-0.88,-0.48,-0.01
2228309022,-0.88,-0.48,-0.01
2228310986,-0.88,-0.48,-0.01
2228312989,-0.88,-0.48,-0.01
2228315046,-0.88,-0.48,-0.01
2228317049,-0.88,-0.48,-0.01
2228319005,-0.88,-0.48,-0.01
2228320987,-0.88,-0.49,-0.01
2228322990,-0.88,-0.49,-0.01
2228324990,-0.88,-0.49,-0.01
2228327145,-0.88,-0.49,-0.01
2228329018,-0.88,-0.49,-0.01
2228331015,-0.88,-0.48,-0.01
2228333017,-0.88,-0.48,-0.01
2228335015,-0.88,-0.48,-0.01
2228337018,-0.88,-0.48,-0.01
2228339012,-0.88,-0.48,-0.01
2228340989,-0.89,-0.48,-0.01
2228342986,-0.89,-0.48,-0.01
2228344986,-0.89,-0.48,-0.01
2228346991,-0.89,-0.48,-0.01
2228348990,-0.89,-0.48,-0.01
2228351087,-0.88,-0.48,-0.00
2228352999,-0.88,-0.48,-0.00
2228354984,-0.88,-0.48,-0.00
2228356993,-0.88,-0.48,-0.00
2228358991,-0.88,-0.48,-0.00
2228360984,-0.88,-0.48,-0.01
2228363066,-0.88,-0.48,-0.01
2228365034,-0.88,-0.48,-0.01
2228367030,-0.88,-0.48,-0.01
2228369017,-0.88,-0.48,-0.01
2228371013,-0.89,-0.47,-0.00
2228373010,-0.89,-0.47,-0.00
2228375014,-0.89,-0.47,-0.00
2228377132,-0.89,-0.47,-0.00
2228379017,-0.89,-0.47,-0.00
2228380998,-0.88,-0.48,-0.02
2228382991,-0.88,-0.48,-0.02
2228384991,-0.88,-0.48,-0.02
2228386990,-0.88,-0.48,-0.02
2228388987,-0.88,-0.48,-0.02
2228390991,-0.88,-0.47,0.00
2228392996,-0.88,-0.47,0.00
2228395001,-0.88,-0.47,0.00
2228396990,-0.88,-0.47,0.00
2228398990,-0.88,-0.47,0.00
2228401097,-0.88,-0.47,-0.01
2228402995,-0.88,-0.47,-0.01
2228404990,-0.88,-0.47,-0.01
2228407023,-0.88,-0.47,-0.01
2228409048,-0.88,-0.47,-0.01
2228411012,-0.88,-0.47,-0.00
2228413014,-0.88,-0.47,-0.00
2228415012,-0.88,-0.47,-0.00
2228417011,-0.88,-0.47,-0.00
2228419013,-0.88,-0.47,-0.00
2228420994,-0.89,-0.47,0.00
2228422990,-0.89,-0.47,0.00
2228425020,-0.89,-0.47,0.00
2228427190,-0.89,-0.47,0.00
2228429029,-0.89,-0.47,0.00
2228430987,-0.89,-0.47,-0.01
2228432985,-0.89,-0.47,-0.01
2228434986,-0.89,-0.47,-0.01
2228436990,-0.89,-0.47,-0.01
2228438985,-0.89,-0.47,-0.01
2228440992,-0.88,-0.47,-0.00
2228442996,-0.88,-0.47,-0.00
2228445025,-0.88,-0.47,-0.00
2228447025,-0.88,-0.47,-0.00
2228449018,-0.88,-0.47,-0.00
2228451118,-0.88,-0.47,0.00
2228453017,-0.88,-0.47,0.00
2228455012,-0.88,-0.47,0.00
2228457016,-0.88,-0.47,0.00
2228459013,-0.88,-0.47,0.00
2228460991,-0.89,-0.47,-0.01
2228462991,-0.89,-0.47,-0.01
2228465034,-0.89,-0.47,-0.01
2228466989,-0.89,-0.47,-0.01
2228468990,-0.89,-0.47,-0.01
2228470991,-0.89,-0.47,-0.01
2228472991,-0.89,-0.48,-0.01
2228474987,-0.89,-0.48,-0.01
2228477090,-0.89,-0.48,-0.01
2228478989,-0.89,-0.48,-0.01
2228480993,-0.89,-0.48,-0.01
2228482997,-0.88,-0.47,-0.01
2228484989,-0.88,-0.47,-0.01
2228487023,-0.88,-0.47,-0.01
2228489016,-0.88,-0.47,-0.01
2228491109,-0.88,-0.47,-0.01
2228493065,-0.88,-0.48,-0.01
2228495039,-0.88,-0.48,-0.01
2228497026,-0.88,-0.48,-0.01
2228499016,-0.88,-0.48,-0.01
2228501122,-0.88,-0.48,-0.01
2228503020,-0.88,-0.48,-0.01
2228504990,-0.88,-0.48,-0.01
2228506994,-0.88,-0.48,-0.01
2228509013,-0.88,-0.48,-0.01
2228510987,-0.88,-0.48,-0.01
2228512989,-0.88,-0.48,-0.00
2228514990,-0.88,-0.48,-0.00
2228516991,-0.88,-0.48,-0.00
2228518992,-0.88,-0.48,-0.00
2228520984,-0.88,-0.48,-0.00
2228522989,-0.88,-0.48,-0.01
2228524986,-0.88,-0.48,-0.01
2228527130,-0.88,-0.48,-0.01
2228529021,-0.88,-0.48,-0.01
2228531019,-0.88,-0.48,-0.01
2228533019,-0.88,-0.48,-0.01
2228535024,-0.88,-0.48,-0.01
2228537019,-0.88,-0.48,-0.01
2228539020,-0.88,-0.48,-0.01
2228541013,-0.88,-0.48,-0.01
2228542991,-0.88,-0.48,-0.01
2228544992,-0.88,-0.48,-0.01
2228546991,-0.88,-0.48,-0.01
2228549060,-0.88,-0.48,-0.01
2228551124,-0.88,-0.48,-0.01
2228552996,-0.88,-0.48,-0.01
2228554985,-0.88,-0.48,-0.01
2228556992,-0.88,-0.48,-0.01
2228558990,-0.88,-0.48,-0.01
2228560990,-0.88,-0.48,-0.01
2228562986,-0.88,-0.48,-0.00
2228564990,-0.88,-0.48,-0.00
2228567032,-0.88,-0.48,-0.00
2228569064,-0.88,-0.48,-0.00
2228571014,-0.88,-0.48,-0.00
2228573011,-0.88,-0.48,-0.01
2228575018,-0.88,-0.48,-0.01
2228577122,-0.88,-0.48,-0.01
2228579017,-0.88,-0.48,-0.01
2228581010,-0.88,-0.48,-0.01
2228582991,-0.88,-0.49,-0.02
2228584987,-0.88,-0.49,-0.02
2228586990,-0.88,-0.49,-0.02
2228588986,-0.88,-0.49,-0.02
2228590987,-0.88,-0.49,-0.02
2228592995,-0.88,-0.49,-0.01
2228594996,-0.88,-0.49,-0.01
2228597118,-0.88,-0.49,-0.01
2228599022,-0.88,-0.49,-0.01
2228601103,-0.88,-0.49,-0.01
2228602999,-0.88,-0.49,-0.02
2228604991,-0.88,-0.49,-0.02
2228607029,-0.88,-0.49,-0.02
2228609043,-0.88,-0.49,-0.02
2228611009,-0.88,-0.49,-0.02
2228613010,-0.88,-0.48,-0.02
2228615010,-0.88,-0.48,-0.02
2228617016,-0.88,-0.48,-0.02
2228619011,-0.88,-0.48,-0.02
2228621008,-0.88,-0.48,-0.02
2228622997,-0.88,-0.49,-0.02
2228624984,-0.88,-0.49,-0.02
2228627091,-0.88,-0.49,-0.02
2228628984,-0.88,-0.49,-0.02
2228630987,-0.88,-0.49,-0.02
2228632985,-0.88,-0.49,-0.03
2228634986,-0.88,-0.49,-0.03
2228636985,-0.88,-0.49,-0.03
2228638986,-0.88,-0.49,-0.03
2228640984,-0.88,-0.49,-0.03
2228643003,-0.88,-0.48,-0.00
2228645082,-0.88,-0.48,-0.00
2228647053,-0.88,-0.48,-0.00
2228649019,-0.88,-0.48,-0.00
2228651122,-0.88,-0.48,-0.00
2228653018,-0.88,-0.47,-0.01
2228655010,-0.88,-0.47,-0.01
2228657014,-0.88,-0.47,-0.01
2228659019,-0.88,-0.47,-0.01
2228661014,-0.88,-0.47,-0.01
2228662985,-0.88,-0.47,-0.01
2228664990,-0.89,-0.47,-0.01
2228666992,-0.89,-0.47,-0.01
2228668993,-0.89,-0.47,-0.01
2228671029,-0.89,-0.47,-0.01
2228672987,-0.89,-0.47,-0.01
2228674984,-0.88,-0.47,0.00
2228677091,-0.88,-0.47,0.00
2228678987,-0.88,-0.47,0.00
2228680986,-0.88,-0.47,0.00
2228682992,-0.88,-0.47,0.00
2228684990,-0.88,-0.47,-0.01
2228687031,-0.88,-0.47,-0.01
2228689012,-0.88,-0.47,-0.01
2228691014,-0.88,-0.47,-0.01
2228693014,-0.88,-0.47,-0.01
2228695028,-0.88,-0.47,-0.02
2228697009,-0.88,-0.47,-0.02
2228699009,-0.88,-0.47,-0.02
2228701100,-0.88,-0.47,-0.02
2228702995,-0.88,-0.47,-0.02
2228705047,-0.88,-0.47,0.00
2228707035,-0.88,-0.47,0.00
2228709034,-0.88,-0.47,0.00
2228710983,-0.88,-0.47,0.00
2228712990,-0.88,-0.47,0.00
2228714987,-0.89,-0.47,-0.00
2228716990,-0.89,-0.47,-0.00
2228718987,-0.89,-0.47,-0.00
2228720986,-0.89,-0.47,-0.00
2228722985,-0.89,-0.47,-0.00
2228724983,-0.88,-0.47,-0.01
2228727136,-0.88,-0.47,-0.01
2228729010,-0.88,-0.47,-0.01
2228731009,-0.88,-0.47,-0.01
2228733019,-0.88,-0.47,-0.01
2228735010,-0.88,-0.47,0.00
2228737012,-0.88,-0.47,0.00
2228739011,-0.88,-0.47,0.00
2228741003,-0.88,-0.47,0.00
2228742981,-0.88,-0.47,0.00
2228744980,-0.88,-0.48,-0.00
2228746980,-0.88,-0.48,-0.00
2228748978,-0.88,-0.48,-0.00
2228751084,-0.88,-0.48,-0.00
2228752988,-0.88,-0.48,-0.00
2228754980,-0.88,-0.48,-0.00
2228756980,-0.88,-0.48,-0.00
2228758979,-0.88,-0.48,-0.00
2228760977,-0.88,-0.48,-0.00
2228762977,-0.88,-0.48,-0.00
2228764984,-0.88,-0.48,-0.01
2228767079,-0.88,-0.48,-0.01
2228769030,-0.88,-0.48,-0.01
2228771029,-0.88,-0.48,-0.01
2228773050,-0.88,-0.48,-0.01
2228775008,-0.88,-0.47,-0.00
2228777119,-0.88,-0.47,-0.00
2228779007,-0.88,-0.47,-0.00
2228781010,-0.88,-0.47,-0.00
2228783003,-0.88,-0.47,-0.00
2228785011,-0.89,-0.48,-0.01
2228786978,-0.89,-0.48,-0.01
2228788978,-0.89,-0.48,-0.01
2228790975,-0.89,-0.48,-0.01
2228792981,-0.89,-0.48,-0.01
2228794996,-0.88,-0.47,-0.02
2228796975,-0.88,-0.47,-0.02
2228798979,-0.88,-0.47,-0.02
2228801079,-0.88,-0.47,-0.02
2228802988,-0.88,-0.47,-0.02
2228804976,-0.88,-0.47,-0.01
2228807014,-0.88,-0.47,-0.01
2228809048,-0.88,-0.47,-0.01
2228811005,-0.88,-0.47,-0.01
2228813003,-0.88,-0.47,-0.01
2228815006,-0.88,-0.48,-0.02
2228817006,-0.88,-0.48,-0.02
2228819012,-0.88,-0.48,-0.02
2228820977,-0.88,-0.48,-0.02
2228822980,-0.88,-0.48,-0.02
2228824979,-0.88,-0.48,-0.02
2228827091,-0.88,-0.48,-0.02
2228828978,-0.88,-0.48,-0.02
2228831034,-0.88,-0.48,-0.02
2228833034,-0.88,-0.48,-0.02
2228834999,-0.87,-0.49,-0.02
2228836976,-0.87,-0.49,-0.02
2228838976,-0.87,-0.49,-0.02
2228840979,-0.87,-0.49,-0.02
2228842974,-0.87,-0.49,-0.02
2228844980,-0.87,-0.49,-0.02
2228847021,-0.88,-0.48,-0.02
2228848999,-0.88,-0.48,-0.02
2228851018,-0.88,-0.48,-0.02
2228853009,-0.88,-0.48,-0.02
2228855004,-0.88,-0.48,-0.02
2228857005,-0.88,-0.48,-0.01
2228858998,-0.88,-0.48,-0.01
2228860977,-0.88,-0.48,-0.01
2228862977,-0.88,-0.48,-0.01
2228864980,-0.88,-0.48,-0.01
2228866976,-0.88,-0.48,-0.01
2228868980,-0.88,-0.48,-0.01
2228870980,-0.88,-0.48,-0.01
2228872977,-0.88,-0.48,-0.01
2228875022,-0.88,-0.48,-0.01
2228876998,-0.88,-0.48,-0.02
2228878976,-0.88,-0.48,-0.02
2228880984,-0.88,-0.48,-0.02
2228882979,-0.88,-0.48,-0.02
2228884978,-0.88,-0.48,-0.02
2228887020,-0.88,-0.48,-0.02
2228889001,-0.88,-0.48,-0.02
2228891030,-0.88,-0.48,-0.02
2228893064,-0.88,-0.48,-0.02
2228895041,-0.88,-0.48,-0.02
2228897002,-0.87,-0.48,-0.01
2228899002,-0.87,-0.48,-0.01
2228901024,-0.87,-0.48,-0.01
2228903014,-0.87,-0.48,-0.01
2228904979,-0.87,-0.48,-0.01
2228906980,-0.88,-0.48,-0.02
2228909006,-0.88,-0.48,-0.02
2228910979,-0.88,-0.48,-0.02
2228912979,-0.88,-0.48,-0.02
2228914979,-0.88,-0.48,-0.02
2228916973,-0.88,-0.49,-0.01
2228918976,-0.88,-0.49,-0.01
2228920978,-0.88,-0.49,-0.01
2228922979,-0.88,-0.49,-0.01
2228924975,-0.88,-0.49,-0.01
2228927044,-0.88,-0.48,-0.00
2228929007,-0.88,-0.48,-0.00
2228931003,-0.88,-0.48,-0.00
2228933002,-0.88,-0.48,-0.00
2228935006,-0.88,-0.48,-0.00
2228937002,-0.88,-0.48,-0.02
2228939009,-0.88,-0.48,-0.02
2228940979,-0.88,-0.48,-0.02
2228942979,-0.88,-0.48,-0.02
2228944979,-0.88,-0.48,-0.02
2228946985,-0.88,-0.48,0.00
2228948975,-0.88,-0.48,0.00
2228951000,-0.88,-0.48,0.00
2228952985,-0.88,-0.48,0.00
2228954978,-0.88,-0.48,0.00
2228956980,-0.88,-0.48,-0.01
2228958976,-0.88,-0.48,-0.01
2228960979,-0.88,-0.48,-0.01
2228962979,-0.88,-0.48,-0.01
2228965056,-0.88,-0.48,-0.01
2228967041,-0.88,-0.48,-0.01
2228969007,-0.88,-0.48,-0.01
2228971006,-0.88,-0.48,-0.01
2228973005,-0.88,-0.48,-0.01
2228975004,-0.88,-0.48,-0.01
2228977070,-0.88,-0.48,-0.00
2228979013,-0.88,-0.48,-0.00
2228980999,-0.88,-0.48,-0.00
2228982990,-0.88,-0.48,-0.00
2228984972,-0.88,-0.48,-0.00
2228986972,-0.88,-0.48,-0.01
2228988975,-0.88,-0.48,-0.01
2228990979,-0.88,-0.48,-0.01
2228992982,-0.88,-0.48,-0.01
2228994992,-0.88,-0.48,-0.01
2228996974,-0.88,-0.48,-0.01
2228998979,-0.88,-0.48,-0.01
2229000998,-0.88,-0.48,-0.01
2229002980,-0.88,-0.48,-0.01
2229004973,-0.88,-0.48,-0.01
2229007010,-0.88,-0.46,-0.00
2229009042,-0.88,-0.46,-0.00
2229011004,-0.88,-0.46,-0.00
2229013005,-0.88,-0.46,-0.00
2229015061,-0.88,-0.46,-0.00
2229017050,-0.88,-0.46,-0.01
2229019008,-0.88,-0.46,-0.01
2229021005,-0.88,-0.46,-0.01
2229023013,-0.88,-0.46,-0.01
2229024980,-0.88,-0.46,-0.01
2229027004,-0.88,-0.47,-0.00
2229028978,-0.88,-0.47,-0.00
2229030976,-0.88,-0.47,-0.00
2229032979,-0.88,-0.47,-0.00
2229034979,-0.88,-0.47,-0.00
2229036979,-0.88,-0.47,-0.00
2229038974,-0.89,-0.47,-0.01
2229040976,-0.89,-0.47,-0.01
2229042977,-0.89,-0.47,-0.01
2229044981,-0.89,-0.47,-0.01
2229047012,-0.89,-0.47,-0.01
2229049007,-0.89,-0.47,-0.00
2229051013,-0.89,-0.47,-0.00
2229053006,-0.89,-0.47,-0.00
2229055010,-0.89,-0.47,-0.00
2229057008,-0.89,-0.47,-0.00
2229059004,-0.88,-0.47,0.00
2229060978,-0.88,-0.47,0.00
2229063122,-0.88,-0.47,0.00
2229065017,-0.88,-0.47,0.00
2229066977,-0.88,-0.47,0.00
2229068975,-0.88,-0.47,-0.01
2229070976,-0.88,-0.47,-0.01
2229072975,-0.88,-0.47,-0.01
2229074975,-0.88,-0.47,-0.01
2229077016,-0.88,-0.47,-0.01
2229078990,-0.88,-0.47,-0.01
2229081013,-0.88,-0.47,-0.01
2229082979,-0.88,-0.47,-0.01
2229084977,-0.88,-0.47,-0.01
2229087022,-0.88,-0.47,-0.01
2229089001,-0.88,-0.48,0.00
2229091000,-0.88,-0.48,0.00
2229093005,-0.88,-0.48,0.00
2229095017,-0.88,-0.48,0.00
2229097006,-0.88,-0.48,0.00
2229099007,-0.88,-0.47,-0.00
2229101001,-0.88,-0.47,-0.00
2229102987,-0.88,-0.47,-0.00
2229104975,-0.88,-0.47,-0.00
2229107000,-0.88,-0.47,-0.00
2229109118,-0.88,-0.48,-0.01
2229111034,-0.88,-0.48,-0.01
2229112975,-0.88,-0.48,-0.01
2229114976,-0.88,-0.48,-0.01
2229116976,-0.88,-0.48,-0.01
2229118977,-0.89,-0.47,-0.00
2229120977,-0.89,-0.47,-0.00
2229122978,-0.89,-0.47,-0.00
2229124977,-0.89,-0.47,-0.00
2229127056,-0.89,-0.47,-0.00
2229129008,-0.88,-0.48,-0.01
2229131001,-0.88,-0.48,-0.01
2229133006,-0.88,-0.48,-0.01
2229135006,-0.88,-0.48,-0.01
2229137006,-0.88,-0.48,-0.01
2229139008,-0.87,-0.48,-0.01
2229140979,-0.87,-0.48,-0.01
2229142979,-0.87,-0.48,-0.01
2229144978,-0.87,-0.48,-0.01
2229146979,-0.87,-0.48,-0.01
2229148977,-0.88,-0.47,-0.00
2229150995,-0.88,-0.47,-0.00
2229152980,-0.88,-0.47,-0.00
2229154983,-0.88,-0.47,-0.00
2229157137,-0.88,-0.47,-0.00
2229159017,-0.88,-0.48,-0.02
2229160977,-0.88,-0.48,-0.02
2229162978,-0.88,-0.48,-0.02
2229164981,-0.88,-0.48,-0.02
2229167022,-0.88,-0.48,-0.02
2229169001,-0.88,-0.49,-0.02
2229171002,-0.88,-0.49,-0.02
2229173008,-0.88,-0.49,-0.02
2229175004,-0.88,-0.49,-0.02
2229177030,-0.88,-0.49,-0.02
2229179008,-0.88,-0.49,-0.01
2229180985,-0.88,-0.49,-0.01
2229183027,-0.88,-0.49,-0.01
2229184974,-0.88,-0.49,-0.01
2229186976,-0.88,-0.49,-0.01
2229188977,-0.88,-0.48,-0.01
2229190978,-0.88,-0.48,-0.01
2229192980,-0.88,-0.48,-0.01
2229194993,-0.88,-0.48,-0.01
2229196976,-0.88,-0.48,-0.01
2229198976,-0.87,-0.48,-0.02
2229201017,-0.87,-0.48,-0.02
2229203055,-0.87,-0.48,-0.02
2229205010,-0.87,-0.48,-0.02
2229207020,-0.87,-0.48,-0.02
2229209004,-0.88,-0.47,-0.01
2229211037,-0.88,-0.47,-0.01
2229213003,-0.88,-0.47,-0.01
2229215004,-0.88,-0.47,-0.01
2229217001,-0.88,-0.47,-0.01
2229219011,-0.87,-0.49,-0.02
2229220976,-0.87,-0.49,-0.02
2229222980,-0.87,-0.49,-0.02
2229224980,-0.87,-0.49,-0.02
2229227000,-0.87,-0.49,-0.02
2229228974,-0.87,-0.49,-0.02
2229230983,-0.90,-0.49,-0.02
2229232991,-0.90,-0.49,-0.02
2229234979,-0.90,-0.49,-0.02
2229236980,-0.90,-0.49,-0.02
2229238977,-0.90,-0.49,-0.02
2229240979,-0.87,-0.48,-0.02
2229242977,-0.87,-0.48,-0.02
2229244976,-0.87,-0.48,-0.02
2229247011,-0.87,-0.48,-0.02
2229249068,-0.87,-0.48,-0.02
2229251043,-0.89,-0.48,-0.02
2229253008,-0.89,-0.48,-0.02
2229255004,-0.89,-0.48,-0.02
2229257005,-0.89,-0.48,-0.02
2229259003,-0.89,-0.48,-0.02
2229261005,-0.87,-0.46,-0.01
2229263005,-0.87,-0.46,-0.01
2229264979,-0.87,-0.46,-0.01
2229266979,-0.87,-0.46,-0.01
2229268981,-0.87,-0.46,-0.01
2229270979,-0.89,-0.48,-0.01
2229272985,-0.89,-0.48,-0.01
2229274981,-0.89,-0.48,-0.01
2229276994,-0.89,-0.48,-0.01
2229278979,-0.89,-0.48,-0.01
2229280977,-0.88,-0.46,0.00
2229282980,-0.88,-0.46,0.00
2229285022,-0.88,-0.46,0.00
2229287018,-0.88,-0.46,0.00
2229289004,-0.88,-0.46,0.00
2229291003,-0.89,-0.48,-0.01
2229293003,-0.89,-0.48,-0.01
2229295015,-0.89,-0.48,-0.01
2229297128,-0.89,-0.48,-0.01
2229299042,-0.89,-0.48,-0.01
2229301021,-0.88,-0.47,-0.00
2229303015,-0.88,-0.47,-0.00
2229304976,-0.88,-0.47,-0.00
2229306981,-0.88,-0.47,-0.00
2229308981,-0.88,-0.47,-0.00
2229311010,-0.88,-0.48,-0.00
2229312976,-0.88,-0.48,-0.00
2229314978,-0.88,-0.48,-0.00
2229316979,-0.88,-0.48,-0.00
2229318977,-0.88,-0.48,-0.00
2229320980,-0.87,-0.48,0.00
2229322975,-0.87,-0.48,0.00
2229324981,-0.87,-0.48,0.00
2229327042,-0.87,-0.48,0.00
2229329001,-0.87,-0.48,0.00
2229331003,-0.88,-0.48,-0.01
2229333007,-0.88,-0.48,-0.01
2229335006,-0.88,-0.48,-0.01
2229337004,-0.88,-0.48,-0.01
2229339014,-0.88,-0.48,-0.01
2229340981,-0.88,-0.49,0.00
2229342979,-0.88,-0.49,0.00
2229344976,-0.88,-0.49,0.00
2229346980,-0.88,-0.49,0.00
2229348984,-0.88,-0.49,0.00
2229351004,-0.89,-0.48,-0.00
2229353067,-0.89,-0.48,-0.00
2229355026,-0.89,-0.48,-0.00
2229356977,-0.89,-0.48,-0.00
2229358976,-0.89,-0.48,-0.00
2229360979,-0.88,-0.49,-0.01
2229362979,-0.88,-0.49,-0.01
2229364976,-0.88,-0.49,-0.01
2229367018,-0.88,-0.49,-0.01
2229369001,-0.88,-0.49,-0.01
2229371001,-0.88,-0.48,-0.01
2229373009,-0.88,-0.48,-0.01
2229375004,-0.88,-0.48,-0.01
2229377035,-0.88,-0.48,-0.01
2229379007,-0.88,-0.48,-0.01
2229380976,-0.88,-0.46,-0.01
2229382976,-0.88,-0.46,-0.01
2229384981,-0.88,-0.46,-0.01
2229387026,-0.88,-0.46,-0.01
2229388975,-0.88,-0.46,-0.01
2229390976,-0.89,-0.45,-0.01
2229392981,-0.89,-0.45,-0.01
2229394997,-0.89,-0.45,-0.01
2229396977,-0.89,-0.45,-0.01
2229398977,-0.89,-0.45,-0.01
2229401000,-0.89,-0.46,-0.00
2229402987,-0.89,-0.46,-0.00
2229405057,-0.89,-0.46,-0.00
2229407036,-0.89,-0.46,-0.00
2229409014,-0.89,-0.46,-0.00
2229411041,-0.89,-0.48,-0.02
2229413005,-0.89,-0.48,-0.02
2229415005,-0.89,-0.48,-0.02
2229417005,-0.89,-0.48,-0.02
2229419006,-0.89,-0.48,-0.02
2229421007,-0.89,-0.48,-0.02
2229422981,-0.88,-0.48,-0.01
2229424979,-0.88,-0.48,-0.01
2229427002,-0.88,-0.48,-0.01
2229428974,-0.88,-0.48,-0.01
2229430977,-0.88,-0.48,-0.01
2229432976,-0.89,-0.47,-0.01
2229434978,-0.89,-0.47,-0.01
2229436976,-0.89,-0.47,-0.01
2229438978,-0.89,-0.47,-0.01
2229440979,-0.89,-0.47,-0.01
2229442975,-0.89,-0.46,-0.00
2229444975,-0.89,-0.46,-0.00
2229447011,-0.89,-0.46,-0.00
2229449009,-0.89,-0.46,-0.00
2229451061,-0.89,-0.46,-0.00
2229453036,-0.88,-0.48,-0.01
2229455003,-0.88,-0.48,-0.01
2229457005,-0.88,-0.48,-0.01
2229459003,-0.88,-0.48,-0.01
2229461007,-0.88,-0.48,-0.01
2229462988,-0.88,-0.49,-0.00
2229464973,-0.88,-0.49,-0.00
2229466977,-0.88,-0.49,-0.00
2229468976,-0.88,-0.49,-0.00
2229470986,-0.88,-0.49,-0.00
2229472979,-0.88,-0.49,0.00
2229474980,-0.88,-0.49,0.00
2229477001,-0.88,-0.49,0.00
2229478975,-0.88,-0.49,0.00
2229480978,-0.88,-0.49,0.00
2229482993,-0.89,-0.47,-0.01
2229484975,-0.89,-0.47,-0.01
2229487009,-0.89,-0.47,-0.01
2229489042,-0.89,-0.47,-0.01
2229491010,-0.89,-0.47,-0.01
2229493008,-0.88,-0.47,-0.01
2229495016,-0.88,-0.47,-0.01
2229497023,-0.88,-0.47,-0.01
2229499053,-0.88,-0.47,-0.01
2229501038,-0.88,-0.47,-0.01
2229503013,-0.88,-0.50,-0.02
2229505010,-0.88,-0.50,-0.02
2229506976,-0.88,-0.50,-0.02
2229508982,-0.88,-0.50,-0.02
2229511011,-0.88,-0.50,-0.02
2229512976,-0.88,-0.49,-0.02
2229514978,-0.88,-0.49,-0.02
2229516977,-0.88,-0.49,-0.02
2229518977,-0.88,-0.49,-0.02
2229520976,-0.88,-0.49,-0.02
2229522976,-0.88,-0.50,-0.02
2229524977,-0.88,-0.50,-0.02
2229527041,-0.88,-0.50,-0.02
2229529007,-0.88,-0.50,-0.02
2229531004,-0.88,-0.50,-0.02
2229533001,-0.88,-0.48,-0.01
2229535004,-0.88,-0.48,-0.01
2229537011,-0.88,-0.48,-0.01
2229539006,-0.88,-0.48,-0.01
2229540984,-0.88,-0.48,-0.01
2229542981,-0.89,-0.48,-0.02
2229545064,-0.89,-0.48,-0.02
2229547024,-0.89,-0.48,-0.02
2229548974,-0.89,-0.48,-0.02
2229551092,-0.89,-0.48,-0.02
2229552990,-0.89,-0.46,-0.02
2229554977,-0.89,-0.46,-0.02
2229556978,-0.89,-0.46,-0.02
2229558976,-0.89,-0.46,-0.02
2229560977,-0.89,-0.46,-0.02
2229562977,-0.88,-0.50,-0.01
2229564978,-0.88,-0.50,-0.01
2229567022,-0.88,-0.50,-0.01
2229569005,-0.88,-0.50,-0.01
2229571004,-0.88,-0.50,-0.01
2229573004,-0.88,-0.50,-0.02
2229575005,-0.88,-0.50,-0.02
2229577029,-0.88,-0.50,-0.02
2229579010,-0.88,-0.50,-0.02
2229580981,-0.88,-0.50,-0.02
2229582980,-0.87,-0.48,-0.02
2229584979,-0.87,-0.48,-0.02
2229586979,-0.87,-0.48,-0.02
2229588981,-0.87,-0.48,-0.02
2229590987,-0.87,-0.48,-0.02
2229593072,-0.88,-0.47,-0.02
2229595031,-0.88,-0.47,-0.02
2229596978,-0.88,-0.47,-0.02
2229598976,-0.88,-0.47,-0.02
2229601098,-0.88,-0.47,-0.02
2229602988,-0.88,-0.47,-0.02
2229604975,-0.87,-0.47,-0.02
2229607019,-0.87,-0.47,-0.02
2229609004,-0.87,-0.47,-0.02
2229611039,-0.87,-0.47,-0.02
2229613005,-0.87,-0.47,-0.02
2229615003,-0.89,-0.47,-0.02
2229617003,-0.89,-0.47,-0.02
2229619002,-0.89,-0.47,-0.02
2229620986,-0.89,-0.47,-0.02
2229622987,-0.89,-0.47,-0.02
2229624977,-0.89,-0.46,-0.01
2229627000,-0.89,-0.46,-0.01
2229628975,-0.89,-0.46,-0.01
2229630975,-0.89,-0.46,-0.01
2229632974,-0.89,-0.46,-0.01
2229634977,-0.90,-0.46,-0.01
2229636976,-0.90,-0.46,-0.01
2229638974,-0.90,-0.46,-0.01
2229640976,-0.90,-0.46,-0.01
2229642976,-0.90,-0.46,-0.01
2229644974,-0.88,-0.46,-0.02
2229647006,-0.88,-0.46,-0.02
2229649009,-0.88,-0.46,-0.02
2229651013,-0.88,-0.46,-0.02
2229653006,-0.88,-0.46,-0.02
2229655004,-0.88,-0.46,-0.02
2229657004,-0.88,-0.46,-0.02
2229659014,-0.88,-0.46,-0.02
2229661067,-0.88,-0.46,-0.02
2229663024,-0.88,-0.46,-0.02
2229664978,-0.88,-0.46,0.00
2229666984,-0.88,-0.46,0.00
2229668976,-0.88,-0.46,0.00
2229670974,-0.88,-0.46,0.00
2229672977,-0.88,-0.46,0.00
2229674976,-0.89,-0.46,-0.00
2229676996,-0.89,-0.46,-0.00
2229678979,-0.89,-0.46,-0.00
2229680977,-0.89,-0.46,-0.00
2229682974,-0.89,-0.46,-0.00
2229684977,-0.89,-0.47,-0.01
2229687017,-0.89,-0.47,-0.01
2229689001,-0.89,-0.47,-0.01
2229691003,-0.89,-0.47,-0.01
2229693030,-0.89,-0.47,-0.01
2229695047,-0.88,-0.46,-0.01
2229697003,-0.88,-0.46,-0.01
2229699002,-0.88,-0.46,-0.01
2229701018,-0.88,-0.46,-0.01
2229702985,-0.88,-0.46,-0.01
2229704975,-0.88,-0.47,0.00
2229706977,-0.88,-0.47,0.00
2229708978,-0.88,-0.47,0.00
2229711019,-0.88,-0.47,0.00
2229712978,-0.88,-0.47,0.00
2229715122,-0.89,-0.46,0.01
2229717020,-0.89,-0.46,0.01
2229718977,-0.89,-0.46,0.01
2229720979,-0.89,-0.46,0.01
2229722976,-0.89,-0.46,0.01
2229724980,-0.88,-0.48,0.01
2229727050,-0.88,-0.48,0.01
2229729006,-0.88,-0.48,0.01
2229731001,-0.88,-0.48,0.01
2229733013,-0.88,-0.48,0.01
2229735003,-0.88,-0.48,0.01
2229737003,-0.88,-0.48,0.01
2229739007,-0.88,-0.48,0.01
2229740980,-0.88,-0.48,0.01
2229742976,-0.88,-0.48,0.01
2229744976,-0.88,-0.48,0.01
2229746980,-0.88,-0.48,0.01
2229748980,-0.88,-0.48,0.01
2229751001,-0.88,-0.48,0.01
2229752987,-0.88,-0.48,0.01
2229754979,-0.88,-0.48,0.00
2229756980,-0.88,-0.48,0.00
2229758988,-0.88,-0.48,0.00
2229761103,-0.88,-0.48,0.00
2229763019,-0.88,-0.48,0.00
2229764981,-0.88,-0.49,0.00
2229767018,-0.88,-0.49,0.00
2229769003,-0.88,-0.49,0.00
2229771000,-0.88,-0.49,0.00
2229773003,-0.88,-0.49,0.00
2229775007,-0.88,-0.48,0.00
2229777034,-0.88,-0.48,0.00
2229779011,-0.88,-0.48,0.00
2229780979,-0.88,-0.48,0.00
2229782979,-0.88,-0.48,0.00
2229784980,-0.88,-0.48,0.00
2229786977,-0.88,-0.48,-0.01
2229788978,-0.88,-0.48,-0.01
2229790980,-0.88,-0.48,-0.01
2229792983,-0.88,-0.48,-0.01
2229794995,-0.88,-0.48,-0.01
2229797027,-0.88,-0.48,-0.01
2229798980,-0.88,-0.48,-0.01
2229801002,-0.88,-0.48,-0.01
2229802982,-0.88,-0.48,-0.01
2229804977,-0.88,-0.48,-0.01
2229807060,-0.88,-0.48,-0.02
2229809037,-0.88,-0.48,-0.02
2229811043,-0.88,-0.48,-0.02
2229813007,-0.88,-0.48,-0.02
2229815005,-0.88,-0.48,-0.02
2229817002,-0.88,-0.48,-0.03
2229819004,-0.88,-0.48,-0.03
2229821005,-0.88,-0.48,-0.03
2229823007,-0.88,-0.48,-0.03
2229824979,-0.88,-0.48,-0.03
2229827002,-0.88,-0.48,-0.04
2229828975,-0.88,-0.48,-0.04
2229830974,-0.88,-0.48,-0.04
2229832979,-0.88,-0.48,-0.04
2229834976,-0.88,-0.48,-0.04
2229836981,-0.89,-0.47,-0.04
2229838977,-0.89,-0.47,-0.04
2229840977,-0.89,-0.47,-0.04
2229842975,-0.89,-0.47,-0.04
2229844975,-0.89,-0.47,-0.04
2229847009,-0.89,-0.48,-0.04
2229849010,-0.89,-0.48,-0.04
2229851016,-0.89,-0.48,-0.04
2229853010,-0.89,-0.48,-0.04
2229855001,-0.89,-0.48,-0.04
2229857006,-0.88,-0.48,-0.03
2229859004,-0.88,-0.48,-0.03
2229860975,-0.88,-0.48,-0.03
2229862983,-0.88,-0.48,-0.03
2229864981,-0.88,-0.48,-0.03
2229866978,-0.88,-0.48,-0.03
2229869068,-0.88,-0.48,-0.03
2229871025,-0.88,-0.48,-0.03
2229872977,-0.88,-0.48,-0.03
2229874973,-0.88,-0.48,-0.03
2229877004,-0.88,-0.48,-0.03
2229878975,-0.88,-0.48,-0.03
2229880979,-0.88,-0.48,-0.03
2229882977,-0.88,-0.48,-0.03
2229884974,-0.88,-0.48,-0.03
2229887019,-0.88,-0.48,-0.03
2229889009,-0.88,-0.48,-0.03
2229891005,-0.88,-0.48,-0.03
2229893012,-0.88,-0.48,-0.03
2229895013,-0.88,-0.48,-0.03
2229897004,-0.88,-0.48,-0.02
2229899054,-0.88,-0.48,-0.02
2229901022,-0.88,-0.48,-0.02
2229902980,-0.88,-0.48,-0.02
2229904979,-0.88,-0.48,-0.02
2229906978,-0.88,-0.48,-0.01
2229908980,-0.88,-0.48,-0.01
2229911014,-0.88,-0.48,-0.01
2229912974,-0.88,-0.48,-0.01
2229915043,-0.88,-0.48,-0.01
2229917031,-0.88,-0.49,-0.01
2229918976,-0.88,-0.49,-0.01
2229920975,-0.88,-0.49,-0.01
2229922976,-0.88,-0.49,-0.01
2229924974,-0.88,-0.49,-0.01
2229927048,-0.87,-0.49,0.00
2229929017,-0.87,-0.49,0.00
2229931002,-0.87,-0.49,0.00
2229933006,-0.87,-0.49,0.00
2229935005,-0.87,-0.49,0.00
2229937009,-0.88,-0.50,0.00
2229939008,-0.88,-0.50,0.00
2229941012,-0.88,-0.50,0.00
2229942981,-0.88,-0.50,0.00
2229944977,-0.88,-0.50,0.00
2229946977,-0.87,-0.49,-0.00
2229948973,-0.87,-0.49,-0.00
2229951089,-0.87,-0.49,-0.00
2229952987,-0.87,-0.49,-0.00
2229954976,-0.87,-0.49,-0.00
2229956975,-0.87,-0.50,-0.01
2229958981,-0.87,-0.50,-0.01
2229960978,-0.87,-0.50,-0.01
2229963097,-0.87,-0.50,-0.01
2229965018,-0.87,-0.50,-0.01
2229967020,-0.87,-0.50,-0.01
2229969008,-0.87,-0.50,-0.01
2229971007,-0.87,-0.50,-0.01
2229973008,-0.87,-0.50,-0.01
2229975000,-0.87,-0.50,-0.01
2229977033,-0.87,-0.50,-0.01
2229979011,-0.88,-0.50,0.00
2229980982,-0.88,-0.50,0.00
2229982993,-0.88,-0.50,0.00
2229984976,-0.88,-0.50,0.00
2229986979,-0.88,-0.50,0.00
2229988978,-0.88,-0.49,-0.01
2229990976,-0.88,-0.49,-0.01
2229992982,-0.88,-0.49,-0.01
2229994994,-0.88,-0.49,-0.01
2229997014,-0.88,-0.49,-0.01
2229998975,-0.89,-0.48,-0.02
2230001089,-0.89,-0.48,-0.02
2230002988,-0.89,-0.48,-0.02
2230004979,-0.89,-0.48,-0.02
2230007016,-0.89,-0.48,-0.02
2230009005,-0.89,-0.46,-0.01
2230011044,-0.89,-0.46,-0.01
2230013040,-0.89,-0.46,-0.01
2230015010,-0.89,-0.46,-0.01
2230017001,-0.89,-0.46,-0.01
2230019002,-0.89,-0.45,-0.01
2230021010,-0.89,-0.45,-0.01
2230022978,-0.89,-0.45,-0.01
2230024976,-0.89,-0.45,-0.01
2230026999,-0.89,-0.45,-0.01
2230028980,-0.89,-0.45,-0.02
2230030980,-0.89,-0.45,-0.02
2230032979,-0.89,-0.45,-0.02
2230034976,-0.89,-0.45,-0.02
2230036977,-0.89,-0.45,-0.02
2230038978,-0.88,-0.45,-0.00
2230040974,-0.88,-0.45,-0.00
2230042980,-0.88,-0.45,-0.00
2230044977,-0.88,-0.45,-0.00
2230047015,-0.88,-0.45,-0.00
2230049041,-0.88,-0.46,0.00
2230051045,-0.88,-0.46,0.00
2230053039,-0.88,-0.46,0.00
2230055002,-0.88,-0.46,0.00
2230057006,-0.88,-0.46,0.00
2230059008,-0.89,-0.46,0.01
2230061006,-0.89,-0.46,0.01
2230063010,-0.89,-0.46,0.01
2230064979,-0.89,-0.46,0.01
2230066975,-0.89,-0.46,0.01
2230068977,-0.89,-0.46,0.01
2230070980,-0.89,-0.46,0.01
2230072979,-0.89,-0.46,0.01
2230074980,-0.89,-0.46,0.01
2230076998,-0.89,-0.46,0.01
2230078978,-0.89,-0.45,0.00
2230080979,-0.89,-0.45,0.00
2230082977,-0.89,-0.45,0.00
2230084977,-0.89,-0.45,0.00
2230087008,-0.89,-0.45,0.00
2230089003,-0.89,-0.46,-0.00
2230091008,-0.89,-0.46,-0.00
2230093006,-0.89,-0.46,-0.00
2230095015,-0.89,-0.46,-0.00
2230097003,-0.89,-0.46,-0.00
2230099010,-0.88,-0.46,-0.01
2230101001,-0.88,-0.46,-0.01
2230102990,-0.88,-0.46,-0.01
2230105033,-0.88,-0.46,-0.01
2230107035,-0.88,-0.46,-0.01
2230109009,-0.88,-0.46,-0.02
2230111004,-0.88,-0.46,-0.02
2230112976,-0.88,-0.46,-0.02
2230114975,-0.88,-0.46,-0.02
2230116973,-0.88,-0.46,-0.02
2230118978,-0.88,-0.47,-0.01
2230120975,-0.88,-0.47,-0.01
2230122980,-0.88,-0.47,-0.01
2230124981,-0.88,-0.47,-0.01
2230127050,-0.88,-0.47,-0.01
2230129002,-0.86,-0.48,-0.02
2230130999,-0.86,-0.48,-0.02
2230133007,-0.86,-0.48,-0.02
2230135005,-0.86,-0.48,-0.02
2230137001,-0.86,-0.48,-0.02
2230139006,-0.88,-0.50,-0.03
2230140980,-0.88,-0.50,-0.03
2230142978,-0.88,-0.50,-0.03
2230144977,-0.88,-0.50,-0.03
2230146975,-0.88,-0.50,-0.03
2230148976,-0.84,-0.53,-0.04
2230150996,-0.84,-0.53,-0.04
2230152982,-0.84,-0.53,-0.04
2230154976,-0.84,-0.53,-0.04
2230156978,-0.84,-0.53,-0.04
2230158977,-0.88,-0.54,-0.04
2230160974,-0.88,-0.54,-0.04
2230162999,-0.88,-0.54,-0.04
2230165070,-0.88,-0.54,-0.04
2230167042,-0.88,-0.54,-0.04
2230169010,-0.88,-0.54,-0.04
2230171006,-0.87,-0.51,0.00
2230173005,-0.87,-0.51,0.00
2230175003,-0.87,-0.51,0.00
2230177033,-0.87,-0.51,0.00
2230179010,-0.87,-0.51,0.00
2230180976,-0.91,-0.50,-0.01
2230182978,-0.91,-0.50,-0.01
2230184981,-0.91,-0.50,-0.01
2230186981,-0.91,-0.50,-0.01
2230188980,-0.91,-0.50,-0.01
2230190977,-0.86,-0.45,0.00
2230192984,-0.86,-0.45,0.00
2230194996,-0.86,-0.45,0.00
2230196978,-0.86,-0.45,0.00
2230198980,-0.86,-0.45,0.00
2230200999,-0.89,-0.45,-0.00
2230202982,-0.89,-0.45,-0.00
2230204977,-0.89,-0.45,-0.00
2230207055,-0.89,-0.45,-0.00
2230209005,-0.89,-0.45,-0.00
2230211049,-0.88,-0.43,-0.02
2230213040,-0.88,-0.43,-0.02
2230215038,-0.88,-0.43,-0.02
2230217028,-0.88,-0.43,-0.02
2230219008,-0.88,-0.43,-0.02
2230221010,-0.88,-0.48,0.01
2230223014,-0.88,-0.48,0.01
2230224979,-0.88,-0.48,0.01
2230227077,-0.88,-0.48,0.01
2230228990,-0.88,-0.48,0.01
2230230980,-0.88,-0.48,0.01
2230232990,-0.88,-0.48,0.01
2230234976,-0.88,-0.48,0.01
2230236979,-0.88,-0.48,0.01
2230238977,-0.88,-0.48,0.01
2230240975,-0.88,-0.48,0.00
2230242979,-0.88,-0.48,0.00
2230244976,-0.88,-0.48,0.00
2230247015,-0.88,-0.48,0.00
2230249010,-0.88,-0.48,0.00
2230251017,-0.89,-0.47,-0.02
2230253010,-0.89,-0.47,-0.02
2230255006,-0.89,-0.47,-0.02
2230257001,-0.89,-0.47,-0.02
2230258977,-0.89,-0.47,-0.02
2230260980,-0.88,-0.45,-0.01
2230262979,-0.88,-0.45,-0.01
2230264978,-0.88,-0.45,-0.01
2230266979,-0.88,-0.45,-0.01
2230268974,-0.88,-0.45,-0.01
2230270979,-0.88,-0.46,-0.01
2230272983,-0.88,-0.46,-0.01
2230275067,-0.88,-0.46,-0.01
2230277052,-0.88,-0.46,-0.01
2230278976,-0.88,-0.46,-0.01
2230280976,-0.88,-0.46,-0.02
2230282976,-0.88,-0.46,-0.02
2230284979,-0.88,-0.46,-0.02
2230287025,-0.88,-0.46,-0.02
2230289008,-0.88,-0.46,-0.02
2230291009,-0.89,-0.46,-0.02
2230293009,-0.89,-0.46,-0.02
2230295020,-0.89,-0.46,-0.02
2230297005,-0.89,-0.46,-0.02
2230299008,-0.89,-0.46,-0.02
2230300999,-0.89,-0.47,-0.02
2230302986,-0.89,-0.47,-0.02
2230304975,-0.89,-0.47,-0.02
2230306978,-0.89,-0.47,-0.02
2230309019,-0.89,-0.47,-0.02
2230311020,-0.89,-0.47,-0.02
2230312977,-0.89,-0.47,-0.02
2230314974,-0.89,-0.47,-0.02
2230316977,-0.89,-0.47,-0.02
2230318978,-0.89,-0.47,-0.02
2230321052,-0.89,-0.48,-0.02
2230323023,-0.89,-0.48,-0.02
2230324975,-0.89,-0.48,-0.02
2230327052,-0.89,-0.48,-0.02
2230329002,-0.89,-0.48,-0.02
2230331004,-0.88,-0.48,-0.00
2230333007,-0.88,-0.48,-0.00
2230335000,-0.88,-0.48,-0.00
2230337002,-0.88,-0.48,-0.00
2230339004,-0.88,-0.48,-0.00
2230340980,-0.86,-0.48,0.01
2230342979,-0.86,-0.48,0.01
2230344977,-0.86,-0.48,0.01
2230346981,-0.86,-0.48,0.01
2230348979,-0.86,-0.48,0.01
2230351091,-0.86,-0.48,0.01
2230352987,-0.86,-0.49,0.01
2230354980,-0.86,-0.49,0.01
2230356979,-0.86,-0.49,0.01
2230358977,-0.86,-0.49,0.01
2230360972,-0.86,-0.49,0.01
2230362977,-0.86,-0.48,0.01
2230364979,-0.86,-0.48,0.01
2230367106,-0.86,-0.48,0.01
2230369051,-0.86,-0.48,0.01
2230371005,-0.86,-0.48,0.01
2230373005,-0.88,-0.49,0.01
2230375006,-0.88,-0.49,0.01
2230377031,-0.88,-0.49,0.01
2230379009,-0.88,-0.49,0.01
2230381003,-0.88,-0.49,0.01
2230383008,-0.88,-0.49,0.01
2230384977,-0.88,-0.49,0.01
2230386985,-0.88,-0.49,0.01
2230388986,-0.88,-0.49,0.01
2230390977,-0.88,-0.49,0.01
2230392982,-0.88,-0.48,-0.00
2230394992,-0.88,-0.48,-0.00
2230397008,-0.88,-0.48,-0.00
2230398979,-0.88,-0.48,-0.00
2230401091,-0.88,-0.48,-0.00
2230402987,-0.89,-0.47,-0.01
2230404974,-0.89,-0.47,-0.01
2230406977,-0.89,-0.47,-0.01
2230409028,-0.89,-0.47,-0.01
2230411046,-0.89,-0.47,-0.01
2230413043,-0.88,-0.47,-0.02
2230415008,-0.88,-0.47,-0.02
2230417007,-0.88,-0.47,-0.02
2230419001,-0.88,-0.47,-0.02
2230421006,-0.88,-0.47,-0.02
2230423013,-0.88,-0.48,-0.03
2230424977,-0.88,-0.48,-0.03
2230427004,-0.88,-0.48,-0.03
2230428975,-0.88,-0.48,-0.03
2230430978,-0.88,-0.48,-0.03
2230432980,-0.88,-0.48,-0.04
2230434973,-0.88,-0.48,-0.04
2230436978,-0.88,-0.48,-0.04
2230438975,-0.88,-0.48,-0.04
2230440984,-0.88,-0.48,-0.04
2230442978,-0.88,-0.49,-0.02
2230444979,-0.88,-0.49,-0.02
2230446980,-0.88,-0.49,-0.02
2230449008,-0.88,-0.49,-0.02
2230451014,-0.88,-0.49,-0.02
2230453007,-0.87,-0.48,-0.01
2230455036,-0.87,-0.48,-0.01
2230457037,-0.87,-0.48,-0.01
2230459006,-0.87,-0.48,-0.01
2230461071,-0.87,-0.48,-0.01
2230463043,-0.89,-0.47,-0.00
2230465019,-0.89,-0.47,-0.00
2230466981,-0.89,-0.47,-0.00
2230468979,-0.89,-0.47,-0.00
2230470981,-0.89,-0.47,-0.00
2230472977,-0.88,-0.46,-0.00
2230474976,-0.88,-0.46,-0.00
2230477004,-0.88,-0.46,-0.00
2230478979,-0.88,-0.46,-0.00
2230480977,-0.88,-0.46,-0.00
2230482990,-0.88,-0.46,-0.01
2230484978,-0.88,-0.46,-0.01
2230486980,-0.88,-0.46,-0.01
2230489014,-0.88,-0.46,-0.01
2230491003,-0.88,-0.46,-0.01
2230493019,-0.87,-0.46,-0.00
2230495020,-0.87,-0.46,-0.00
2230497009,-0.87,-0.46,-0.00
2230499009,-0.87,-0.46,-0.00
2230501024,-0.87,-0.46,-0.00
2230502981,-0.88,-0.47,-0.00
2230504979,-0.88,-0.47,-0.00
2230507032,-0.88,-0.47,-0.00
2230509036,-0.88,-0.47,-0.00
2230511012,-0.88,-0.47,-0.00
2230513029,-0.88,-0.48,-0.01
2230514974,-0.88,-0.48,-0.01
2230516979,-0.88,-0.48,-0.01
2230518984,-0.88,-0.48,-0.01
2230520977,-0.88,-0.48,-0.01
2230522976,-0.89,-0.48,-0.01
2230524971,-0.89,-0.48,-0.01
2230526998,-0.89,-0.48,-0.01
2230529030,-0.89,-0.48,-0.01
2230531008,-0.89,-0.48,-0.01
2230533008,-0.89,-0.48,-0.01
2230535008,-0.89,-0.48,-0.01
2230537008,-0.89,-0.48,-0.01
2230539008,-0.89,-0.48,-0.01
2230541009,-0.89,-0.48,-0.01
2230542980,-0.89,-0.48,-0.01
2230544981,-0.89,-0.48,-0.00
2230546977,-0.89,-0.48,-0.00
2230548974,-0.89,-0.48,-0.00
2230550999,-0.89,-0.48,-0.00
2230553006,-0.89,-0.48,-0.00
2230555135,-0.88,-0.48,-0.00
2230557009,-0.88,-0.48,-0.00
2230558979,-0.88,-0.48,-0.00
2230560977,-0.88,-0.48,-0.00
2230562979,-0.88,-0.48,-0.00
2230564974,-0.88,-0.48,-0.01
2230566977,-0.88,-0.48,-0.01
2230569026,-0.88,-0.48,-0.01
2230571001,-0.88,-0.48,-0.01
2230573002,-0.88,-0.48,-0.01
2230575006,-0.87,-0.48,-0.01
2230577033,-0.87,-0.48,-0.01
2230579007,-0.87,-0.48,-0.01
2230581005,-0.87,-0.48,-0.01
2230582977,-0.87,-0.48,-0.01
2230584985,-0.88,-0.49,0.00
2230586978,-0.88,-0.49,0.00
2230588979,-0.88,-0.49,0.00
2230590981,-0.88,-0.49,0.00
2230592983,-0.88,-0.49,0.00
2230594995,-0.88,-0.49,0.00
2230596978,-0.88,-0.49,0.00
2230598977,-0.88,-0.49,0.00
2230601027,-0.88,-0.49,0.00
2230603038,-0.88,-0.49,0.00
2230604995,-0.88,-0.48,0.00
2230606979,-0.88,-0.48,0.00
2230609022,-0.88,-0.48,0.00
2230611038,-0.88,-0.48,0.00
2230613001,-0.88,-0.48,0.00
2230615011,-0.88,-0.48,-0.00
2230617049,-0.88,-0.48,-0.00
2230619007,-0.88,-0.48,-0.00
2230621006,-0.88,-0.48,-0.00
2230623012,-0.88,-0.48,-0.00
2230624992,-0.88,-0.48,-0.01
2230627001,-0.88,-0.48,-0.01
2230628977,-0.88,-0.48,-0.01
2230630981,-0.88,-0.48,-0.01
2230632979,-0.88,-0.48,-0.01
2230634979,-0.88,-0.48,-0.02
2230636977,-0.88,-0.48,-0.02
2230638975,-0.88,-0.48,-0.02
2230640979,-0.88,-0.48,-0.02
2230642977,-0.88,-0.48,-0.02
2230644977,-0.89,-0.48,-0.02
2230646975,-0.89,-0.48,-0.02
2230649019,-0.89,-0.48,-0.02
2230651017,-0.89,-0.48,-0.02
2230653010,-0.89,-0.48,-0.02
2230655004,-0.89,-0.46,-0.02
2230657062,-0.89,-0.46,-0.02
2230659039,-0.89,-0.46,-0.02
2230661004,-0.89,-0.46,-0.02
2230663010,-0.89,-0.46,-0.02
2230664980,-0.89,-0.46,-0.02
2230666978,-0.89,-0.46,-0.02
2230668979,-0.89,-0.46,-0.02
2230670980,-0.89,-0.46,-0.02
2230672976,-0.89,-0.46,-0.02
2230674980,-0.89,-0.47,-0.01
2230677002,-0.89,-0.47,-0.01
2230678976,-0.89,-0.47,-0.01
2230680981,-0.89,-0.47,-0.01
2230682978,-0.89,-0.47,-0.01
2230684977,-0.88,-0.48,-0.00
2230686978,-0.88,-0.48,-0.00
2230689010,-0.88,-0.48,-0.00
2230691007,-0.88,-0.48,-0.00
2230693004,-0.88,-0.48,-0.00
2230695018,-0.87,-0.48,0.00
2230697002,-0.87,-0.48,0.00
2230699005,-0.87,-0.48,0.00
2230701015,-0.87,-0.48,0.00
2230702981,-0.87,-0.48,0.00
2230704981,-0.87,-0.49,0.00
2230706979,-0.87,-0.49,0.00
2230708981,-0.87,-0.49,0.00
2230711039,-0.87,-0.49,0.00
2230713067,-0.87,-0.49,0.00
2230715027,-0.88,-0.48,0.01
2230716981,-0.88,-0.48,0.01
2230719016,-0.88,-0.48,0.01
2230720980,-0.88,-0.48,0.01
2230722979,-0.88,-0.48,0.01
2230724979,-0.88,-0.48,0.01
2230727002,-0.88,-0.48,0.00
2230729024,-0.88,-0.48,0.00
2230731004,-0.88,-0.48,0.00
2230733011,-0.88,-0.48,0.00
2230735002,-0.88,-0.48,0.00
2230737002,-0.89,-0.46,-0.00
2230739005,-0.89,-0.46,-0.00
2230741007,-0.89,-0.46,-0.00
2230742979,-0.89,-0.46,-0.00
2230744978,-0.89,-0.46,-0.00
2230746980,-0.88,-0.47,-0.01
2230748980,-0.88,-0.47,-0.01
2230751094,-0.88,-0.47,-0.01
2230752986,-0.88,-0.47,-0.01
2230754974,-0.88,-0.47,-0.01
2230756975,-0.89,-0.46,-0.00
2230758976,-0.89,-0.46,-0.00
2230760980,-0.89,-0.46,-0.00
2230762977,-0.89,-0.46,-0.00
2230764979,-0.89,-0.46,-0.00
2230766976,-0.89,-0.46,0.00
2230769008,-0.89,-0.46,0.00
2230771008,-0.89,-0.46,0.00
2230773007,-0.89,-0.46,0.00
2230775006,-0.89,-0.46,0.00
2230777029,-0.89,-0.46,0.00
2230779009,-0.89,-0.46,0.00
2230780979,-0.89,-0.46,0.00
2230782980,-0.89,-0.46,0.00
2230784975,-0.89,-0.46,0.00
2230786981,-0.88,-0.47,0.00
2230788979,-0.88,-0.47,0.00
2230790976,-0.88,-0.47,0.00
2230792982,-0.88,-0.47,0.00
2230794994,-0.88,-0.47,0.00
2230796976,-0.88,-0.48,-0.00
2230798979,-0.88,-0.48,-0.00
2230801079,-0.88,-0.48,-0.00
2230802988,-0.88,-0.48,-0.00
2230804979,-0.88,-0.48,-0.00
2230806974,-0.88,-0.48,0.01
2230809008,-0.88,-0.48,0.01
2230811045,-0.88,-0.48,0.01
2230813000,-0.88,-0.48,0.01
2230815003,-0.88,-0.48,0.01
2230817039,-0.88,-0.47,0.00
2230819009,-0.88,-0.47,0.00
2230821005,-0.88,-0.47,0.00
2230823008,-0.88,-0.47,0.00
2230824979,-0.88,-0.47,0.00
2230826998,-0.89,-0.46,0.00
2230828981,-0.89,-0.46,0.00
2230830976,-0.89,-0.46,0.00
2230832979,-0.89,-0.46,0.00
2230834979,-0.89,-0.46,0.00
2230836975,-0.88,-0.46,-0.00
2230838984,-0.88,-0.46,-0.00
2230840977,-0.88,-0.46,-0.00
2230842981,-0.88,-0.46,-0.00
2230844979,-0.88,-0.46,-0.00
2230847035,-0.89,-0.47,-0.01
2230849034,-0.89,-0.47,-0.01
2230851021,-0.89,-0.47,-0.01
2230853005,-0.89,-0.47,-0.01
2230855002,-0.89,-0.47,-0.01
2230857006,-0.88,-0.47,-0.01
2230859005,-0.88,-0.47,-0.01
2230861008,-0.88,-0.47,-0.01
2230862979,-0.88,-0.47,-0.01
2230864979,-0.88,-0.47,-0.01
2230866975,-0.88,-0.46,-0.01
2230868974,-0.88,-0.46,-0.01
2230870979,-0.88,-0.46,-0.01
2230872979,-0.88,-0.46,-0.01
2230874979,-0.88,-0.46,-0.01
2230876994,-0.89,-0.47,-0.02
2230878978,-0.89,-0.47,-0.02
2230880979,-0.89,-0.47,-0.02
2230882980,-0.89,-0.47,-0.02
2230884975,-0.89,-0.47,-0.02
2230886979,-0.89,-0.47,-0.02
2230889017,-0.89,-0.47,-0.02
2230891002,-0.89,-0.47,-0.02
2230893005,-0.89,-0.47,-0.02
2230895017,-0.89,-0.47,-0.02
2230897003,-0.88,-0.49,-0.02
2230899001,-0.88,-0.49,-0.02
2230901019,-0.88,-0.49,-0.02
2230902977,-0.88,-0.49,-0.02
2230905042,-0.88,-0.49,-0.02
2230907032,-0.88,-0.49,-0.02
2230908979,-0.88,-0.49,-0.02
2230911020,-0.88,-0.49,-0.02
2230912984,-0.88,-0.49,-0.02
2230914984,-0.88,-0.49,-0.02
2230916977,-0.88,-0.49,-0.02
2230918976,-0.88,-0.50,-0.02
2230920981,-0.88,-0.50,-0.02
2230923027,-0.88,-0.50,-0.02
2230924979,-0.88,-0.50,-0.02
2230927000,-0.88,-0.50,-0.02
2230929026,-0.87,-0.49,-0.01
2230931001,-0.87,-0.49,-0.01
2230933004,-0.87,-0.49,-0.01
2230935007,-0.87,-0.49,-0.01
2230937004,-0.87,-0.49,-0.01
2230939004,-0.88,-0.49,-0.01
2230941006,-0.88,-0.49,-0.01
2230942985,-0.88,-0.49,-0.01
2230944981,-0.88,-0.49,-0.01
2230946976,-0.88,-0.49,-0.01
2230948984,-0.87,-0.49,-0.01
2230950996,-0.87,-0.49,-0.01
2230952982,-0.87,-0.49,-0.01
2230954976,-0.87,-0.49,-0.01
2230956976,-0.87,-0.49,-0.01
2230958980,-0.88,-0.49,-0.01
2230960980,-0.88,-0.49,-0.01
2230963113,-0.88,-0.49,-0.01
2230965017,-0.88,-0.49,-0.01
2230966978,-0.88,-0.49,-0.01
2230969019,-0.88,-0.49,-0.00
2230971009,-0.88,-0.49,-0.00
2230973006,-0.88,-0.49,-0.00
2230975010,-0.88,-0.49,-0.00
2230977034,-0.88,-0.49,-0.00
2230979013,-0.88,-0.49,-0.01
2230981004,-0.88,-0.49,-0.01
2230983016,-0.88,-0.49,-0.01
2230984977,-0.88,-0.49,-0.01
2230986978,-0.88,-0.49,-0.01
2230988978,-0.88,-0.48,-0.02
2230990980,-0.88,-0.48,-0.02
2230992980,-0.88,-0.48,-0.02
2230994991,-0.88,-0.48,-0.02
2230996979,-0.88,-0.48,-0.02
2230998978,-0.87,-0.49,-0.01
2231001000,-0.87,-0.49,-0.01
2231002987,-0.87,-0.49,-0.01
2231004979,-0.87,-0.49,-0.01
2231006987,-0.87,-0.49,-0.01
2231009121,-0.88,-0.49,-0.01
2231011052,-0.88,-0.49,-0.01
2231013011,-0.88,-0.49,-0.01
2231015004,-0.88,-0.49,-0.01
2231017004,-0.88,-0.49,-0.01
2231019010,-0.88,-0.49,-0.02
2231021006,-0.88,-0.49,-0.02
2231023009,-0.88,-0.49,-0.02
2231025041,-0.88,-0.49,-0.02
2231027038,-0.88,-0.49,-0.02
2231028981,-0.88,-0.48,-0.02
2231030979,-0.88,-0.48,-0.02
2231032975,-0.88,-0.48,-0.02
2231034979,-0.88,-0.48,-0.02
2231036981,-0.88,-0.48,-0.02
2231038976,-0.88,-0.48,-0.02
2231040980,-0.88,-0.48,-0.02
2231042977,-0.88,-0.48,-0.02
2231044984,-0.88,-0.48,-0.02
2231046977,-0.88,-0.48,-0.02
2231048975,-0.88,-0.47,-0.01
2231051018,-0.88,-0.47,-0.01
2231053031,-0.88,-0.47,-0.01
2231055055,-0.88,-0.47,-0.01
2231057038,-0.88,-0.47,-0.01
2231059006,-0.88,-0.47,-0.01
2231061008,-0.88,-0.47,-0.01
2231063008,-0.88,-0.47,-0.01
2231065005,-0.88,-0.47,-0.01
2231067009,-0.88,-0.47,-0.01
2231068982,-0.88,-0.48,-0.00
2231070979,-0.88,-0.48,-0.00
2231072978,-0.88,-0.48,-0.00
2231074980,-0.88,-0.48,-0.00
2231077006,-0.88,-0.48,-0.00
2231078978,-0.89,-0.48,-0.00
2231080975,-0.89,-0.48,-0.00
2231082980,-0.89,-0.48,-0.00
2231084977,-0.89,-0.48,-0.00
2231086981,-0.89,-0.48,-0.00
2231088979,-0.88,-0.47,0.00
2231091012,-0.88,-0.47,0.00
2231093007,-0.88,-0.47,0.00
2231095013,-0.88,-0.47,0.00
2231097007,-0.88,-0.47,0.00
2231099010,-0.88,-0.47,0.00
2231101017,-0.88,-0.47,0.00
2231103008,-0.88,-0.47,0.00
2231104979,-0.88,-0.47,0.00
2231106977,-0.88,-0.47,0.00
2231108984,-0.88,-0.47,0.00
2231111013,-0.88,-0.46,-0.00
2231113070,-0.88,-0.46,-0.00
2231115020,-0.88,-0.46,-0.00
2231116974,-0.88,-0.46,-0.00
2231118978,-0.88,-0.46,-0.00
2231120976,-0.88,-0.47,-0.01
2231122975,-0.88,-0.47,-0.01
2231124974,-0.88,-0.47,-0.01
2231127006,-0.88,-0.47,-0.01
2231129016,-0.88,-0.47,-0.01
2231131022,-0.88,-0.47,0.00
2231133001,-0.88,-0.47,0.00
2231135004,-0.88,-0.47,0.00
2231137005,-0.88,-0.47,0.00
2231139003,-0.88,-0.47,0.00
2231141000,-0.88,-0.46,0.00
2231143005,-0.88,-0.46,0.00
2231144979,-0.88,-0.46,0.00
2231146979,-0.88,-0.46,0.00
2231148979,-0.88,-0.46,0.00
2231151091,-0.89,-0.46,0.00
2231152986,-0.89,-0.46,0.00
2231154979,-0.89,-0.46,0.00
2231156979,-0.89,-0.46,0.00
2231158980,-0.89,-0.46,0.00
2231160976,-0.89,-0.46,-0.00
2231162981,-0.89,-0.46,-0.00
2231165067,-0.89,-0.46,-0.00
2231167023,-0.89,-0.46,-0.00
2231168975,-0.89,-0.46,-0.00
2231171018,-0.89,-0.47,0.00
2231173007,-0.89,-0.47,0.00
2231175002,-0.89,-0.47,0.00
2231177036,-0.89,-0.47,0.00
2231179008,-0.89,-0.47,0.00
2231181006,-0.89,-0.47,0.00
2231183007,-0.89,-0.47,0.00
2231184985,-0.89,-0.47,0.00
2231186979,-0.89,-0.47,0.00
2231188977,-0.89,-0.47,0.00
2231190976,-0.88,-0.47,0.00
2231192985,-0.88,-0.47,0.00
2231194995,-0.88,-0.47,0.00
2231196976,-0.88,-0.47,0.00
2231198977,-0.88,-0.47,0.00
2231201087,-0.88,-0.46,0.00
2231202987,-0.88,-0.46,0.00
2231204975,-0.88,-0.46,0.00
2231206975,-0.88,-0.46,0.00
2231208980,-0.88,-0.46,0.00
2231211042,-0.88,-0.47,0.00
2231213005,-0.88,-0.47,0.00
2231215006,-0.88,-0.47,0.00
2231217002,-0.88,-0.47,0.00
2231219001,-0.88,-0.47,0.00
2231221007,-0.88,-0.47,0.00
2231222997,-0.88,-0.47,0.00
2231224975,-0.88,-0.47,0.00
2231227004,-0.88,-0.47,0.00
2231228977,-0.88,-0.47,0.00
2231230983,-0.88,-0.47,-0.00
2231232988,-0.88,-0.47,-0.00
2231234978,-0.88,-0.47,-0.00
2231236977,-0.88,-0.47,-0.00
2231238981,-0.88,-0.47,-0.00
2231240977,-0.88,-0.47,-0.01
2231242978,-0.88,-0.47,-0.01
2231244979,-0.88,-0.47,-0.01
2231246977,-0.88,-0.47,-0.01
2231248976,-0.88,-0.47,-0.01
2231251021,-0.88,-0.47,-0.00
2231253006,-0.88,-0.47,-0.00
2231255003,-0.88,-0.47,-0.00
2231257031,-0.88,-0.47,-0.00
2231259043,-0.88,-0.47,-0.00
2231261007,-0.89,-0.47,-0.01
2231263028,-0.89,-0.47,-0.01
2231265045,-0.89,-0.47,-0.01
2231267038,-0.89,-0.47,-0.01
2231268976,-0.89,-0.47,-0.01
2231270980,-0.89,-0.47,-0.01
2231272979,-0.89,-0.47,-0.01
2231274979,-0.89,-0.47,-0.01
2231277003,-0.89,-0.47,-0.01
2231278976,-0.89,-0.47,-0.01
2231280984,-0.88,-0.48,-0.01
2231282976,-0.88,-0.48,-0.01
2231284975,-0.88,-0.48,-0.01
2231286979,-0.88,-0.48,-0.01
2231288976,-0.88,-0.48,-0.01
2231291012,-0.88,-0.48,-0.01
2231293009,-0.88,-0.49,-0.01
2231295016,-0.88,-0.49,-0.01
2231297008,-0.88,-0.49,-0.01
2231299011,-0.88,-0.49,-0.01
2231301020,-0.88,-0.49,-0.01
2231303012,-0.88,-0.49,-0.01
2231304976,-0.88,-0.49,-0.01
2231306984,-0.88,-0.49,-0.01
2231308978,-0.88,-0.49,-0.01
2231311011,-0.88,-0.49,-0.01
2231312973,-0.88,-0.49,-0.03
2231314972,-0.88,-0.49,-0.03
2231316978,-0.88,-0.49,-0.03
2231318974,-0.88,-0.49,-0.03
2231320975,-0.88,-0.49,-0.03
2231322978,-0.88,-0.48,-0.02
2231324978,-0.88,-0.48,-0.02
2231327157,-0.88,-0.48,-0.02
2231329010,-0.88,-0.48,-0.02
2231331033,-0.88,-0.48,-0.02
2231333055,-0.89,-0.49,-0.02
2231335007,-0.89,-0.49,-0.02
2231337011,-0.89,-0.49,-0.02
2231339010,-0.89,-0.49,-0.02
2231341010,-0.89,-0.49,-0.02
2231343008,-0.88,-0.47,-0.02
2231345010,-0.88,-0.47,-0.02
2231346987,-0.88,-0.47,-0.02
2231348980,-0.88,-0.47,-0.02
2231351004,-0.88,-0.47,-0.02
2231352978,-0.88,-0.48,-0.01
2231354977,-0.88,-0.48,-0.01
2231356980,-0.88,-0.48,-0.01
2231358976,-0.88,-0.48,-0.01
2231360979,-0.88,-0.48,-0.01
2231362978,-0.88,-0.48,-0.01
2231364979,-0.88,-0.48,-0.01
2231366978,-0.88,-0.48,-0.01
2231368978,-0.88,-0.48,-0.01
2231371021,-0.88,-0.48,-0.01
2231373005,-0.88,-0.49,-0.01
2231375008,-0.88,-0.49,-0.01
2231377028,-0.88,-0.49,-0.01
2231379012,-0.88,-0.49,-0.01
2231381011,-0.88,-0.49,-0.01
2231383037,-0.88,-0.48,-0.00
2231385073,-0.88,-0.48,-0.00
2231387023,-0.88,-0.48,-0.00
2231388978,-0.88,-0.48,-0.00
2231390974,-0.88,-0.48,-0.00
2231392981,-0.88,-0.49,-0.00
2231394992,-0.88,-0.49,-0.00
2231396979,-0.88,-0.49,-0.00
2231398978,-0.88,-0.49,-0.00
2231401001,-0.88,-0.49,-0.00
2231402985,-0.88,-0.48,-0.01
2231404979,-0.88,-0.48,-0.01
2231406977,-0.88,-0.48,-0.01
2231408978,-0.88,-0.48,-0.01
2231411050,-0.88,-0.48,-0.01
2231413003,-0.89,-0.48,-0.01
2231415003,-0.89,-0.48,-0.01
2231417010,-0.89,-0.48,-0.01
2231419007,-0.89,-0.48,-0.01
2231421002,-0.89,-0.48,-0.01
2231423000,-0.88,-0.48,-0.02
2231424991,-0.88,-0.48,-0.02
2231427004,-0.88,-0.48,-0.02
2231428975,-0.88,-0.48,-0.02
2231431067,-0.88,-0.48,-0.02
2231433021,-0.87,-0.48,-0.02
2231435017,-0.87,-0.48,-0.02
2231436980,-0.87,-0.48,-0.02
2231438978,-0.87,-0.48,-0.02
2231440977,-0.87,-0.48,-0.02
2231442979,-0.89,-0.48,-0.00
2231444975,-0.89,-0.48,-0.00
2231446979,-0.89,-0.48,-0.00
2231448979,-0.89,-0.48,-0.00
2231451026,-0.89,-0.48,-0.00
2231453008,-0.87,-0.48,-0.01
2231455004,-0.87,-0.48,-0.01
2231457007,-0.87,-0.48,-0.01
2231459005,-0.87,-0.48,-0.01
2231461004,-0.87,-0.48,-0.01
2231463007,-0.88,-0.48,-0.01
2231464984,-0.88,-0.48,-0.01
2231466981,-0.88,-0.48,-0.01
2231468981,-0.88,-0.48,-0.01
2231470979,-0.88,-0.48,-0.01
2231472977,-0.88,-0.48,-0.01
2231474979,-0.88,-0.48,-0.01
2231476998,-0.88,-0.48,-0.01
2231478977,-0.88,-0.48,-0.01
2231480981,-0.88,-0.48,-0.01
2231482990,-0.88,-0.48,-0.01
2231484976,-0.89,-0.48,0.00
2231486979,-0.89,-0.48,0.00
2231488976,-0.89,-0.48,0.00
2231491035,-0.89,-0.48,0.00
2231493066,-0.89,-0.48,0.00
2231495033,-0.88,-0.47,-0.01
2231497008,-0.88,-0.47,-0.01
2231499004,-0.88,-0.47,-0.01
2231501022,-0.88,-0.47,-0.01
2231503011,-0.88,-0.47,-0.01
2231505004,-0.89,-0.47,-0.01
2231507011,-0.89,-0.47,-0.01
2231508980,-0.89,-0.47,-0.01
2231511010,-0.89,-0.47,-0.01
2231512981,-0.89,-0.47,-0.01
2231514977,-0.88,-0.47,0.00
2231516980,-0.88,-0.47,0.00
2231518980,-0.88,-0.47,0.00
2231520977,-0.88,-0.47,0.00
2231522978,-0.88,-0.47,0.00
2231524976,-0.88,-0.47,0.00
2231526995,-0.88,-0.47,0.00
2231528977,-0.88,-0.47,0.00
2231531018,-0.88,-0.47,0.00
2231533002,-0.88,-0.47,0.00
2231535004,-0.89,-0.47,-0.01
2231537042,-0.89,-0.47,-0.01
2231539011,-0.89,-0.47,-0.01
2231541002,-0.89,-0.47,-0.01
2231543138,-0.89,-0.47,-0.01
2231545040,-0.88,-0.45,0.00
2231547005,-0.88,-0.45,0.00
2231548986,-0.88,-0.45,0.00
2231551003,-0.88,-0.45,0.00
2231552981,-0.88,-0.45,0.00
2231554979,-0.89,-0.46,0.01
2231556978,-0.89,-0.46,0.01
2231558978,-0.89,-0.46,0.01
2231560977,-0.89,-0.46,0.01
2231562978,-0.89,-0.46,0.01
2231564979,-0.88,-0.46,0.00
2231566979,-0.88,-0.46,0.00
2231568980,-0.88,-0.46,0.00
2231571010,-0.88,-0.46,0.00
2231573003,-0.88,-0.46,0.00
2231575007,-0.89,-0.46,0.00
2231577023,-0.89,-0.46,0.00
2231579007,-0.89,-0.46,0.00
2231581003,-0.89,-0.46,0.00
2231582975,-0.89,-0.46,0.00
2231584974,-0.89,-0.46,0.00
2231586978,-0.89,-0.46,0.00
2231588980,-0.89,-0.46,0.00
2231590977,-0.89,-0.46,0.00
2231592978,-0.89,-0.46,0.00
2231594997,-0.89,-0.47,0.01
2231596974,-0.89,-0.47,0.01
2231598974,-0.89,-0.47,0.01
2231600999,-0.89,-0.47,0.01
2231602981,-0.89,-0.47,0.01
2231604977,-0.88,-0.47,0.00
2231606977,-0.88,-0.47,0.00
2231608978,-0.88,-0.47,0.00
2231611050,-0.88,-0.47,0.00
2231613008,-0.88,-0.47,0.00
2231615001,-0.88,-0.48,0.00
2231617005,-0.88,-0.48,0.00
2231619002,-0.88,-0.48,0.00
2231621008,-0.88,-0.48,0.00
2231623014,-0.88,-0.48,0.00
2231624979,-0.88,-0.47,-0.00
2231626997,-0.88,-0.47,-0.00
2231628977,-0.88,-0.47,-0.00
2231630975,-0.88,-0.47,-0.00
2231632980,-0.88,-0.47,-0.00
2231634975,-0.88,-0.47,-0.00
2231636977,-0.88,-0.47,-0.00
2231638977,-0.88,-0.47,-0.00
2231640974,-0.88,-0.47,-0.00
2231642975,-0.88,-0.47,-0.00
2231645002,-0.88,-0.48,0.00
2231647135,-0.88,-0.48,0.00
2231649019,-0.88,-0.48,0.00
2231651028,-0.88,-0.48,0.00
2231653005,-0.88,-0.48,0.00
2231655000,-0.88,-0.48,-0.01
2231657006,-0.88,-0.48,-0.01
2231659003,-0.88,-0.48,-0.01
2231661008,-0.88,-0.48,-0.01
2231663010,-0.88,-0.48,-0.01
2231664978,-0.88,-0.48,-0.01
2231666980,-0.88,-0.48,-0.01
2231668975,-0.88,-0.48,-0.01
2231670980,-0.88,-0.48,-0.01
2231672976,-0.88,-0.48,-0.01
2231674977,-0.88,-0.48,-0.01
2231676995,-0.88,-0.48,-0.01
2231678979,-0.88,-0.48,-0.01
2231680976,-0.88,-0.48,-0.01
2231682981,-0.88,-0.48,-0.01
2231684979,-0.88,-0.48,-0.01
2231686978,-0.88,-0.48,-0.01
2231688975,-0.88,-0.48,-0.01
2231691012,-0.88,-0.48,-0.01
2231693006,-0.88,-0.48,-0.01
2231695022,-0.88,-0.48,-0.01
2231697055,-0.88,-0.48,-0.02
2231699035,-0.88,-0.48,-0.02
2231701025,-0.88,-0.48,-0.02
2231703005,-0.88,-0.48,-0.02
2231705001,-0.88,-0.48,-0.02
2231707016,-0.88,-0.48,-0.02
2231708980,-0.88,-0.48,-0.02
2231711011,-0.88,-0.48,-0.02
2231712980,-0.88,-0.48,-0.02
2231714977,-0.88,-0.48,-0.02
2231716979,-0.88,-0.48,-0.02
2231718972,-0.88,-0.48,-0.02
2231720976,-0.88,-0.48,-0.02
2231722974,-0.88,-0.48,-0.02
2231724974,-0.88,-0.48,-0.02
2231726997,-0.87,-0.49,-0.01
2231728978,-0.87,-0.49,-0.01
2231731020,-0.87,-0.49,-0.01
2231733014,-0.87,-0.49,-0.01
2231735007,-0.87,-0.49,-0.01
2231737009,-0.88,-0.49,-0.03
2231739006,-0.88,-0.49,-0.03
2231741040,-0.88,-0.49,-0.03
2231743056,-0.88,-0.49,-0.03
2231745033,-0.88,-0.49,-0.03
2231747022,-0.88,-0.48,-0.03
2231749007,-0.88,-0.48,-0.03
2231751004,-0.88,-0.48,-0.03
2231752985,-0.88,-0.48,-0.03
2231754979,-0.88,-0.48,-0.03
2231756979,-0.88,-0.48,-0.03
2231758978,-0.88,-0.48,-0.03
2231760980,-0.88,-0.48,-0.03
2231762993,-0.88,-0.48,-0.03
2231764980,-0.88,-0.48,-0.03
2231766978,-0.88,-0.49,-0.02
2231768978,-0.88,-0.49,-0.02
2231771009,-0.88,-0.49,-0.02
2231773005,-0.88,-0.49,-0.02
2231775010,-0.88,-0.49,-0.02
2231777025,-0.88,-0.49,-0.02
2231779005,-0.88,-0.49,-0.02
2231781003,-0.88,-0.49,-0.02
2231783005,-0.88,-0.49,-0.02
2231784980,-0.88,-0.49,-0.02
2231786980,-0.88,-0.49,-0.02
2231788979,-0.88,-0.49,-0.02
2231791067,-0.88,-0.49,-0.02
2231793019,-0.88,-0.49,-0.02
2231794993,-0.88,-0.49,-0.02
2231796979,-0.88,-0.48,-0.02
2231798976,-0.88,-0.48,-0.02
2231801004,-0.88,-0.48,-0.02
2231802982,-0.88,-0.48,-0.02
2231804979,-0.88,-0.48,-0.02
2231806977,-0.88,-0.48,-0.02
2231808976,-0.88,-0.48,-0.02
2231811053,-0.88,-0.48,-0.02
2231813010,-0.88,-0.48,-0.02
2231815007,-0.88,-0.48,-0.02
2231817005,-0.88,-0.49,-0.01
2231819009,-0.88,-0.49,-0.01
2231821011,-0.88,-0.49,-0.01
2231823005,-0.88,-0.49,-0.01
2231825009,-0.88,-0.49,-0.01
2231827002,-0.87,-0.49,-0.01
2231828978,-0.87,-0.49,-0.01
2231830981,-0.87,-0.49,-0.01
2231832977,-0.87,-0.49,-0.01
2231834974,-0.87,-0.49,-0.01
2231836974,-0.88,-0.48,-0.02
2231838975,-0.88,-0.48,-0.02
2231840976,-0.88,-0.48,-0.02
2231842980,-0.88,-0.48,-0.02
2231845030,-0.88,-0.48,-0.02
2231846976,-0.88,-0.48,-0.02
2231848976,-0.88,-0.48,-0.01
2231851029,-0.88,-0.48,-0.01
2231853062,-0.88,-0.48,-0.01
2231855035,-0.88,-0.48,-0.01
2231857006,-0.88,-0.48,-0.01
2231858998,-0.87,-0.48,0.00
2231861006,-0.87,-0.48,0.00
2231863007,-0.87,-0.48,0.00
2231865001,-0.87,-0.48,0.00
2231867006,-0.87,-0.48,0.00
2231868979,-0.88,-0.47,-0.01
2231870979,-0.88,-0.47,-0.01
2231872977,-0.88,-0.47,-0.01
2231874976,-0.88,-0.47,-0.01
2231877007,-0.88,-0.47,-0.01
2231878979,-0.88,-0.48,-0.02
2231880979,-0.88,-0.48,-0.02
2231882979,-0.88,-0.48,-0.02
2231884979,-0.88,-0.48,-0.02
2231886978,-0.88,-0.48,-0.02
2231888976,-0.89,-0.46,-0.01
2231891009,-0.89,-0.46,-0.01
2231893005,-0.89,-0.46,-0.01
2231895027,-0.89,-0.46,-0.01
2231897007,-0.89,-0.46,-0.01
2231899003,-0.88,-0.46,-0.00
2231901017,-0.88,-0.46,-0.00
2231903008,-0.88,-0.46,-0.00
2231904978,-0.88,-0.46,-0.00
2231906980,-0.88,-0.46,-0.00
2231908979,-0.88,-0.48,0.00
2231911010,-0.88,-0.48,0.00
2231912982,-0.88,-0.48,0.00
2231915072,-0.88,-0.48,0.00
2231917022,-0.88,-0.48,0.00
2231918977,-0.88,-0.47,-0.01
2231920975,-0.88,-0.47,-0.01
2231922975,-0.88,-0.47,-0.01
2231924978,-0.88,-0.47,-0.01
2231926998,-0.88,-0.47,-0.01
2231928976,-0.88,-0.47,-0.01
2231931019,-0.88,-0.47,-0.01
2231933003,-0.88,-0.47,-0.01
2231935005,-0.88,-0.47,-0.01
2231937004,-0.88,-0.47,-0.01
2231939005,-0.88,-0.47,0.00
2231941009,-0.88,-0.47,0.00
2231943004,-0.88,-0.47,0.00
2231944979,-0.88,-0.47,0.00
2231947027,-0.88,-0.47,0.00
2231948976,-0.88,-0.46,0.00
2231951009,-0.88,-0.46,0.00
2231952982,-0.88,-0.46,0.00
2231954977,-0.88,-0.46,0.00
2231956980,-0.88,-0.46,0.00
2231958980,-0.88,-0.47,0.00
2231960981,-0.88,-0.47,0.00
2231962978,-0.88,-0.47,0.00
2231964975,-0.88,-0.47,0.00
2231966977,-0.88,-0.47,0.00
2231968974,-0.88,-0.47,0.01
2231971012,-0.88,-0.47,0.01
2231973006,-0.88,-0.47,0.01
2231975005,-0.88,-0.47,0.01
2231977117,-0.88,-0.47,0.01
2231979006,-0.88,-0.47,0.00
2231981007,-0.88,-0.47,0.00
2231983016,-0.88,-0.47,0.00
2231984981,-0.88,-0.47,0.00
2231986984,-0.88,-0.47,0.00
2231988979,-0.88,-0.46,0.00
2231990977,-0.88,-0.46,0.00
2231992989,-0.88,-0.46,0.00
2231994992,-0.88,-0.46,0.00
2231996976,-0.88,-0.46,0.00
2231998975,-0.88,-0.47,-0.00
2232001084,-0.88,-0.47,-0.00
2232002992,-0.88,-0.47,-0.00
2232004978,-0.88,-0.47,-0.00
2232006980,-0.88,-0.47,-0.00
2232008978,-0.88,-0.48,0.00
2232011049,-0.88,-0.48,0.00
2232013007,-0.88,-0.48,0.00
2232015003,-0.88,-0.48,0.00
2232017003,-0.88,-0.48,0.00
2232019100,-0.88,-0.48,-0.00
2232021032,-0.88,-0.48,-0.00
2232023010,-0.88,-0.48,-0.00
2232025008,-0.88,-0.48,-0.00
2232027104,-0.88,-0.48,-0.00
2232028984,-0.88,-0.48,-0.00
2232030978,-0.88,-0.48,-0.01
2232032976,-0.88,-0.48,-0.01
2232034984,-0.88,-0.48,-0.01
2232036981,-0.88,-0.48,-0.01
2232038976,-0.88,-0.48,-0.01
2232040980,-0.88,-0.47,0.00
2232043040,-0.88,-0.47,0.00
2232044979,-0.88,-0.47,0.00
2232046991,-0.88,-0.47,0.00
2232049027,-0.88,-0.47,0.00
2232051113,-0.88,-0.47,-0.01
2232053009,-0.88,-0.47,-0.01
2232055004,-0.88,-0.47,-0.01
2232057004,-0.88,-0.47,-0.01
2232059001,-0.88,-0.47,-0.01
2232061002,-0.88,-0.48,-0.01
2232062998,-0.88,-0.48,-0.01
2232064981,-0.88,-0.48,-0.01
2232066977,-0.88,-0.48,-0.01
2232068979,-0.88,-0.48,-0.01
2232070976,-0.88,-0.47,-0.01
2232072976,-0.88,-0.47,-0.01
2232074981,-0.88,-0.47,-0.01
2232077080,-0.88,-0.47,-0.01
2232078985,-0.88,-0.47,-0.01
2232080978,-0.88,-0.48,-0.02
2232082980,-0.88,-0.48,-0.02
2232084975,-0.88,-0.48,-0.02
2232086975,-0.88,-0.48,-0.02
2232088975,-0.88,-0.48,-0.02
2232091014,-0.88,-0.48,-0.02
2232093007,-0.88,-0.48,-0.02
2232095017,-0.88,-0.48,-0.02
2232097004,-0.88,-0.48,-0.02
2232099004,-0.88,-0.48,-0.02
2232101111,-0.88,-0.48,-0.01
2232103031,-0.88,-0.48,-0.01
2232105019,-0.88,-0.48,-0.01
2232107006,-0.88,-0.48,-0.01
2232108978,-0.88,-0.48,-0.01
2232111004,-0.88,-0.47,-0.00
2232112974,-0.88,-0.47,-0.00
2232114976,-0.88,-0.47,-0.00
2232116981,-0.88,-0.47,-0.00
2232118975,-0.88,-0.47,-0.00
2232120977,-0.88,-0.48,-0.02
2232122977,-0.88,-0.48,-0.02
2232124980,-0.88,-0.48,-0.02
2232127100,-0.88,-0.48,-0.02
2232128975,-0.88,-0.48,-0.02
2232131008,-0.88,-0.48,-0.02
2232133007,-0.88,-0.48,-0.02
2232135006,-0.88,-0.48,-0.02
2232137008,-0.88,-0.48,-0.02
2232139006,-0.88,-0.48,-0.02
2232141008,-0.88,-0.49,-0.02
2232143004,-0.88,-0.49,-0.02
2232144980,-0.88,-0.49,-0.02
2232146980,-0.88,-0.49,-0.02
2232149054,-0.88,-0.49,-0.02
2232151119,-0.88,-0.49,-0.02
2232153015,-0.88,-0.49,-0.02
2232154977,-0.88,-0.49,-0.02
2232156973,-0.88,-0.49,-0.02
2232158979,-0.88,-0.49,-0.02
2232160979,-0.88,-0.49,-0.01
2232162976,-0.88,-0.49,-0.01
2232164979,-0.88,-0.49,-0.01
2232166977,-0.88,-0.49,-0.01
2232168975,-0.88,-0.49,-0.01
2232171025,-0.88,-0.48,-0.02
2232173007,-0.88,-0.48,-0.02
2232175003,-0.88,-0.48,-0.02
2232177108,-0.88,-0.48,-0.02
2232179005,-0.88,-0.48,-0.02
2232181010,-0.88,-0.48,-0.02
2232183002,-0.88,-0.48,-0.02
2232185007,-0.88,-0.48,-0.02
2232186979,-0.88,-0.48,-0.02
2232188981,-0.88,-0.48,-0.02
2232190977,-0.88,-0.48,-0.02
2232192987,-0.88,-0.48,-0.02
2232194992,-0.88,-0.48,-0.02
2232197107,-0.88,-0.48,-0.02
2232199011,-0.88,-0.48,-0.02
2232201097,-0.88,-0.48,-0.01
2232202988,-0.88,-0.48,-0.01
2232204984,-0.88,-0.48,-0.01
2232206980,-0.88,-0.48,-0.01
2232208981,-0.88,-0.48,-0.01
2232211047,-0.88,-0.48,-0.01
2232213000,-0.88,-0.48,-0.01
2232215001,-0.88,-0.48,-0.01
2232217009,-0.88,-0.48,-0.01
2232219009,-0.88,-0.48,-0.01
2232221011,-0.88,-0.48,-0.01
2232223005,-0.88,-0.47,-0.02
2232225012,-0.88,-0.47,-0.02
2232227156,-0.88,-0.47,-0.02
2232228989,-0.88,-0.47,-0.02
2232230977,-0.88,-0.47,-0.02
2232232990,-0.88,-0.48,-0.01
2232234979,-0.88,-0.48,-0.01
2232236979,-0.88,-0.48,-0.01
2232238979,-0.88,-0.48,-0.01
2232240979,-0.88,-0.48,-0.01
2232242977,-0.88,-0.48,-0.01
2232244975,-0.88,-0.48,-0.01
2232246976,-0.88,-0.48,-0.01
2232248979,-0.88,-0.48,-0.01
2232251108,-0.88,-0.48,-0.01
2232253041,-0.88,-0.48,-0.02
2232255039,-0.88,-0.48,-0.02
2232257059,-0.88,-0.48,-0.02
2232259036,-0.88,-0.48,-0.02
2232261004,-0.88,-0.48,-0.02
2232263007,-0.88,-0.48,-0.01
2232265008,-0.88,-0.48,-0.01
2232267006,-0.88,-0.48,-0.01
2232269003,-0.88,-0.48,-0.01
2232270988,-0.88,-0.48,-0.01
2232272978,-0.88,-0.48,-0.01
2232274979,-0.88,-0.48,-0.01
2232277099,-0.88,-0.48,-0.01
2232278978,-0.88,-0.48,-0.01
2232280977,-0.88,-0.48,-0.01
2232282977,-0.88,-0.48,-0.01
2232284979,-0.88,-0.48,-0.01
2232286976,-0.88,-0.48,-0.01
2232288981,-0.88,-0.48,-0.01
2232291016,-0.88,-0.48,-0.01
2232293005,-0.88,-0.47,-0.02
2232295017,-0.88,-0.47,-0.02
2232297010,-0.88,-0.47,-0.02
2232299003,-0.88,-0.47,-0.02
2232301098,-0.88,-0.47,-0.02
2232303014,-0.88,-0.48,-0.01
2232304979,-0.88,-0.48,-0.01
2232306979,-0.88,-0.48,-0.01
2232309072,-0.88,-0.48,-0.01
2232311038,-0.88,-0.48,-0.01
2232312977,-0.89,-0.48,-0.01
2232314976,-0.89,-0.48,-0.01
2232316976,-0.89,-0.48,-0.01
2232318976,-0.89,-0.48,-0.01
2232320976,-0.89,-0.48,-0.01
2232322974,-0.89,-0.46,0.00
2232324974,-0.89,-0.46,0.00
2232327098,-0.89,-0.46,0.00
2232328974,-0.89,-0.46,0.00
2232331021,-0.89,-0.46,0.00
2232333001,-0.88,-0.47,-0.01
2232335001,-0.88,-0.47,-0.01
2232337008,-0.88,-0.47,-0.01
2232338998,-0.88,-0.47,-0.01
2232341003,-0.88,-0.47,-0.01
2232343007,-0.88,-0.47,-0.00
2232344978,-0.88,-0.47,-0.00
2232346977,-0.88,-0.47,-0.00
2232348975,-0.88,-0.47,-0.00
2232351078,-0.88,-0.47,-0.00
2232352991,-0.88,-0.46,0.00
2232354983,-0.88,-0.46,0.00
2232357031,-0.88,-0.46,0.00
2232358975,-0.88,-0.46,0.00
2232360975,-0.88,-0.46,0.00
2232362979,-0.88,-0.46,0.00
2232364980,-0.88,-0.46,0.00
2232366974,-0.88,-0.46,0.00
2232368978,-0.88,-0.46,0.00
2232371019,-0.88,-0.46,0.00
2232373005,-0.89,-0.47,0.00
2232375001,-0.89,-0.47,0.00
2232377111,-0.89,-0.47,0.00
2232379004,-0.89,-0.47,0.00
2232381001,-0.89,-0.47,0.00
2232383006,-0.88,-0.47,0.00
2232384980,-0.88,-0.47,0.00
2232386980,-0.88,-0.47,0.00
2232388979,-0.88,-0.47,0.00
2232390980,-0.88,-0.47,0.00
2232392982,-0.89,-0.47,0.00
2232394996,-0.89,-0.47,0.00
2232396977,-0.89,-0.47,0.00
2232398977,-0.89,-0.47,0.00
2232401080,-0.89,-0.47,0.00
2232402986,-0.89,-0.47,0.00
2232404975,-0.89,-0.47,-0.00
2232406975,-0.89,-0.47,-0.00
2232408982,-0.89,-0.47,-0.00
2232411047,-0.89,-0.47,-0.00
2232413001,-0.89,-0.47,-0.00
2232415005,-0.89,-0.46,0.00
2232417007,-0.89,-0.46,0.00
2232419042,-0.89,-0.46,0.00
2232421007,-0.89,-0.46,0.00
2232423006,-0.89,-0.46,0.00
2232425005,-0.89,-0.47,0.00
2232427096,-0.89,-0.47,0.00
2232428980,-0.89,-0.47,0.00
2232430978,-0.89,-0.47,0.00
2232432980,-0.89,-0.47,0.00
2232434977,-0.89,-0.46,0.00
2232436975,-0.89,-0.46,0.00
2232438978,-0.89,-0.46,0.00
2232440980,-0.89,-0.46,0.00
2232443037,-0.89,-0.46,0.00
2232445005,-0.89,-0.46,0.00
2232446976,-0.89,-0.46,0.00
2232448974,-0.89,-0.46,0.00
2232451115,-0.89,-0.46,0.00
2232453005,-0.89,-0.46,0.00
2232455007,-0.88,-0.47,0.00
2232457036,-0.88,-0.47,0.00
2232459042,-0.88,-0.47,0.00
2232461006,-0.88,-0.47,0.00
2232463005,-0.88,-0.47,0.00
2232465006,-0.88,-0.48,-0.00
2232466979,-0.88,-0.48,-0.00
2232468976,-0.88,-0.48,-0.00
2232470976,-0.88,-0.48,-0.00
2232472980,-0.88,-0.48,-0.00
2232474980,-0.88,-0.48,-0.00
2232477086,-0.88,-0.48,-0.00
2232478979,-0.88,-0.48,-0.00
2232480980,-0.88,-0.48,-0.00
2232482993,-0.88,-0.48,-0.00
2232484984,-0.88,-0.48,-0.00
2232486979,-0.88,-0.48,-0.00
2232488976,-0.88,-0.48,-0.00
2232491024,-0.88,-0.48,-0.00
2232493060,-0.88,-0.48,-0.00
2232495035,-0.89,-0.47,-0.01
2232497008,-0.89,-0.47,-0.01
2232499007,-0.89,-0.47,-0.01
2232501110,-0.89,-0.47,-0.01
2232503011,-0.89,-0.47,-0.01
2232505005,-0.88,-0.48,-0.02
2232507006,-0.88,-0.48,-0.02
2232508977,-0.88,-0.48,-0.02
2232511010,-0.88,-0.48,-0.02
2232512978,-0.88,-0.48,-0.02
2232514978,-0.88,-0.49,-0.02
2232516980,-0.88,-0.49,-0.02
2232518981,-0.88,-0.49,-0.02
2232520977,-0.88,-0.49,-0.02
2232522981,-0.88,-0.49,-0.02
2232524977,-0.87,-0.48,-0.03
2232527089,-0.87,-0.48,-0.03
2232528976,-0.87,-0.48,-0.03
2232531019,-0.87,-0.48,-0.03
2232533001,-0.87,-0.48,-0.03
2232535004,-0.88,-0.48,-0.03
2232537004,-0.88,-0.48,-0.03
2232539002,-0.88,-0.48,-0.03
2232541003,-0.88,-0.48,-0.03
2232543005,-0.88,-0.48,-0.03
2232544979,-0.88,-0.49,-0.03
2232546980,-0.88,-0.49,-0.03
2232548979,-0.88,-0.49,-0.03
2232551084,-0.88,-0.49,-0.03
2232552993,-0.88,-0.49,-0.03
2232555068,-0.88,-0.49,-0.02
2232557019,-0.88,-0.49,-0.02
2232558977,-0.88,-0.49,-0.02
2232561018,-0.88,-0.49,-0.02
2232562979,-0.88,-0.49,-0.02
2232564979,-0.88,-0.50,-0.02
2232566977,-0.88,-0.50,-0.02
2232568977,-0.88,-0.50,-0.02
2232571013,-0.88,-0.50,-0.02
2232573005,-0.88,-0.50,-0.02
2232575001,-0.88,-0.49,-0.03
2232577123,-0.88,-0.49,-0.03
2232579007,-0.88,-0.49,-0.03
2232581006,-0.88,-0.49,-0.03
2232583008,-0.88,-0.49,-0.03
2232584979,-0.88,-0.51,-0.06
2232586978,-0.88,-0.51,-0.06
2232588979,-0.88,-0.51,-0.06
2232590977,-0.88,-0.51,-0.06
2232592987,-0.88,-0.51,-0.06
2232594993,-0.88,-0.51,-0.06
2232596977,-0.87,-0.50,-0.04
2232598977,-0.87,-0.50,-0.04
2232601214,-0.87,-0.50,-0.04
2232603013,-0.87,-0.50,-0.04
2232604981,-0.87,-0.50,-0.04
2232606977,-0.88,-0.50,-0.05
2232608983,-0.88,-0.50,-0.05
2232611043,-0.88,-0.50,-0.05
2232613006,-0.88,-0.50,-0.05
2232615008,-0.88,-0.50,-0.05
2232617002,-0.87,-0.48,-0.04
2232619005,-0.87,-0.48,-0.04
2232621009,-0.87,-0.48,-0.04
2232623013,-0.87,-0.48,-0.04
2232625005,-0.87,-0.48,-0.04
2232627094,-0.88,-0.48,-0.02
2232628976,-0.88,-0.48,-0.02
2232630975,-0.88,-0.48,-0.02
2232632977,-0.88,-0.48,-0.02
2232634977,-0.88,-0.48,-0.02
2232636975,-0.88,-0.47,-0.01
2232638976,-0.88,-0.47,-0.01
2232640985,-0.88,-0.47,-0.01
2232642978,-0.88,-0.47,-0.01
2232644978,-0.88,-0.47,-0.01
2232646980,-0.89,-0.47,-0.02
2232648975,-0.89,-0.47,-0.02
2232651101,-0.89,-0.47,-0.02
2232653011,-0.89,-0.47,-0.02
2232655003,-0.89,-0.47,-0.02
2232657065,-0.88,-0.46,0.00
2232659045,-0.88,-0.46,0.00
2232661006,-0.88,-0.46,0.00
2232663029,-0.88,-0.46,0.00
2232665041,-0.88,-0.46,0.00
2232667002,-0.89,-0.47,0.01
2232669005,-0.89,-0.47,0.01
2232670977,-0.89,-0.47,0.01
2232672981,-0.89,-0.47,0.01
2232674979,-0.89,-0.47,0.01
2232677100,-0.88,-0.47,0.00
2232678976,-0.88,-0.47,0.00
2232680981,-0.88,-0.47,0.00
2232682980,-0.88,-0.47,0.00
2232684974,-0.88,-0.47,0.00
2232686974,-0.88,-0.47,0.01
2232688981,-0.88,-0.47,0.01
2232691006,-0.88,-0.47,0.01
2232693003,-0.88,-0.47,0.01
2232695022,-0.88,-0.47,0.01
2232697006,-0.89,-0.47,0.00
2232699010,-0.89,-0.47,0.00
2232701106,-0.89,-0.47,0.00
2232703016,-0.89,-0.47,0.00
2232704978,-0.89,-0.47,0.00
2232706984,-0.89,-0.46,-0.00
2232708980,-0.89,-0.46,-0.00
2232711014,-0.89,-0.46,-0.00
2232712977,-0.89,-0.46,-0.00
2232714980,-0.89,-0.46,-0.00
2232717068,-0.89,-0.46,0.00
2232719017,-0.89,-0.46,0.00
2232720977,-0.89,-0.46,0.00
2232722977,-0.89,-0.46,0.00
2232724977,-0.89,-0.46,0.00
2232727098,-0.90,-0.47,0.01
2232728975,-0.90,-0.47,0.01
2232731015,-0.90,-0.47,0.01
2232733009,-0.90,-0.47,0.01
2232734999,-0.90,-0.47,0.01
2232737004,-0.90,-0.45,0.00
2232739005,-0.90,-0.45,0.00
2232741000,-0.90,-0.45,0.00
2232743008,-0.90,-0.45,0.00
2232744980,-0.90,-0.45,0.00
2232746987,-0.88,-0.45,0.00
2232748984,-0.88,-0.45,0.00
2232751084,-0.88,-0.45,0.00
2232752987,-0.88,-0.45,0.00
2232754977,-0.88,-0.45,0.00
2232756976,-0.88,-0.45,0.01
2232758975,-0.88,-0.45,0.01
2232760979,-0.88,-0.45,0.01
2232762976,-0.88,-0.45,0.01
2232764979,-0.88,-0.45,0.01
2232766976,-0.88,-0.45,0.01
2232768979,-0.88,-0.45,0.01
2232771011,-0.88,-0.45,0.01
2232773002,-0.88,-0.45,0.01
2232775004,-0.88,-0.45,0.01
2232777103,-0.89,-0.46,0.01
2232779010,-0.89,-0.46,0.01
2232781008,-0.89,-0.46,0.01
2232783004,-0.89,-0.46,0.01
2232784980,-0.89,-0.46,0.01
2232786979,-0.89,-0.46,0.01
2232788980,-0.89,-0.47,0.01
2232790980,-0.89,-0.47,0.01
2232792981,-0.89,-0.47,0.01
2232794994,-0.89,-0.47,0.01
2232796978,-0.89,-0.47,0.01
2232798976,-0.91,-0.48,-0.00
2232801081,-0.91,-0.48,-0.00
2232802989,-0.91,-0.48,-0.00
2232804978,-0.91,-0.48,-0.00
2232806977,-0.91,-0.48,-0.00
2232808978,-0.89,-0.48,0.00
2232811045,-0.89,-0.48,0.00
2232813004,-0.89,-0.48,0.00
2232815008,-0.89,-0.48,0.00
2232817002,-0.89,-0.48,0.00
2232819039,-0.88,-0.48,0.01
2232821006,-0.88,-0.48,0.01
2232823005,-0.88,-0.48,0.01
2232825008,-0.88,-0.48,0.01
2232827092,-0.88,-0.48,0.01
2232828980,-0.86,-0.48,0.00
2232830979,-0.86,-0.48,0.00
2232832977,-0.86,-0.48,0.00
2232835038,-0.86,-0.48,0.00
2232836974,-0.86,-0.48,0.00
2232838975,-0.87,-0.49,0.01
2232840974,-0.87,-0.49,0.01
2232842977,-0.87,-0.49,0.01
2232844975,-0.87,-0.49,0.01
2232846973,-0.87,-0.49,0.01
2232848973,-0.88,-0.41,0.03
2232851114,-0.88,-0.41,0.03
2232853008,-0.88,-0.41,0.03
2232855001,-0.88,-0.41,0.03
2232857002,-0.88,-0.41,0.03
2232859004,-1.02,-0.53,-0.05
2232861001,-1.02,-0.53,-0.05
2232863004,-1.02,-0.53,-0.05
2232864981,-1.02,-0.53,-0.05
2232867029,-1.02,-0.53,-0.05
2232869014,-0.89,-0.39,-0.04
2232870978,-0.89,-0.39,-0.04
2232872977,-0.89,-0.39,-0.04
2232874974,-0.89,-0.39,-0.04
2232877101,-0.89,-0.39,-0.04
2232878980,-0.84,-0.41,0.08
2232880977,-0.84,-0.41,0.08
2232882977,-0.84,-0.41,0.08
2232884974,-0.84,-0.41,0.08
2232886979,-0.84,-0.41,0.08
2232889081,-0.92,-0.42,-0.16
2232891041,-0.92,-0.42,-0.16
2232893007,-0.92,-0.42,-0.16
2232895015,-0.92,-0.42,-0.16
2232897001,-0.92,-0.42,-0.16
2232899007,-0.96,-0.35,-0.01
2232901108,-0.96,-0.35,-0.01
2232903008,-0.96,-0.35,-0.01
2232905008,-0.96,-0.35,-0.01
2232906977,-0.96,-0.35,-0.01
2232908983,-0.89,-0.41,-0.02
2232911001,-0.89,-0.41,-0.02
2232912977,-0.89,-0.41,-0.02
2232914980,-0.89,-0.41,-0.02
2232916979,-0.89,-0.41,-0.02
2232918976,-1.07,-0.43,-0.05
2232920977,-1.07,-0.43,-0.05
2232922980,-1.07,-0.43,-0.05
2232924978,-1.07,-0.43,-0.05
2232927087,-1.07,-0.43,-0.05
2232928976,-0.97,-0.41,-0.04
2232931013,-0.97,-0.41,-0.04
2232933003,-0.97,-0.41,-0.04
2232935003,-0.97,-0.41,-0.04
2232937001,-0.97,-0.41,-0.04
2232939005,-1.02,-0.52,-0.03
2232941005,-1.02,-0.52,-0.03
2232943007,-1.02,-0.52,-0.03
2232944980,-1.02,-0.52,-0.03
2232946979,-1.02,-0.52,-0.03
2232949040,-1.05,-0.50,-0.09
2232951116,-1.05,-0.50,-0.09
2232952987,-1.05,-0.50,-0.09
2232954979,-1.05,-0.50,-0.09
2232956978,-1.05,-0.50,-0.09
2232958974,-1.02,-0.49,0.02
2232960975,-1.02,-0.49,0.02
2232962974,-1.02,-0.49,0.02
2232964976,-1.02,-0.49,0.02
2232966975,-1.02,-0.49,0.02
2232968974,-1.02,-0.49,0.02
2232971016,-1.11,-0.54,-0.02
2232973022,-1.11,-0.54,-0.02
2232975040,-1.11,-0.54,-0.02
2232977116,-1.11,-0.54,-0.02
2232979002,-1.11,-0.54,-0.02
2232981004,-1.05,-0.51,-0.08
2232983012,-1.05,-0.51,-0.08
2232985012,-1.05,-0.51,-0.08
2232986980,-1.05,-0.51,-0.08
2232988978,-1.05,-0.51,-0.08
2232990980,-1.15,-0.57,-0.04
2232992984,-1.15,-0.57,-0.04
2232994997,-1.15,-0.57,-0.04
2232996977,-1.15,-0.57,-0.04
2232998977,-1.15,-0.57,-0.04
2233001081,-1.02,-0.50,0.06
2233002986,-1.02,-0.50,0.06
2233004976,-1.02,-0.50,0.06
2233006978,-1.02,-0.50,0.06
2233008982,-1.02,-0.50,0.06
2233011108,-1.09,-0.59,0.01
2233013053,-1.09,-0.59,0.01
2233015009,-1.09,-0.59,0.01
2233017001,-1.09,-0.59,0.01
2233019004,-1.09,-0.59,0.01
2233021003,-1.09,-0.54,0.00
2233023006,-1.09,-0.54,0.00
2233025007,-1.09,-0.54,0.00
2233027115,-1.09,-0.54,0.00
2233028980,-1.09,-0.54,0.00
2233030980,-1.01,-0.54,0.05
2233032979,-1.01,-0.54,0.05
2233034978,-1.01,-0.54,0.05
2233036979,-1.01,-0.54,0.05
2233038976,-1.01,-0.54,0.05
2233040975,-1.05,-0.53,0.05
2233042981,-1.05,-0.53,0.05
2233044979,-1.05,-0.53,0.05
2233046980,-1.05,-0.53,0.05
2233048976,-1.05,-0.53,0.05
2233051057,-1.03,-0.55,-0.02
2233053013,-1.03,-0.55,-0.02
2233055002,-1.03,-0.55,-0.02
2233057003,-1.03,-0.55,-0.02
2233059004,-1.03,-0.55,-0.02
2233061004,-1.03,-0.55,0.03
2233063002,-1.03,-0.55,0.03
2233065004,-1.03,-0.55,0.03
2233067013,-1.03,-0.55,0.03
2233069052,-1.03,-0.55,0.03
2233071028,-0.92,-0.53,0.08
2233073026,-0.92,-0.53,0.08
2233074986,-0.92,-0.53,0.08
2233077097,-0.92,-0.53,0.08
2233078979,-0.92,-0.53,0.08
2233080979,-0.87,-0.52,-0.00
2233082978,-0.87,-0.52,-0.00
2233084977,-0.87,-0.52,-0.00
2233086979,-0.87,-0.52,-0.00
2233088977,-0.87,-0.52,-0.00
2233090975,-0.86,-0.44,0.26
2233093017,-0.86,-0.44,0.26
2233095015,-0.86,-0.44,0.26
2233097005,-0.86,-0.44,0.26
2233099006,-0.86,-0.44,0.26
2233101101,-0.83,-0.42,0.08
2233103010,-0.83,-0.42,0.08
2233105005,-0.83,-0.42,0.08
2233106975,-0.83,-0.42,0.08
2233108979,-0.83,-0.42,0.08
2233110982,-1.08,-0.50,-0.06
2233113009,-1.08,-0.50,-0.06
2233114980,-1.08,-0.50,-0.06
2233116979,-1.08,-0.50,-0.06
2233118978,-1.08,-0.50,-0.06
2233120976,-0.97,-0.54,-0.27
2233122987,-0.97,-0.54,-0.27
2233125137,-0.97,-0.54,-0.27
2233127131,-0.97,-0.54,-0.27
2233128977,-0.97,-0.54,-0.27
2233130979,-1.09,-0.54,0.11
2233133018,-1.09,-0.54,0.11
2233135004,-1.09,-0.54,0.11
2233137000,-1.09,-0.54,0.11
2233139009,-1.09,-0.54,0.11
2233141007,-0.95,-0.52,0.23
2233143005,-0.95,-0.52,0.23
2233145008,-0.95,-0.52,0.23
2233146980,-0.95,-0.52,0.23
2233148975,-0.95,-0.52,0.23
2233151080,-0.95,-0.52,0.23
2233152988,-0.94,-0.54,-0.02
2233154981,-0.94,-0.54,-0.02
2233156979,-0.94,-0.54,-0.02
2233158980,-0.94,-0.54,-0.02
2233160977,-0.94,-0.54,-0.02
2233162980,-1.21,-0.49,-0.13
2233164981,-1.21,-0.49,-0.13
2233166975,-1.21,-0.49,-0.13
2233168981,-1.21,-0.49,-0.13
2233170980,-1.21,-0.49,-0.13
2233173014,-0.89,-0.39,0.13
2233175004,-0.89,-0.39,0.13
2233177105,-0.89,-0.39,0.13
2233179007,-0.89,-0.39,0.13
2233181005,-0.89,-0.39,0.13
2233183002,-1.04,-0.47,0.02
2233185007,-1.04,-0.47,0.02
2233186979,-1.04,-0.47,0.02
2233188980,-1.04,-0.47,0.02
2233190979,-1.04,-0.47,0.02
2233192982,-1.13,-0.41,-0.05
2233194995,-1.13,-0.41,-0.05
2233196976,-1.13,-0.41,-0.05
2233198977,-1.13,-0.41,-0.05
2233201081,-1.13,-0.41,-0.05
2233202987,-0.85,-0.38,0.16
2233204981,-0.85,-0.38,0.16
2233206979,-0.85,-0.38,0.16
2233208977,-0.85,-0.38,0.16
2233210978,-0.85,-0.38,0.16
2233213043,-0.99,-0.42,-0.05
2233215006,-0.99,-0.42,-0.05
2233217006,-0.99,-0.42,-0.05
2233219006,-0.99,-0.42,-0.05
2233221037,-0.99,-0.42,-0.05
2233223008,-0.93,-0.38,0.24
2233225007,-0.93,-0.38,0.24
2233227122,-0.93,-0.38,0.24
2233228979,-0.93,-0.38,0.24
2233230982,-0.93,-0.38,0.24
2233232993,-0.62,-0.21,0.59
2233235047,-0.62,-0.21,0.59
2233236991,-0.62,-0.21,0.59
2233238977,-0.62,-0.21,0.59
2233240979,-0.62,-0.21,0.59
2233242977,-0.56,-0.22,0.63
2233244975,-0.56,-0.22,0.63
2233246977,-0.56,-0.22,0.63
2233248977,-0.56,-0.22,0.63
2233251088,-0.56,-0.22,0.63
2233253023,-0.59,-0.12,0.52
2233255008,-0.59,-0.12,0.52
2233257007,-0.59,-0.12,0.52
2233259005,-0.59,-0.12,0.52
2233261001,-0.59,-0.12,0.52
2233263005,-0.59,-0.22,0.04
2233265007,-0.59,-0.22,0.04
2233266978,-0.59,-0.22,0.04
2233268980,-0.59,-0.22,0.04
2233270982,-0.59,-0.22,0.04
2233272979,-0.73,-0.20,0.02
2233274981,-0.73,-0.20,0.02
2233277137,-0.73,-0.20,0.02
2233279013,-0.73,-0.20,0.02
2233280977,-0.73,-0.20,0.02
2233282974,-0.68,-0.34,-0.03
2233284973,-0.68,-0.34,-0.03
2233286975,-0.68,-0.34,-0.03
2233289081,-0.68,-0.34,-0.03
2233291009,-0.68,-0.34,-0.03
2233293018,-0.84,-0.37,-0.07
2233295012,-0.84,-0.37,-0.07
2233297006,-0.84,-0.37,-0.07
2233299008,-0.84,-0.37,-0.07
2233301107,-0.84,-0.37,-0.07
2233303005,-0.92,-0.51,-0.16
2233305005,-0.92,-0.51,-0.16
2233306980,-0.92,-0.51,-0.16
2233308980,-0.92,-0.51,-0.16
2233310984,-0.92,-0.51,-0.16
2233313009,-0.98,-0.50,-0.11
2233314978,-0.98,-0.50,-0.11
2233316977,-0.98,-0.50,-0.11
2233318975,-0.98,-0.50,-0.11
2233320981,-0.98,-0.50,-0.11
2233322975,-0.90,-0.59,-0.08
2233324977,-0.90,-0.59,-0.08
2233327088,-0.90,-0.59,-0.08
2233328974,-0.90,-0.59,-0.08
2233330979,-0.90,-0.59,-0.08
2233333040,-1.10,-0.53,0.20
2233335066,-1.10,-0.53,0.20
2233337031,-1.10,-0.53,0.20
2233339007,-1.10,-0.53,0.20
2233341005,-1.10,-0.53,0.20
2233343002,-1.10,-0.53,0.20
2233345007,-0.78,-0.47,-0.30
2233347005,-0.78,-0.47,-0.30
2233348995,-0.78,-0.47,-0.30
2233351091,-0.78,-0.47,-0.30
2233352991,-0.78,-0.47,-0.30
2233354979,-1.09,-0.56,-0.26
2233356984,-1.09,-0.56,-0.26
2233358981,-1.09,-0.56,-0.26
2233360979,-1.09,-0.56,-0.26
2233362981,-1.09,-0.56,-0.26
2233364979,-0.63,-0.35,-0.17
2233366981,-0.63,-0.35,-0.17
2233368976,-0.63,-0.35,-0.17
2233370978,-0.63,-0.35,-0.17
2233373007,-0.63,-0.35,-0.17
2233375007,-0.73,-0.54,-0.09
2233377108,-0.73,-0.54,-0.09
2233379007,-0.73,-0.54,-0.09
2233381059,-0.73,-0.54,-0.09
2233383037,-0.73,-0.54,-0.09
2233385009,-0.59,-0.39,-0.07
2233387006,-0.59,-0.39,-0.07
2233389012,-0.59,-0.39,-0.07
2233390981,-0.59,-0.39,-0.07
2233392980,-0.59,-0.39,-0.07
2233394989,-0.55,-0.42,-0.04
2233396976,-0.55,-0.42,-0.04
2233398974,-0.55,-0.42,-0.04
2233401098,-0.55,-0.42,-0.04
2233402989,-0.55,-0.42,-0.04
2233404978,-0.48,-0.39,0.02
2233406977,-0.48,-0.39,0.02
2233408979,-0.48,-0.39,0.02
2233410979,-0.48,-0.39,0.02
2233413042,-0.48,-0.39,0.02
2233415006,-0.50,-0.46,-0.14
2233417004,-0.50,-0.46,-0.14
2233419003,-0.50,-0.46,-0.14
2233421005,-0.50,-0.46,-0.14
2233423005,-0.50,-0.46,-0.14
2233425004,-0.66,-0.51,-0.27
2233427094,-0.66,-0.51,-0.27
2233428978,-0.66,-0.51,-0.27
2233431070,-0.66,-0.51,-0.27
2233433021,-0.66,-0.51,-0.27
2233434979,-0.52,-0.47,-0.20
2233436978,-0.52,-0.47,-0.20
2233438975,-0.52,-0.47,-0.20
2233440979,-0.52,-0.47,-0.20
2233442980,-0.52,-0.47,-0.20
2233444979,-0.62,-0.55,-0.27
2233446976,-0.62,-0.55,-0.27
2233448979,-0.62,-0.55,-0.27
2233451087,-0.62,-0.55,-0.27
2233453024,-0.62,-0.55,-0.27
2233455004,-0.67,-0.53,-0.33
2233457002,-0.67,-0.53,-0.33
2233459003,-0.67,-0.53,-0.33
2233461007,-0.67,-0.53,-0.33
2233463008,-0.67,-0.53,-0.33
2233465005,-0.66,-0.59,-0.34
2233466983,-0.66,-0.59,-0.34
2233468985,-0.66,-0.59,-0.34
2233470981,-0.66,-0.59,-0.34
2233472975,-0.66,-0.59,-0.34
2233474976,-0.71,-0.63,-0.35
2233477079,-0.71,-0.63,-0.35
2233478979,-0.71,-0.63,-0.35
2233481026,-0.71,-0.63,-0.35
2233483025,-0.71,-0.63,-0.35
2233484978,-0.65,-0.54,-0.20
2233486979,-0.65,-0.54,-0.20
2233488977,-0.65,-0.54,-0.20
2233491031,-0.65,-0.54,-0.20
2233493030,-0.65,-0.54,-0.20
2233495023,-0.60,-0.54,-0.12
2233497001,-0.60,-0.54,-0.12
2233499004,-0.60,-0.54,-0.12
2233501115,-0.60,-0.54,-0.12
2233503008,-0.60,-0.54,-0.12
2233505006,-0.66,-0.46,-0.17
2233507004,-0.66,-0.46,-0.17
2233508977,-0.66,-0.46,-0.17
2233510986,-0.66,-0.46,-0.17
2233513009,-0.66,-0.46,-0.17
2233514974,-0.70,-0.45,-0.01
2233516982,-0.70,-0.45,-0.01
2233518979,-0.70,-0.45,-0.01
2233520976,-0.70,-0.45,-0.01
2233522975,-0.70,-0.45,-0.01
2233524976,-0.70,-0.45,-0.01
2233527091,-0.77,-0.46,-0.04
2233528979,-0.77,-0.46,-0.04
2233530976,-0.77,-0.46,-0.04
2233533021,-0.77,-0.46,-0.04
2233535007,-0.77,-0.46,-0.04
2233537067,-0.84,-0.44,-0.09
2233539040,-0.84,-0.44,-0.09
2233541006,-0.84,-0.44,-0.09
2233543001,-0.84,-0.44,-0.09
2233545004,-0.84,-0.44,-0.09
2233547005,-0.93,-0.38,-0.09
2233549009,-0.93,-0.38,-0.09
2233551092,-0.93,-0.38,-0.09
2233552987,-0.93,-0.38,-0.09
2233554978,-0.93,-0.38,-0.09
2233556977,-0.93,-0.34,0.08
2233558978,-0.93,-0.34,0.08
2233560984,-0.93,-0.34,0.08
2233562977,-0.93,-0.34,0.08
2233564977,-0.93,-0.34,0.08
2233566980,-0.91,-0.30,0.12
2233568978,-0.91,-0.30,0.12
2233570977,-0.91,-0.30,0.12
2233573013,-0.91,-0.30,0.12
2233575005,-0.91,-0.30,0.12
2233577106,-1.01,-0.27,0.07
2233579009,-1.01,-0.27,0.07
2233581007,-1.01,-0.27,0.07
2233583007,-1.01,-0.27,0.07
2233585009,-1.01,-0.27,0.07
2233586978,-0.90,-0.24,0.09
2233588980,-0.90,-0.24,0.09
2233590978,-0.90,-0.24,0.09
2233592983,-0.90,-0.24,0.09
2233594993,-0.90,-0.24,0.09
2233596975,-0.95,-0.37,0.12
2233598988,-0.95,-0.37,0.12
2233601085,-0.95,-0.37,0.12
2233602990,-0.95,-0.37,0.12
2233604976,-0.95,-0.37,0.12
2233606977,-0.81,-0.34,0.11
2233608977,-0.81,-0.34,0.11
2233610975,-0.81,-0.34,0.11
2233613040,-0.81,-0.34,0.11
2233615001,-0.81,-0.34,0.11
2233617000,-0.88,-0.45,0.13
2233619003,-0.88,-0.45,0.13
2233621004,-0.88,-0.45,0.13
2233623013,-0.88,-0.45,0.13
2233625039,-0.88,-0.45,0.13
2233627151,-0.83,-0.45,0.09
2233629011,-0.83,-0.45,0.09
2233631040,-0.83,-0.45,0.09
2233632976,-0.83,-0.45,0.09
2233634976,-0.83,-0.45,0.09
2233636975,-0.94,-0.51,0.00
2233638972,-0.94,-0.51,0.00
2233640975,-0.94,-0.51,0.00
2233642973,-0.94,-0.51,0.00
2233644975,-0.94,-0.51,0.00
2233646976,-0.93,-0.49,-0.00
2233648976,-0.93,-0.49,-0.00
2233651090,-0.93,-0.49,-0.00
2233653024,-0.93,-0.49,-0.00
2233655000,-0.93,-0.49,-0.00
2233657004,-0.93,-0.51,0.07
2233659006,-0.93,-0.51,0.07
2233661005,-0.93,-0.51,0.07
2233663004,-0.93,-0.51,0.07
2233665006,-0.93,-0.51,0.07
2233666980,-0.95,-0.53,0.07
2233668979,-0.95,-0.53,0.07
2233670978,-0.95,-0.53,0.07
2233672979,-0.95,-0.53,0.07
2233674979,-0.95,-0.53,0.07
2233677082,-0.96,-0.50,0.08
2233679065,-0.96,-0.50,0.08
2233681019,-0.96,-0.50,0.08
2233682979,-0.96,-0.50,0.08
2233684977,-0.96,-0.50,0.08
2233686988,-0.93,-0.53,0.15
2233689008,-0.93,-0.53,0.15
2233690976,-0.93,-0.53,0.15
2233693020,-0.93,-0.53,0.15
2233695020,-0.93,-0.53,0.15
2233697006,-0.91,-0.43,0.10
2233699006,-0.91,-0.43,0.10
2233701114,-0.91,-0.43,0.10
2233703008,-0.91,-0.43,0.10
2233705006,-0.91,-0.43,0.10
2233706974,-0.92,-0.46,0.12
2233708973,-0.92,-0.46,0.12
2233710978,-0.92,-0.46,0.12
2233713018,-0.92,-0.46,0.12
2233714977,-0.92,-0.46,0.12
2233716977,-0.92,-0.46,0.12
2233718979,-0.87,-0.43,0.14
2233720977,-0.87,-0.43,0.14
2233722976,-0.87,-0.43,0.14
2233724976,-0.87,-0.43,0.14
2233727083,-0.87,-0.43,0.14
2233728993,-0.89,-0.43,0.14
2233731096,-0.89,-0.43,0.14
2233733036,-0.89,-0.43,0.14
2233735008,-0.89,-0.43,0.14
2233737004,-0.89,-0.43,0.14
2233739006,-0.97,-0.42,0.12
2233741006,-0.97,-0.42,0.12
2233743001,-0.97,-0.42,0.12
2233745009,-0.97,-0.42,0.12
2233746979,-0.97,-0.42,0.12
2233748980,-1.00,-0.40,0.09
2233751094,-1.00,-0.40,0.09
2233752987,-1.00,-0.40,0.09
2233754976,-1.00,-0.40,0.09
2233756976,-1.00,-0.40,0.09
2233758977,-1.06,-0.41,0.10
2233760984,-1.06,-0.41,0.10
2233762979,-1.06,-0.41,0.10
2233764980,-1.06,-0.41,0.10
2233766984,-1.06,-0.41,0.10
2233768984,-1.06,-0.40,0.12
2233770985,-1.06,-0.40,0.12
2233773010,-1.06,-0.40,0.12
2233775008,-1.06,-0.40,0.12
2233777106,-1.06,-0.40,0.12
2233779003,-1.11,-0.39,0.14
2233781002,-1.11,-0.39,0.14
2233783005,-1.11,-0.39,0.14
2233785008,-1.11,-0.39,0.14
2233786980,-1.11,-0.39,0.14
2233788980,-1.07,-0.36,0.18
2233790981,-1.07,-0.36,0.18
2233793019,-1.07,-0.36,0.18
2233795058,-1.07,-0.36,0.18
2233797029,-1.07,-0.36,0.18
2233798976,-1.04,-0.37,0.16
2233801092,-1.04,-0.37,0.16
2233802987,-1.04,-0.37,0.16
2233804977,-1.04,-0.37,0.16
2233806977,-1.04,-0.37,0.16
2233808976,-1.03,-0.33,0.16
2233810978,-1.03,-0.33,0.16
2233813047,-1.03,-0.33,0.16
2233815003,-1.03,-0.33,0.16
2233817002,-1.03,-0.33,0.16
2233819006,-0.99,-0.34,0.14
2233821005,-0.99,-0.34,0.14
2233823004,-0.99,-0.34,0.14
2233825008,-0.99,-0.34,0.14
2233827089,-0.99,-0.34,0.14
2233828979,-1.00,-0.33,0.14
2233830974,-1.00,-0.33,0.14
2233832981,-1.00,-0.33,0.14
2233834979,-1.00,-0.33,0.14
2233836978,-1.00,-0.33,0.14
2233838980,-1.01,-0.32,0.12
2233840979,-1.01,-0.32,0.12
2233842977,-1.01,-0.32,0.12
2233844976,-1.01,-0.32,0.12
2233846978,-1.01,-0.32,0.12
2233848982,-1.02,-0.34,0.12
2233851216,-1.02,-0.34,0.12
2233853036,-1.02,-0.34,0.12
2233855006,-1.02,-0.34,0.12
2233857006,-1.02,-0.34,0.12
2233859004,-1.04,-0.32,0.13
2233861005,-1.04,-0.32,0.13
2233863009,-1.04,-0.32,0.13
2233865007,-1.04,-0.32,0.13
2233867006,-1.04,-0.32,0.13
2233868977,-1.03,-0.32,0.13
2233870977,-1.03,-0.32,0.13
2233872980,-1.03,-0.32,0.13
2233874977,-1.03,-0.32,0.13
2233877089,-1.03,-0.32,0.13
2233878979,-1.03,-0.32,0.18
2233880979,-1.03,-0.32,0.18
2233882978,-1.03,-0.32,0.18
2233884977,-1.03,-0.32,0.18
2233886979,-1.03,-0.32,0.18
2233888977,-1.00,-0.33,0.19
2233890985,-1.00,-0.33,0.19
2233893058,-1.00,-0.33,0.19
2233895014,-1.00,-0.33,0.19
2233897102,-1.00,-0.33,0.19
2233899040,-0.98,-0.34,0.18
2233901106,-0.98,-0.34,0.18
2233903006,-0.98,-0.34,0.18
2233905003,-0.98,-0.34,0.18
2233907004,-0.98,-0.34,0.18
2233909005,-0.98,-0.34,0.18
2233911006,-0.96,-0.35,0.14
2233913009,-0.96,-0.35,0.14
2233914979,-0.96,-0.35,0.14
2233916977,-0.96,-0.35,0.14
2233918976,-0.96,-0.35,0.14
2233920977,-0.95,-0.36,0.12
2233922976,-0.95,-0.36,0.12
2233924980,-0.95,-0.36,0.12
2233927092,-0.95,-0.36,0.12
2233928977,-0.95,-0.36,0.12
2233930974,-0.95,-0.39,0.10
2233933014,-0.95,-0.39,0.10
2233935001,-0.95,-0.39,0.10
2233937004,-0.95,-0.39,0.10
2233938999,-0.95,-0.39,0.10
2233941006,-0.95,-0.40,0.07
2233943063,-0.95,-0.40,0.07
2233945046,-0.95,-0.40,0.07
2233947006,-0.95,-0.40,0.07
2233949014,-0.95,-0.40,0.07
2233951092,-0.95,-0.40,0.07
2233952987,-0.95,-0.40,0.07
2233954980,-0.95,-0.40,0.07
2233956978,-0.95,-0.40,0.07
2233958979,-0.95,-0.40,0.07
2233960977,-0.94,-0.38,0.07
2233962981,-0.94,-0.38,0.07
2233964979,-0.94,-0.38,0.07
2233966980,-0.94,-0.38,0.07
2233968977,-0.94,-0.38,0.07
2233970979,-0.95,-0.38,0.09
2233973013,-0.95,-0.38,0.09
2233975005,-0.95,-0.38,0.09
2233977105,-0.95,-0.38,0.09
2233979003,-0.95,-0.38,0.09
2233981006,-0.92,-0.38,0.11
2233983015,-0.92,-0.38,0.11
2233985008,-0.92,-0.38,0.11
2233986981,-0.92,-0.38,0.11
2233988979,-0.92,-0.38,0.11
2233990977,-0.92,-0.36,0.14
2233992989,-0.92,-0.36,0.14
2233994992,-0.92,-0.36,0.14
2233996977,-0.92,-0.36,0.14
2233998975,-0.92,-0.36,0.14
2234001083,-0.91,-0.35,0.16
2234002987,-0.91,-0.35,0.16
2234004976,-0.91,-0.35,0.16
2234006977,-0.91,-0.35,0.16
2234008978,-0.91,-0.35,0.16
2234010983,-0.90,-0.34,0.14
2234013051,-0.90,-0.34,0.14
2234015004,-0.90,-0.34,0.14
2234017005,-0.90,-0.34,0.14
2234019004,-0.90,-0.34,0.14
2234021007,-0.90,-0.33,0.14
2234023006,-0.90,-0.33,0.14
2234025010,-0.90,-0.33,0.14
2234027090,-0.90,-0.33,0.14
2234028980,-0.90,-0.33,0.14
2234030980,-0.89,-0.34,0.17
2234033068,-0.89,-0.34,0.17
2234035020,-0.89,-0.34,0.17
2234036975,-0.89,-0.34,0.17
2234038977,-0.89,-0.34,0.17
2234040974,-0.91,-0.35,0.18
2234042975,-0.91,-0.35,0.18
2234044975,-0.91,-0.35,0.18
2234046976,-0.91,-0.35,0.18
2234048975,-0.91,-0.35,0.18
2234051088,-0.95,-0.36,0.19
2234053023,-0.95,-0.36,0.19
2234055004,-0.95,-0.36,0.19
2234057006,-0.95,-0.36,0.19
2234059009,-0.95,-0.36,0.19
2234061005,-0.97,-0.37,0.20
2234063004,-0.97,-0.37,0.20
2234065006,-0.97,-0.37,0.20
2234066978,-0.97,-0.37,0.20
2234068979,-0.97,-0.37,0.20
2234070979,-0.95,-0.36,0.21
2234072979,-0.95,-0.36,0.21
2234074984,-0.95,-0.36,0.21
2234077082,-0.95,-0.36,0.21
2234078979,-0.95,-0.36,0.21
2234080976,-0.95,-0.36,0.21
2234082997,-0.93,-0.37,0.20
2234085122,-0.93,-0.37,0.20
2234087013,-0.93,-0.37,0.20
2234088976,-0.93,-0.37,0.20
2234090984,-0.93,-0.37,0.20
2234093022,-0.90,-0.35,0.18
2234095017,-0.90,-0.35,0.18
2234097042,-0.90,-0.35,0.18
2234099011,-0.90,-0.35,0.18
2234101107,-0.90,-0.35,0.18
2234103004,-0.86,-0.33,0.19
2234105005,-0.86,-0.33,0.19
2234107004,-0.86,-0.33,0.19
2234108979,-0.86,-0.33,0.19
2234110981,-0.86,-0.33,0.19
2234113022,-0.85,-0.32,0.15
2234114976,-0.85,-0.32,0.15
2234116980,-0.85,-0.32,0.15
2234118979,-0.85,-0.32,0.15
2234120977,-0.85,-0.32,0.15
2234122978,-0.84,-0.29,0.13
2234124980,-0.84,-0.29,0.13
2234127085,-0.84,-0.29,0.13
2234128978,-0.84,-0.29,0.13
2234131114,-0.84,-0.29,0.13
2234133041,-0.84,-0.29,0.12
2234135005,-0.84,-0.29,0.12
2234137004,-0.84,-0.29,0.12
2234139005,-0.84,-0.29,0.12
2234141006,-0.84,-0.29,0.12
2234143007,-0.84,-0.30,0.11
2234145009,-0.84,-0.30,0.11
2234146974,-0.84,-0.30,0.11
2234148977,-0.84,-0.30,0.11
2234151092,-0.84,-0.30,0.11
2234152988,-0.89,-0.29,0.12
2234154975,-0.89,-0.29,0.12
2234156974,-0.89,-0.29,0.12
2234158975,-0.89,-0.29,0.12
2234160978,-0.89,-0.29,0.12
2234162974,-0.91,-0.28,0.12
2234164981,-0.91,-0.28,0.12
2234166980,-0.91,-0.28,0.12
2234168979,-0.91,-0.28,0.12
2234170977,-0.91,-0.28,0.12
2234173010,-0.93,-0.29,0.12
2234175004,-0.93,-0.29,0.12
2234177099,-0.93,-0.29,0.12
2234179019,-0.93,-0.29,0.12
2234181064,-0.93,-0.29,0.12
2234183044,-0.96,-0.30,0.12
2234185007,-0.96,-0.30,0.12
2234187004,-0.96,-0.30,0.12
2234189013,-0.96,-0.30,0.12
2234190977,-0.96,-0.30,0.12
2234192982,-0.95,-0.32,0.12
2234194992,-0.95,-0.32,0.12
2234196977,-0.95,-0.32,0.12
2234198986,-0.95,-0.32,0.12
2234201116,-0.95,-0.32,0.12
2234202987,-0.97,-0.33,0.12
2234204979,-0.97,-0.33,0.12
2234206978,-0.97,-0.33,0.12
2234208977,-0.97,-0.33,0.12
2234210977,-0.97,-0.33,0.12
2234213056,-0.97,-0.34,0.11
2234215005,-0.97,-0.34,0.11
2234217006,-0.97,-0.34,0.11
2234219005,-0.97,-0.34,0.11
2234221008,-0.97,-0.34,0.11
2234223008,-0.98,-0.36,0.11
2234225038,-0.98,-0.36,0.11
2234227182,-0.98,-0.36,0.11
2234229058,-0.98,-0.36,0.11
2234231033,-0.98,-0.36,0.11
2234232988,-0.98,-0.35,0.11
2234234974,-0.98,-0.35,0.11
2234236976,-0.98,-0.35,0.11
2234238976,-0.98,-0.35,0.11
2234240975,-0.98,-0.35,0.11
2234242976,-0.98,-0.36,0.12
2234244975,-0.98,-0.36,0.12
2234246974,-0.98,-0.36,0.12
2234248976,-0.98,-0.36,0.12
2234251091,-0.98,-0.36,0.12
2234253026,-1.01,-0.38,0.15
2234255004,-1.01,-0.38,0.15
2234257003,-1.01,-0.38,0.15
2234259005,-1.01,-0.38,0.15
2234260999,-1.01,-0.38,0.15
2234263006,-1.04,-0.39,0.16
2234265009,-1.04,-0.39,0.16
2234266981,-1.04,-0.39,0.16
2234268980,-1.04,-0.39,0.16
2234270977,-1.04,-0.39,0.16
2234272979,-1.04,-0.39,0.16
2234274976,-1.06,-0.41,0.16
2234277082,-1.06,-0.41,0.16
2234278976,-1.06,-0.41,0.16
2234280975,-1.06,-0.41,0.16
2234282977,-1.06,-0.41,0.16
2234284973,-1.06,-0.43,0.15
2234286979,-1.06,-0.43,0.15
2234289065,-1.06,-0.43,0.15
2234291018,-1.06,-0.43,0.15
2234293020,-1.06,-0.43,0.15
2234295016,-1.05,-0.43,0.13
2234297003,-1.05,-0.43,0.13
2234299005,-1.05,-0.43,0.13
2234301115,-1.05,-0.43,0.13
2234303056,-1.05,-0.43,0.13
2234305003,-1.02,-0.44,0.12
2234307008,-1.02,-0.44,0.12
2234308978,-1.02,-0.44,0.12
2234310982,-1.02,-0.44,0.12
2234313010,-1.02,-0.44,0.12
2234314977,-1.01,-0.44,0.10
2234316974,-1.01,-0.44,0.10
2234318981,-1.01,-0.44,0.10
2234320980,-1.01,-0.44,0.10
2234322976,-1.01,-0.44,0.10
2234324976,-1.00,-0.42,0.09
2234327100,-1.00,-0.42,0.09
2234328979,-1.00,-0.42,0.09
2234330972,-1.00,-0.42,0.09
2234333039,-1.00,-0.42,0.09
2234335066,-1.00,-0.40,0.08
2234337038,-1.00,-0.40,0.08
2234339008,-1.00,-0.40,0.08
2234340999,-1.00,-0.40,0.08
2234343002,-1.00,-0.40,0.08
2234345008,-0.98,-0.40,0.09
2234347002,-0.98,-0.40,0.09
2234349005,-0.98,-0.40,0.09
2234351093,-0.98,-0.40,0.09
2234352990,-0.98,-0.40,0.09
2234354977,-0.96,-0.41,0.11
2234356977,-0.96,-0.41,0.11
2234358975,-0.96,-0.41,0.11
2234360979,-0.96,-0.41,0.11
2234362976,-0.96,-0.41,0.11
2234364980,-0.97,-0.42,0.12
2234366976,-0.97,-0.42,0.12
2234368980,-0.97,-0.42,0.12
2234370976,-0.97,-0.42,0.12
2234373013,-0.97,-0.42,0.12
2234375002,-0.98,-0.40,0.13
2234377104,-0.98,-0.40,0.13
2234379004,-0.98,-0.40,0.13
2234381009,-0.98,-0.40,0.13
2234383009,-0.98,-0.40,0.13
2234385012,-0.99,-0.40,0.14
2234386980,-0.99,-0.40,0.14
2234388975,-0.99,-0.40,0.14
2234390978,-0.99,-0.40,0.14
2234392980,-0.99,-0.40,0.14
2234394992,-0.98,-0.40,0.15
2234396976,-0.98,-0.40,0.15
2234398977,-0.98,-0.40,0.15
2234401084,-0.98,-0.40,0.15
2234402987,-0.98,-0.40,0.15
2234404976,-0.96,-0.38,0.16
2234406979,-0.96,-0.38,0.16
2234408978,-0.96,-0.38,0.16
2234410978,-0.96,-0.38,0.16
2234413043,-0.96,-0.38,0.16
2234415005,-0.95,-0.35,0.17
2234417002,-0.95,-0.35,0.17
2234419006,-0.95,-0.35,0.17
2234421007,-0.95,-0.35,0.17
2234423104,-0.95,-0.35,0.17
2234425031,-0.95,-0.33,0.19
2234427124,-0.95,-0.33,0.19
2234428984,-0.95,-0.33,0.19
2234431040,-0.95,-0.33,0.19
2234433006,-0.95,-0.33,0.19
2234434976,-0.95,-0.31,0.18
2234436976,-0.95,-0.31,0.18
2234438977,-0.95,-0.31,0.18
2234440974,-0.95,-0.31,0.18
2234442976,-0.95,-0.31,0.18
2234444976,-0.95,-0.29,0.17
2234446973,-0.95,-0.29,0.17
2234448977,-0.95,-0.29,0.17
2234451089,-0.95,-0.29,0.17
2234453027,-0.95,-0.29,0.17
2234455006,-0.95,-0.29,0.17
2234457008,-0.94,-0.29,0.21
2234459008,-0.94,-0.29,0.21
2234461004,-0.94,-0.29,0.21
2234463001,-0.94,-0.29,0.21
2234465004,-0.94,-0.29,0.21
2234466979,-0.93,-0.28,0.23
2234468979,-0.93,-0.28,0.23
2234470977,-0.93,-0.28,0.23
2234472979,-0.93,-0.28,0.23
2234474979,-0.93,-0.28,0.23
2234477086,-0.93,-0.29,0.21
2234478976,-0.93,-0.29,0.21
2234480983,-0.93,-0.29,0.21
2234482993,-0.93,-0.29,0.21
2234484979,-0.93,-0.29,0.21
2234486978,-0.95,-0.30,0.23
2234488977,-0.95,-0.30,0.23
2234490996,-0.95,-0.30,0.23
2234493070,-0.95,-0.30,0.23
2234495028,-0.95,-0.30,0.23
2234497017,-0.98,-0.30,0.24
2234499003,-0.98,-0.30,0.24
2234501110,-0.98,-0.30,0.24
2234503014,-0.98,-0.30,0.24
2234505000,-0.98,-0.30,0.24
2234507049,-0.98,-0.31,0.22
2234509002,-0.98,-0.31,0.22
2234511006,-0.98,-0.31,0.22
2234513012,-0.98,-0.31,0.22
2234514976,-0.98,-0.31,0.22
2234516986,-1.01,-0.33,0.21
2234518979,-1.01,-0.33,0.21
2234520976,-1.01,-0.33,0.21
2234522975,-1.01,-0.33,0.21
2234524977,-1.01,-0.33,0.21
2234527095,-0.98,-0.33,0.22
2234528975,-0.98,-0.33,0.22
2234530974,-0.98,-0.33,0.22
2234532974,-0.98,-0.33,0.22
2234535023,-0.98,-0.33,0.22
2234537001,-0.97,-0.33,0.19
2234539061,-0.97,-0.33,0.19
2234541037,-0.97,-0.33,0.19
2234543006,-0.97,-0.33,0.19
2234545005,-0.97,-0.33,0.19
2234547007,-0.95,-0.34,0.14
2234549001,-0.95,-0.34,0.14
2234551110,-0.95,-0.34,0.14
2234552990,-0.95,-0.34,0.14
2234554976,-0.95,-0.34,0.14
2234556976,-0.95,-0.35,0.14
2234558981,-0.95,-0.35,0.14
2234560978,-0.95,-0.35,0.14
2234562977,-0.95,-0.35,0.14
2234564980,-0.95,-0.35,0.14
2234566979,-0.95,-0.36,0.12
2234568977,-0.95,-0.36,0.12
2234570978,-0.95,-0.36,0.12
2234572980,-0.95,-0.36,0.12
2234575011,-0.95,-0.36,0.12
2234577107,-0.98,-0.34,0.12
2234579004,-0.98,-0.34,0.12
2234581017,-0.98,-0.34,0.12
2234583008,-0.98,-0.34,0.12
2234585006,-0.98,-0.34,0.12
2234587010,-1.02,-0.36,0.05
2234588977,-1.02,-0.36,0.05
2234590981,-1.02,-0.36,0.05
2234592995,-1.02,-0.36,0.05
2234595059,-1.02,-0.36,0.05
2234597023,-0.98,-0.34,0.09
2234598979,-0.98,-0.34,0.09
2234601089,-0.98,-0.34,0.09
2234602991,-0.98,-0.34,0.09
2234604975,-0.98,-0.34,0.09
2234606979,-1.01,-0.36,0.12
2234609017,-1.01,-0.36,0.12
2234610979,-1.01,-0.36,0.12
2234613017,-1.01,-0.36,0.12
2234615026,-1.01,-0.36,0.12
2234617005,-0.97,-0.35,0.04
2234619005,-0.97,-0.35,0.04
2234621007,-0.97,-0.35,0.04
2234623011,-0.97,-0.35,0.04
2234625006,-0.97,-0.35,0.04
2234627115,-0.96,-0.37,0.05
2234628993,-0.96,-0.37,0.05
2234630979,-0.96,-0.37,0.05
2234632980,-0.96,-0.37,0.05
2234634979,-0.96,-0.37,0.05
2234636977,-0.90,-0.37,0.09
2234638977,-0.90,-0.37,0.09
2234640985,-0.90,-0.37,0.09
2234642981,-0.90,-0.37,0.09
2234644982,-0.90,-0.37,0.09
2234647154,-0.88,-0.37,0.07
2234649017,-0.88,-0.37,0.07
2234651088,-0.88,-0.37,0.07
2234652989,-0.88,-0.37,0.07
2234655020,-0.88,-0.37,0.07
2234657006,-0.88,-0.37,0.07
2234659005,-0.88,-0.35,0.04
2234661005,-0.88,-0.35,0.04
2234663004,-0.88,-0.35,0.04
2234665005,-0.88,-0.35,0.04
2234667007,-0.88,-0.35,0.04
2234668980,-0.89,-0.36,0.06
2234670976,-0.89,-0.36,0.06
2234672981,-0.89,-0.36,0.06
2234674979,-0.89,-0.36,0.06
2234677084,-0.89,-0.36,0.06
2234678977,-0.90,-0.36,0.09
2234680984,-0.90,-0.36,0.09
2234682979,-0.90,-0.36,0.09
2234684976,-0.90,-0.36,0.09
2234686979,-0.90,-0.36,0.09
2234688976,-0.94,-0.36,0.10
2234690980,-0.94,-0.36,0.10
2234693002,-0.94,-0.36,0.10
2234695058,-0.94,-0.36,0.10
2234697038,-0.94,-0.36,0.10
2234699007,-0.96,-0.36,0.09
2234701107,-0.96,-0.36,0.09
2234703004,-0.96,-0.36,0.09
2234705006,-0.96,-0.36,0.09
2234707006,-0.96,-0.36,0.09
2234709000,-0.95,-0.37,0.13
2234711008,-0.95,-0.37,0.13
2234713050,-0.95,-0.37,0.13
2234714977,-0.95,-0.37,0.13
2234716976,-0.95,-0.37,0.13
2234718976,-0.91,-0.36,0.16
2234720977,-0.91,-0.36,0.16
2234722974,-0.91,-0.36,0.16
2234724981,-0.91,-0.36,0.16
2234727087,-0.91,-0.36,0.16
2234728980,-0.98,-0.38,0.18
2234730979,-0.98,-0.38,0.18
2234732990,-0.98,-0.38,0.18
2234734977,-0.98,-0.38,0.18
2234737015,-0.98,-0.38,0.18
2234739003,-0.86,-0.34,0.16
2234741047,-0.86,-0.34,0.16
2234743033,-0.86,-0.34,0.16
2234745013,-0.86,-0.34,0.16
2234747002,-0.86,-0.34,0.16
2234749003,-0.89,-0.36,0.18
2234751115,-0.89,-0.36,0.18
2234753016,-0.89,-0.36,0.18
2234754978,-0.89,-0.36,0.18
2234756979,-0.89,-0.36,0.18
2234758980,-0.86,-0.33,0.15
2234760979,-0.86,-0.33,0.15
2234762975,-0.86,-0.33,0.15
2234764975,-0.86,-0.33,0.15
2234766981,-0.86,-0.33,0.15
2234768979,-0.87,-0.32,0.16
2234770979,-0.87,-0.32,0.16
2234772974,-0.87,-0.32,0.16
2234774976,-0.87,-0.32,0.16
2234777111,-0.87,-0.32,0.16
2234779007,-0.88,-0.31,0.20
2234781007,-0.88,-0.31,0.20
2234783007,-0.88,-0.31,0.20
2234785009,-0.88,-0.31,0.20
2234787005,-0.88,-0.31,0.20
2234789009,-0.88,-0.33,0.16
2234790979,-0.88,-0.33,0.16
2234792983,-0.88,-0.33,0.16
2234794990,-0.88,-0.33,0.16
2234796976,-0.88,-0.33,0.16
2234798974,-0.89,-0.33,0.15
2234801079,-0.89,-0.33,0.15
2234802987,-0.89,-0.33,0.15
2234804977,-0.89,-0.33,0.15
2234806978,-0.89,-0.33,0.15
2234808979,-0.88,-0.36,0.17
2234810981,-0.88,-0.36,0.17
2234813010,-0.88,-0.36,0.17
2234814974,-0.88,-0.36,0.17
2234817021,-0.88,-0.36,0.17
2234819008,-0.89,-0.36,0.18
2234821005,-0.89,-0.36,0.18
2234823006,-0.89,-0.36,0.18
2234824999,-0.89,-0.36,0.18
2234827115,-0.89,-0.36,0.18
2234829055,-0.88,-0.37,0.16
2234831033,-0.88,-0.37,0.16
2234833021,-0.88,-0.37,0.16
2234834980,-0.88,-0.37,0.16
2234836979,-0.88,-0.37,0.16
2234838975,-0.88,-0.37,0.16
2234840979,-0.89,-0.37,0.15
2234842979,-0.89,-0.37,0.15
2234844986,-0.89,-0.37,0.15
2234846980,-0.89,-0.37,0.15
2234848976,-0.89,-0.37,0.15
2234851096,-0.87,-0.37,0.16
2234852989,-0.87,-0.37,0.16
2234854980,-0.87,-0.37,0.16
2234857012,-0.87,-0.37,0.16
2234859004,-0.87,-0.37,0.16
2234861003,-0.85,-0.37,0.17
2234863006,-0.85,-0.37,0.17
2234865006,-0.85,-0.37,0.17
2234867013,-0.85,-0.37,0.17
2234868981,-0.85,-0.37,0.17
2234870980,-0.92,-0.38,0.16
2234872977,-0.92,-0.38,0.16
2234874976,-0.92,-0.38,0.16
2234877079,-0.92,-0.38,0.16
2234878979,-0.92,-0.38,0.16
2234881010,-0.86,-0.39,0.13
2234883045,-0.86,-0.39,0.13
2234884998,-0.86,-0.39,0.13
2234886977,-0.86,-0.39,0.13
2234888977,-0.86,-0.39,0.13
2234890979,-0.89,-0.42,0.18
2234892981,-0.89,-0.42,0.18
2234894991,-0.89,-0.42,0.18
2234897020,-0.89,-0.42,0.18
2234899009,-0.89,-0.42,0.18
2234901112,-0.91,-0.43,0.13
2234903013,-0.91,-0.43,0.13
2234905007,-0.91,-0.43,0.13
2234907009,-0.91,-0.43,0.13
2234909009,-0.91,-0.43,0.13
2234910982,-0.91,-0.45,0.11
2234913006,-0.91,-0.45,0.11
2234914977,-0.91,-0.45,0.11
2234917032,-0.91,-0.45,0.11
2234918979,-0.91,-0.45,0.11
2234920979,-0.90,-0.44,0.14
2234922977,-0.90,-0.44,0.14
2234924975,-0.90,-0.44,0.14
2234927088,-0.90,-0.44,0.14
2234929035,-0.90,-0.44,0.14
2234931030,-0.88,-0.46,0.15
2234932975,-0.88,-0.46,0.15
2234934979,-0.88,-0.46,0.15
2234937019,-0.88,-0.46,0.15
2234939002,-0.88,-0.46,0.15
2234941002,-0.87,-0.45,0.13
2234943006,-0.87,-0.45,0.13
2234945004,-0.87,-0.45,0.13
2234947005,-0.87,-0.45,0.13
2234949005,-0.87,-0.45,0.13
2234951092,-0.86,-0.45,0.16
2234952988,-0.86,-0.45,0.16
2234954979,-0.86,-0.45,0.16
2234956978,-0.86,-0.45,0.16
2234958979,-0.86,-0.45,0.16
2234960979,-0.87,-0.44,0.20
2234962977,-0.87,-0.44,0.20
2234964977,-0.87,-0.44,0.20
2234966979,-0.87,-0.44,0.20
2234968977,-0.87,-0.44,0.20
2234970977,-0.86,-0.45,0.21
2234972981,-0.86,-0.45,0.21
2234974986,-0.86,-0.45,0.21
2234977109,-0.86,-0.45,0.21
2234979006,-0.86,-0.45,0.21
2234981002,-0.86,-0.45,0.25
2234983008,-0.86,-0.45,0.25
2234985005,-0.86,-0.45,0.25
2234987006,-0.86,-0.45,0.25
2234989003,-0.86,-0.45,0.25
2234990979,-0.91,-0.48,0.18
2234992983,-0.91,-0.48,0.18
2234995024,-0.91,-0.48,0.18
2234997063,-0.91,-0.48,0.18
2234999022,-0.91,-0.48,0.18
2235001090,-0.86,-0.49,0.21
2235002992,-0.86,-0.49,0.21
2235004977,-0.86,-0.49,0.21
2235006979,-0.86,-0.49,0.21
2235008976,-0.86,-0.49,0.21
2235010982,-0.88,-0.52,0.21
2235013012,-0.88,-0.52,0.21
2235014975,-0.88,-0.52,0.21
2235017017,-0.88,-0.52,0.21
2235019057,-0.88,-0.52,0.21
2235021004,-0.88,-0.52,0.21
2235023006,-0.84,-0.50,0.15
2235025002,-0.84,-0.50,0.15
2235027111,-0.84,-0.50,0.15
2235029006,-0.84,-0.50,0.15
2235031006,-0.84,-0.50,0.15
2235032977,-0.85,-0.50,0.17
2235034975,-0.85,-0.50,0.17
2235036979,-0.85,-0.50,0.17
2235038977,-0.85,-0.50,0.17
2235040976,-0.85,-0.50,0.17
2235042981,-0.82,-0.45,0.22
2235044977,-0.82,-0.45,0.22
2235046978,-0.82,-0.45,0.22
2235048976,-0.82,-0.45,0.22
2235051081,-0.82,-0.45,0.22
2235052990,-0.86,-0.45,0.23
2235054978,-0.86,-0.45,0.23
2235057090,-0.86,-0.45,0.23
2235059048,-0.86,-0.45,0.23
2235061004,-0.86,-0.45,0.23
2235063005,-0.87,-0.41,0.20
2235065006,-0.87,-0.41,0.20
2235067008,-0.87,-0.41,0.20
2235069005,-0.87,-0.41,0.20
2235071005,-0.87,-0.41,0.20
2235073007,-0.85,-0.42,0.22
2235074979,-0.85,-0.42,0.22
2235077093,-0.85,-0.42,0.22
2235078976,-0.85,-0.42,0.22
2235080979,-0.85,-0.42,0.22
2235082979,-0.88,-0.43,0.24
2235084979,-0.88,-0.43,0.24
2235086977,-0.88,-0.43,0.24
2235088978,-0.88,-0.43,0.24
2235090976,-0.88,-0.43,0.24
2235092979,-0.80,-0.42,0.23
2235094998,-0.80,-0.42,0.23
2235096979,-0.80,-0.42,0.23
2235099016,-0.80,-0.42,0.23
2235101096,-0.80,-0.42,0.23
2235103010,-0.80,-0.42,0.16
2235105007,-0.80,-0.42,0.16
2235107005,-0.80,-0.42,0.16
2235109005,-0.80,-0.42,0.16
2235111008,-0.80,-0.42,0.16
2235113011,-0.75,-0.38,0.16
2235114979,-0.75,-0.38,0.16
2235116975,-0.75,-0.38,0.16
2235118978,-0.75,-0.38,0.16
2235120978,-0.75,-0.38,0.16
2235122977,-0.74,-0.37,0.19
2235124975,-0.74,-0.37,0.19
2235127087,-0.74,-0.37,0.19
2235128976,-0.74,-0.37,0.19
2235130976,-0.74,-0.37,0.19
2235132977,-0.70,-0.34,0.17
2235134975,-0.70,-0.34,0.17
2235136975,-0.70,-0.34,0.17
2235139016,-0.70,-0.34,0.17
2235141006,-0.70,-0.34,0.17
2235143004,-0.73,-0.34,0.17
2235145021,-0.73,-0.34,0.17
2235147040,-0.73,-0.34,0.17
2235149009,-0.73,-0.34,0.17
2235151103,-0.73,-0.34,0.17
2235153022,-0.73,-0.33,0.20
2235155037,-0.73,-0.33,0.20
2235156975,-0.73,-0.33,0.20
2235158975,-0.73,-0.33,0.20
2235160975,-0.73,-0.33,0.20
2235162980,-0.74,-0.34,0.23
2235164981,-0.74,-0.34,0.23
2235166981,-0.74,-0.34,0.23
2235168976,-0.74,-0.34,0.23
2235170981,-0.74,-0.34,0.23
2235172981,-0.73,-0.35,0.20
2235174979,-0.73,-0.35,0.20
2235177091,-0.73,-0.35,0.20
2235179018,-0.73,-0.35,0.20
2235181003,-0.73,-0.35,0.20
2235182999,-0.72,-0.38,0.20
2235185006,-0.72,-0.38,0.20
2235187004,-0.72,-0.38,0.20
2235189005,-0.72,-0.38,0.20
2235191006,-0.72,-0.38,0.20
2235192987,-0.72,-0.39,0.18
2235194996,-0.72,-0.39,0.18
2235196974,-0.72,-0.39,0.18
2235198979,-0.72,-0.39,0.18
2235201085,-0.72,-0.39,0.18
2235202987,-0.72,-0.39,0.18
2235204977,-0.70,-0.38,0.18
2235206974,-0.70,-0.38,0.18
2235208981,-0.70,-0.38,0.18
2235211120,-0.70,-0.38,0.18
2235213032,-0.70,-0.38,0.18
2235214976,-0.72,-0.38,0.15
2235216978,-0.72,-0.38,0.15
2235219024,-0.72,-0.38,0.15
2235221000,-0.72,-0.38,0.15
2235223010,-0.72,-0.38,0.15
2235225059,-0.71,-0.35,0.16
2235227120,-0.71,-0.35,0.16
2235229008,-0.71,-0.35,0.16
2235231006,-0.71,-0.35,0.16
2235233007,-0.71,-0.35,0.16
2235234982,-0.74,-0.36,0.15
2235236979,-0.74,-0.36,0.15
2235238981,-0.74,-0.36,0.15
2235240976,-0.74,-0.36,0.15
2235242981,-0.74,-0.36,0.15
2235244980,-0.74,-0.36,0.15
2235246979,-0.74,-0.36,0.15
2235248975,-0.74,-0.36,0.15
2235251076,-0.74,-0.36,0.15
2235252987,-0.74,-0.36,0.15
2235254978,-0.77,-0.37,0.16
2235256980,-0.77,-0.37,0.16
2235259040,-0.77,-0.37,0.16
2235261058,-0.77,-0.37,0.16
2235263043,-0.77,-0.37,0.16
2235265006,-0.80,-0.38,0.18
2235267005,-0.80,-0.38,0.18
2235269004,-0.80,-0.38,0.18
2235271006,-0.80,-0.38,0.18
2235273005,-0.80,-0.38,0.18
2235275006,-0.81,-0.38,0.17
2235277094,-0.81,-0.38,0.17
2235278979,-0.81,-0.38,0.17
2235280979,-0.81,-0.38,0.17
2235282977,-0.81,-0.38,0.17
2235284979,-0.83,-0.38,0.15
2235286979,-0.83,-0.38,0.15
2235288979,-0.83,-0.38,0.15
2235290979,-0.83,-0.38,0.15
2235292979,-0.83,-0.38,0.15
2235294990,-0.82,-0.36,0.14
2235296974,-0.82,-0.36,0.14
2235299010,-0.82,-0.36,0.14
2235301099,-0.82,-0.36,0.14
2235303010,-0.82,-0.36,0.14
2235305011,-0.81,-0.32,0.11
2235307007,-0.81,-0.32,0.11
2235309002,-0.81,-0.32,0.11
2235311007,-0.81,-0.32,0.11
2235313011,-0.81,-0.32,0.11
2235314978,-0.86,-0.33,0.09
2235316978,-0.86,-0.33,0.09
2235319043,-0.86,-0.33,0.09
2235321031,-0.86,-0.33,0.09
2235322976,-0.86,-0.33,0.09
2235324978,-0.90,-0.23,0.05
2235327141,-0.90,-0.23,0.05
2235328979,-0.90,-0.23,0.05
2235330975,-0.90,-0.23,0.05
2235332974,-0.90,-0.23,0.05
2235334979,-0.91,-0.30,0.08
2235336977,-0.91,-0.30,0.08
2235339031,-0.91,-0.30,0.08
2235341001,-0.91,-0.30,0.08
2235343000,-0.91,-0.30,0.08
2235345005,-0.93,-0.46,0.03
2235347004,-0.93,-0.46,0.03
2235349004,-0.93,-0.46,0.03
2235351096,-0.93,-0.46,0.03
2235352986,-0.93,-0.46,0.03
2235354979,-0.93,-0.62,0.02
2235356980,-0.93,-0.62,0.02
2235358976,-0.93,-0.62,0.02
2235360977,-0.93,-0.62,0.02
2235362978,-0.93,-0.62,0.02
2235364981,-0.91,-0.65,0.00
2235367089,-0.91,-0.65,0.00
2235369013,-0.91,-0.65,0.00
2235370981,-0.91,-0.65,0.00
2235372980,-0.91,-0.65,0.00
2235374978,-0.95,-0.55,-0.03
2235377093,-0.95,-0.55,-0.03
2235379020,-0.95,-0.55,-0.03
2235381006,-0.95,-0.55,-0.03
2235383003,-0.95,-0.55,-0.03
2235385008,-1.03,-0.42,-0.07
2235387009,-1.03,-0.42,-0.07
2235389005,-1.03,-0.42,-0.07
2235391007,-1.03,-0.42,-0.07
2235392983,-1.03,-0.42,-0.07
2235394994,-1.03,-0.42,-0.07
2235396972,-1.11,-0.29,-0.11
2235398977,-1.11,-0.29,-0.11
2235401083,-1.11,-0.29,-0.11
2235402989,-1.11,-0.29,-0.11
2235404977,-1.11,-0.29,-0.11
2235406975,-1.11,-0.21,-0.11
2235408981,-1.11,-0.21,-0.11
2235410997,-1.11,-0.21,-0.11
2235413116,-1.11,-0.21,-0.11
2235415030,-1.11,-0.21,-0.11
2235416977,-1.13,-0.17,-0.12
2235419019,-1.13,-0.17,-0.12
2235421003,-1.13,-0.17,-0.12
2235423000,-1.13,-0.17,-0.12
2235425003,-1.13,-0.17,-0.12
2235427121,-1.05,-0.18,-0.12
2235429007,-1.05,-0.18,-0.12
2235431004,-1.05,-0.18,-0.12
2235432992,-1.05,-0.18,-0.12
2235434985,-1.05,-0.18,-0.12
2235436979,-1.05,-0.16,-0.11
2235438979,-1.05,-0.16,-0.11
2235440975,-1.05,-0.16,-0.11
2235442980,-1.05,-0.16,-0.11
2235444978,-1.05,-0.16,-0.11
2235446979,-0.83,-0.20,-0.06
2235448978,-0.83,-0.20,-0.06
2235451075,-0.83,-0.20,-0.06
2235452989,-0.83,-0.20,-0.06
2235454979,-0.83,-0.20,-0.06
2235456980,-0.82,-0.22,-0.02
2235459018,-0.82,-0.22,-0.02
2235461005,-0.82,-0.22,-0.02
2235463004,-0.82,-0.22,-0.02
2235465006,-0.82,-0.22,-0.02
2235467000,-0.91,-0.32,0.00
2235469005,-0.91,-0.32,0.00
2235471005,-0.91,-0.32,0.00
2235472979,-0.91,-0.32,0.00
2235474984,-0.91,-0.32,0.00
2235477086,-0.64,-0.39,0.02
2235478985,-0.64,-0.39,0.02
2235481043,-0.64,-0.39,0.02
2235483027,-0.64,-0.39,0.02
2235485000,-0.64,-0.39,0.02
2235486978,-0.68,-0.39,0.01
2235488975,-0.68,-0.39,0.01
2235490975,-0.68,-0.39,0.01
2235492978,-0.68,-0.39,0.01
2235494992,-0.68,-0.39,0.01
2235496975,-0.85,-0.43,0.03
2235499019,-0.85,-0.43,0.03
2235501112,-0.85,-0.43,0.03
2235503008,-0.85,-0.43,0.03
2235505004,-0.85,-0.43,0.03
2235507005,-0.88,-0.39,0.04
2235509005,-0.88,-0.39,0.04
2235511007,-0.88,-0.39,0.04
2235512982,-0.88,-0.39,0.04
2235515005,-0.88,-0.39,0.04
2235516980,-0.82,-0.42,0.03
2235518979,-0.82,-0.42,0.03
2235520972,-0.82,-0.42,0.03
2235522975,-0.82,-0.42,0.03
2235524976,-0.82,-0.42,0.03
2235527088,-0.86,-0.36,0.01
2235528977,-0.86,-0.36,0.01
2235531034,-0.86,-0.36,0.01
2235532977,-0.86,-0.36,0.01
2235534976,-0.86,-0.36,0.01
2235537056,-0.87,-0.32,0.02
2235539040,-0.87,-0.32,0.02
2235541002,-0.87,-0.32,0.02
2235543001,-0.87,-0.32,0.02
2235545005,-0.87,-0.32,0.02
2235547003,-0.85,-0.27,0.02
2235549006,-0.85,-0.27,0.02
2235551116,-0.85,-0.27,0.02
2235552987,-0.85,-0.27,0.02
2235554979,-0.85,-0.27,0.02
2235556980,-0.87,-0.26,0.02
2235558974,-0.87,-0.26,0.02
2235560979,-0.87,-0.26,0.02
2235562979,-0.87,-0.26,0.02
2235564977,-0.87,-0.26,0.02
2235566980,-0.94,-0.26,-0.00
2235568979,-0.94,-0.26,-0.00
2235570977,-0.94,-0.26,-0.00
2235572974,-0.94,-0.26,-0.00
2235574979,-0.94,-0.26,-0.00
2235577054,-0.94,-0.26,-0.00
2235579011,-0.88,-0.22,-0.00
2235581006,-0.88,-0.22,-0.00
2235583005,-0.88,-0.22,-0.00
2235585063,-0.88,-0.22,-0.00
2235587045,-0.88,-0.22,-0.00
2235589006,-0.87,-0.20,-0.01
2235591003,-0.87,-0.20,-0.01
2235593007,-0.87,-0.20,-0.01
2235595001,-0.87,-0.20,-0.01
2235596976,-0.87,-0.20,-0.01
2235598979,-0.80,-0.20,-0.01
2235601092,-0.80,-0.20,-0.01
2235602987,-0.80,-0.20,-0.01
2235604979,-0.80,-0.20,-0.01
2235606979,-0.80,-0.20,-0.01
2235608976,-0.79,-0.25,-0.01
2235610977,-0.79,-0.25,-0.01
2235612981,-0.79,-0.25,-0.01
2235615011,-0.79,-0.25,-0.01
2235616978,-0.79,-0.25,-0.01
2235619023,-0.79,-0.23,-0.01
2235621006,-0.79,-0.23,-0.01
2235623010,-0.79,-0.23,-0.01
2235625005,-0.79,-0.23,-0.01
2235627118,-0.79,-0.23,-0.01
2235629004,-0.75,-0.25,-0.01
2235631011,-0.75,-0.25,-0.01
2235632985,-0.75,-0.25,-0.01
2235634984,-0.75,-0.25,-0.01
2235636979,-0.75,-0.25,-0.01
2235638977,-0.64,-0.26,0.01
2235640976,-0.64,-0.26,0.01
2235642984,-0.64,-0.26,0.01
2235644984,-0.64,-0.26,0.01
2235647040,-0.64,-0.26,0.01
2235649040,-1.03,-0.35,-0.02
2235651096,-1.03,-0.35,-0.02
2235652987,-1.03,-0.35,-0.02
2235654974,-1.03,-0.35,-0.02
2235656978,-1.03,-0.35,-0.02
2235659019,-1.55,-0.38,0.11
2235661005,-1.55,-0.38,0.11
2235662999,-1.55,-0.38,0.11
2235665003,-1.55,-0.38,0.11
2235667005,-1.55,-0.38,0.11
2235669001,-0.96,-0.22,0.03
2235671004,-0.96,-0.22,0.03
2235672979,-0.96,-0.22,0.03
2235674980,-0.96,-0.22,0.03
2235677084,-0.96,-0.22,0.03
2235678979,-0.93,-0.37,0.04
2235680977,-0.93,-0.37,0.04
2235682980,-0.93,-0.37,0.04
2235684980,-0.93,-0.37,0.04
2235686980,-0.93,-0.37,0.04
2235688977,-0.98,-0.38,0.04
2235690976,-0.98,-0.38,0.04
2235692981,-0.98,-0.38,0.04
2235695001,-0.98,-0.38,0.04
2235696980,-0.98,-0.38,0.04
2235699012,-0.94,-0.30,0.05
2235701105,-0.94,-0.30,0.05
2235703008,-0.94,-0.30,0.05
2235705003,-0.94,-0.30,0.05
2235707064,-0.94,-0.30,0.05
2235709036,-1.03,-0.34,-0.01
2235711006,-1.03,-0.34,-0.01
2235713005,-1.03,-0.34,-0.01
2235715040,-1.03,-0.34,-0.01
2235717013,-1.03,-0.34,-0.01
2235718978,-0.83,-0.28,0.01
2235720979,-0.83,-0.28,0.01
2235722977,-0.83,-0.28,0.01
2235724977,-0.83,-0.28,0.01
2235727099,-0.83,-0.28,0.01
2235728979,-0.97,-0.25,0.06
2235730979,-0.97,-0.25,0.06
2235732991,-0.97,-0.25,0.06
2235734995,-0.97,-0.25,0.06
2235737024,-0.97,-0.25,0.06
2235739019,-0.89,-0.24,0.01
2235741004,-0.89,-0.24,0.01
2235743005,-0.89,-0.24,0.01
2235745008,-0.89,-0.24,0.01
2235747009,-0.89,-0.24,0.01
2235749008,-0.96,-0.27,0.03
2235751114,-0.96,-0.27,0.03
2235752985,-0.96,-0.27,0.03
2235754978,-0.96,-0.27,0.03
2235756980,-0.96,-0.27,0.03
2235758980,-0.96,-0.27,0.03
2235760982,-0.96,-0.26,0.03
2235762981,-0.96,-0.26,0.03
2235764981,-0.96,-0.26,0.03
2235766980,-0.96,-0.26,0.03
2235768981,-0.96,-0.26,0.03
2235770981,-0.96,-0.30,0.06
2235772980,-0.96,-0.30,0.06
2235774979,-0.96,-0.30,0.06
2235777054,-0.96,-0.30,0.06
2235779008,-0.96,-0.30,0.06
2235781002,-1.00,-0.29,0.07
2235783004,-1.00,-0.29,0.07
2235785003,-1.00,-0.29,0.07
2235787001,-1.00,-0.29,0.07
2235789001,-1.00,-0.29,0.07
2235791007,-0.96,-0.32,0.07
2235792981,-0.96,-0.32,0.07
2235794996,-0.96,-0.32,0.07
2235796979,-0.96,-0.32,0.07
2235798977,-0.96,-0.32,0.07
2235801081,-0.96,-0.27,0.09
2235802986,-0.96,-0.27,0.09
2235804977,-0.96,-0.27,0.09
2235806977,-0.96,-0.27,0.09
2235808977,-0.96,-0.27,0.09
2235811066,-0.96,-0.32,0.10
2235813016,-0.96,-0.32,0.10
2235815010,-0.96,-0.32,0.10
2235816977,-0.96,-0.32,0.10
2235819021,-0.96,-0.32,0.10
2235821001,-0.95,-0.32,0.10
2235823003,-0.95,-0.32,0.10
2235825005,-0.95,-0.32,0.10
2235827121,-0.95,-0.32,0.10
2235829006,-0.95,-0.32,0.10
2235831009,-0.96,-0.35,0.11
2235832980,-0.96,-0.35,0.11
2235834975,-0.96,-0.35,0.11
2235836976,-0.96,-0.35,0.11
2235839030,-0.96,-0.35,0.11
2235840978,-0.96,-0.37,0.13
2235842973,-0.96,-0.37,0.13
2235844975,-0.96,-0.37,0.13
2235846976,-0.96,-0.37,0.13
2235848978,-0.96,-0.37,0.13
2235851086,-0.98,-0.39,0.14
2235852987,-0.98,-0.39,0.14
2235854977,-0.98,-0.39,0.14
2235856977,-0.98,-0.39,0.14
2235859023,-0.98,-0.39,0.14
2235861030,-0.99,-0.40,0.13
2235863063,-0.99,-0.40,0.13
2235865039,-0.99,-0.40,0.13
2235867005,-0.99,-0.40,0.13
2235869004,-0.99,-0.40,0.13
2235871005,-1.00,-0.40,0.12
2235873006,-1.00,-0.40,0.12
2235874980,-1.00,-0.40,0.12
2235877096,-1.00,-0.40,0.12
2235878978,-1.00,-0.40,0.12
2235880977,-1.00,-0.39,0.11
2235882975,-1.00,-0.39,0.11
2235884976,-1.00,-0.39,0.11
2235886981,-1.00,-0.39,0.11
2235888977,-1.00,-0.39,0.11
2235890976,-1.00,-0.38,0.11
2235892985,-1.00,-0.38,0.11
2235894994,-1.00,-0.38,0.11
2235896977,-1.00,-0.38,0.11
2235899010,-1.00,-0.38,0.11
2235901096,-1.00,-0.40,0.09
2235903013,-1.00,-0.40,0.09
2235905006,-1.00,-0.40,0.09
2235907008,-1.00,-0.40,0.09
2235909067,-1.00,-0.40,0.09
2235911043,-0.97,-0.39,0.09
2235913005,-0.97,-0.39,0.09
2235915033,-0.97,-0.39,0.09
2235916975,-0.97,-0.39,0.09
2235918979,-0.97,-0.39,0.09
2235920981,-0.96,-0.43,0.10
2235922981,-0.96,-0.43,0.10
2235924980,-0.96,-0.43,0.10
2235927098,-0.96,-0.43,0.10
2235928977,-0.96,-0.43,0.10
2235930975,-0.93,-0.45,0.09
2235932976,-0.93,-0.45,0.09
2235934982,-0.93,-0.45,0.09
2235936978,-0.93,-0.45,0.09
2235939017,-0.93,-0.45,0.09
2235941010,-0.94,-0.46,0.08
2235943007,-0.94,-0.46,0.08
2235945008,-0.94,-0.46,0.08
2235947008,-0.94,-0.46,0.08
2235949012,-0.94,-0.46,0.08
2235951079,-0.94,-0.46,0.08
2235952989,-0.95,-0.46,0.10
2235954979,-0.95,-0.46,0.10
2235956981,-0.95,-0.46,0.10
2235958981,-0.95,-0.46,0.10
2235960980,-0.95,-0.46,0.10
2235962977,-0.92,-0.44,0.11
2235964984,-0.92,-0.44,0.11
2235966984,-0.92,-0.44,0.11
2235968984,-0.92,-0.44,0.11
2235970978,-0.92,-0.44,0.11
2235972977,-0.91,-0.44,0.11
2235974985,-0.91,-0.44,0.11
2235977058,-0.91,-0.44,0.11
2235979014,-0.91,-0.44,0.11
2235981008,-0.91,-0.44,0.11
2235983014,-0.89,-0.42,0.12
2235985011,-0.89,-0.42,0.12
2235987009,-0.89,-0.42,0.12
2235989008,-0.89,-0.42,0.12
2235991005,-0.89,-0.42,0.12
2235992982,-0.89,-0.42,0.14
2235994994,-0.89,-0.42,0.14
2235996978,-0.89,-0.42,0.14
2235998977,-0.89,-0.42,0.14
2236001080,-0.89,-0.42,0.14
2236002988,-0.90,-0.43,0.15
2236004976,-0.90,-0.43,0.15
2236006977,-0.90,-0.43,0.15
2236008979,-0.90,-0.43,0.15
2236010975,-0.90,-0.43,0.15
2236012979,-0.90,-0.43,0.16
2236015006,-0.90,-0.43,0.16
2236016981,-0.90,-0.43,0.16
2236019020,-0.90,-0.43,0.16
2236021006,-0.90,-0.43,0.16
2236023038,-0.91,-0.43,0.20
2236025040,-0.91,-0.43,0.20
2236027119,-0.91,-0.43,0.20
2236029011,-0.91,-0.43,0.20
2236031010,-0.91,-0.43,0.20
2236033013,-0.91,-0.43,0.21
2236034977,-0.91,-0.43,0.21
2236036979,-0.91,-0.43,0.21
2236038979,-0.91,-0.43,0.21
2236040979,-0.91,-0.43,0.21
2236043029,-0.92,-0.43,0.23
2236044975,-0.92,-0.43,0.23
2236046984,-0.92,-0.43,0.23
2236048976,-0.92,-0.43,0.23
2236051082,-0.92,-0.43,0.23
2236052988,-0.94,-0.41,0.25
2236054976,-0.94,-0.41,0.25
2236056975,-0.94,-0.41,0.25
2236059028,-0.94,-0.41,0.25
2236061010,-0.94,-0.41,0.25
2236063005,-0.94,-0.42,0.25
2236065032,-0.94,-0.42,0.25
2236066966,-0.94,-0.42,0.25
2236068958,-0.94,-0.42,0.25
2236070955,-0.94,-0.42,0.25
2236072957,-0.93,-0.43,0.25
2236074955,-0.93,-0.43,0.25
2236077076,-0.93,-0.43,0.25
2236078957,-0.93,-0.43,0.25
2236080955,-0.93,-0.43,0.25
2236082958,-0.91,-0.45,0.25
2236084958,-0.91,-0.45,0.25
2236086958,-0.91,-0.45,0.25
2236088956,-0.91,-0.45,0.25
2236090958,-0.91,-0.45,0.25
2236092961,-0.90,-0.46,0.25
2236094987,-0.90,-0.46,0.25
2236096958,-0.90,-0.46,0.25
2236098957,-0.90,-0.46,0.25
2236101041,-0.90,-0.46,0.25
2236102972,-0.90,-0.48,0.25
2236104958,-0.90,-0.48,0.25
2236106957,-0.90,-0.48,0.25
2236227202,-0.83,-0.47,0.18
2236229035,-0.83,-0.47,0.18
2236231004,-0.83,-0.47,0.18
2236233007,-0.83,-0.47,0.18
2236235001,-0.83,-0.45,0.17
2236237001,-0.83,-0.45,0.17
2236239004,-0.83,-0.45,0.17
2236240999,-0.83,-0.45,0.17
2236243003,-0.83,-0.45,0.17
2236245008,-0.84,-0.46,0.18
2236246978,-0.84,-0.46,0.18
2236248980,-0.84,-0.46,0.18
2236251091,-0.84,-0.46,0.18
2236252987,-0.84,-0.46,0.18
2236254981,-0.84,-0.45,0.17
2236256981,-0.84,-0.45,0.17
2236258976,-0.84,-0.45,0.17
2236260976,-0.84,-0.45,0.17
2236262981,-0.84,-0.45,0.17
2236264985,-0.84,-0.45,0.16
2236267009,-0.84,-0.45,0.16
2236269001,-0.84,-0.45,0.16
2236271003,-0.84,-0.45,0.16
2236273005,-0.84,-0.45,0.16
2236275004,-0.84,-0.45,0.17
2236277122,-0.84,-0.45,0.17
2236279038,-0.84,-0.45,0.17
2236281010,-0.84,-0.45,0.17
2236282974,-0.84,-0.45,0.17
2236284989,-0.84,-0.44,0.16
2236286981,-0.84,-0.44,0.16
2236288981,-0.84,-0.44,0.16
2236290979,-0.84,-0.44,0.16
2236292983,-0.84,-0.44,0.16
2236294991,-0.85,-0.43,0.17
2236296978,-0.85,-0.43,0.17
2236298977,-0.85,-0.43,0.17
2236301092,-0.85,-0.43,0.17
2236302986,-0.85,-0.43,0.17
2236304976,-0.84,-0.43,0.19
2236307014,-0.84,-0.43,0.19
2236309006,-0.84,-0.43,0.19
2236311027,-0.84,-0.43,0.19
2236313053,-0.84,-0.43,0.19
2236315036,-0.83,-0.45,0.18
2236317004,-0.83,-0.45,0.18
2236319003,-0.83,-0.45,0.18
2236321011,-0.83,-0.45,0.18
2236322976,-0.83,-0.45,0.18
2236324980,-0.83,-0.45,0.18
2236327102,-0.84,-0.46,0.16
2236328979,-0.84,-0.46,0.16
2236330979,-0.84,-0.46,0.16
2236332979,-0.84,-0.46,0.16
2236334978,-0.84,-0.46,0.16
2236336979,-0.83,-0.45,0.17
2236338975,-0.83,-0.45,0.17
2236340976,-0.83,-0.45,0.17
2236342979,-0.83,-0.45,0.17
2236344980,-0.83,-0.45,0.17
2236347014,-0.81,-0.45,0.18
2236349046,-0.81,-0.45,0.18
2236351102,-0.81,-0.45,0.18
2236353008,-0.81,-0.45,0.18
2236355004,-0.81,-0.45,0.18
2236357004,-0.82,-0.46,0.18
2236359002,-0.82,-0.46,0.18
2236360981,-0.82,-0.46,0.18
2236362979,-0.82,-0.46,0.18
2236364977,-0.82,-0.46,0.18
2236366976,-0.82,-0.46,0.20
2236368981,-0.82,-0.46,0.20
2236371019,-0.82,-0.46,0.20
2236373062,-0.82,-0.46,0.20
2236375016,-0.82,-0.46,0.20
2236377096,-0.80,-0.47,0.20
2236378977,-0.80,-0.47,0.20
2236380977,-0.80,-0.47,0.20
2236382976,-0.80,-0.47,0.20
2236384980,-0.80,-0.47,0.20
2236387025,-0.79,-0.48,0.19
2236389004,-0.79,-0.48,0.19
2236390998,-0.79,-0.48,0.19
2236393004,-0.79,-0.48,0.19
2236395014,-0.79,-0.48,0.19
2236397002,-0.80,-0.48,0.20
2236399006,-0.80,-0.48,0.20
2236401085,-0.80,-0.48,0.20
2236402991,-0.80,-0.48,0.20
