timestamp,accX,accY,accZ
2493276129,-0.88,-0.48,0.08
2493277996,-0.88,-0.48,0.08
2493279987,-0.88,-0.48,0.08
2493281991,-0.88,-0.48,0.08
2493283987,-0.88,-0.48,0.08
2493285985,-0.86,-0.49,0.07
2493287990,-0.86,-0.49,0.07
2493289986,-0.86,-0.49,0.07
2493291986,-0.86,-0.49,0.07
2493293994,-0.86,-0.49,0.07
2493295995,-0.87,-0.49,0.07
2493297990,-0.87,-0.49,0.07
2493299987,-0.87,-0.49,0.07
2493302065,-0.87,-0.49,0.07
2493303994,-0.87,-0.49,0.07
2493305996,-0.86,-0.48,0.08
2493307984,-0.86,-0.48,0.08
2493309990,-0.86,-0.48,0.08
2493311990,-0.86,-0.48,0.08
2493313989,-0.86,-0.48,0.08
2493316039,-0.86,-0.50,0.07
2493318044,-0.86,-0.50,0.07
2493320013,-0.86,-0.50,0.07
2493322013,-0.86,-0.50,0.07
2493324009,-0.86,-0.50,0.07
2493326118,-0.87,-0.49,0.08
2493328012,-0.87,-0.49,0.08
2493330014,-0.87,-0.49,0.08
2493331987,-0.87,-0.49,0.08
2493333990,-0.87,-0.49,0.08
2493335990,-0.87,-0.50,0.08
2493337991,-0.87,-0.50,0.08
2493339991,-0.87,-0.50,0.08
2493342007,-0.87,-0.50,0.08
2493343991,-0.87,-0.50,0.08
2493345990,-0.87,-0.50,0.07
2493347986,-0.87,-0.50,0.07
2493349987,-0.87,-0.50,0.07
2493352091,-0.87,-0.50,0.07
2493353986,-0.87,-0.50,0.07
2493356022,-0.86,-0.50,0.06
2493358009,-0.86,-0.50,0.06
2493360010,-0.86,-0.50,0.06
2493362013,-0.86,-0.50,0.06
2493364013,-0.86,-0.50,0.06
2493366011,-0.86,-0.49,0.08
2493367997,-0.86,-0.49,0.08
2493369991,-0.86,-0.49,0.08
2493371990,-0.86,-0.49,0.08
2493374045,-0.86,-0.49,0.08
2493376103,-0.86,-0.49,0.07
2493377995,-0.86,-0.49,0.07
2493379987,-0.86,-0.49,0.07
2493381986,-0.86,-0.49,0.07
2493383993,-0.86,-0.49,0.07
2493385984,-0.86,-0.50,0.06
2493387987,-0.86,-0.50,0.06
2493389990,-0.86,-0.50,0.06
2493391990,-0.86,-0.50,0.06
2493393989,-0.86,-0.50,0.06
2493396027,-0.86,-0.49,0.07
2493398012,-0.86,-0.49,0.07
2493400008,-0.86,-0.49,0.07
2493402112,-0.86,-0.49,0.07
2493404048,-0.86,-0.49,0.07
2493406055,-0.87,-0.49,0.07
2493408018,-0.87,-0.49,0.07
2493410009,-0.87,-0.49,0.07
2493411991,-0.87,-0.49,0.07
2493413991,-0.87,-0.49,0.07
2493415991,-0.88,-0.49,0.07
2493417991,-0.88,-0.49,0.07
2493419990,-0.88,-0.49,0.07
2493421990,-0.88,-0.49,0.07
2493423992,-0.88,-0.49,0.07
2493426104,-0.86,-0.49,0.07
2493427998,-0.86,-0.49,0.07
2493429991,-0.86,-0.49,0.07
2493431992,-0.86,-0.49,0.07
2493433991,-0.86,-0.49,0.07
2493436021,-0.86,-0.49,0.07
2493438015,-0.86,-0.49,0.06
2493440016,-0.86,-0.49,0.06
2493442068,-0.86,-0.49,0.06
2493444050,-0.86,-0.49,0.06
2493446021,-0.86,-0.49,0.06
2493448016,-0.86,-0.49,0.07
2493450014,-0.86,-0.49,0.07
2493452108,-0.86,-0.49,0.07
2493453991,-0.86,-0.49,0.07
2493455985,-0.86,-0.49,0.07
2493457990,-0.86,-0.48,0.08
2493459989,-0.86,-0.48,0.08
2493461991,-0.86,-0.48,0.08
2493463990,-0.86,-0.48,0.08
2493465991,-0.86,-0.48,0.08
2493467987,-0.87,-0.49,0.07
2493469991,-0.87,-0.49,0.07
2493471987,-0.87,-0.49,0.07
2493474004,-0.87,-0.49,0.07
2493476111,-0.87,-0.49,0.07
2493478050,-0.87,-0.50,0.06
2493480010,-0.87,-0.50,0.06
2493482010,-0.87,-0.50,0.06
2493484015,-0.87,-0.50,0.06
2493486007,-0.87,-0.50,0.06
2493488008,-0.86,-0.49,0.07
2493490009,-0.86,-0.49,0.07
2493491991,-0.86,-0.49,0.07
2493493986,-0.86,-0.49,0.07
2493495995,-0.86,-0.49,0.07
2493497986,-0.86,-0.50,0.07
2493499989,-0.86,-0.50,0.07
2493502092,-0.86,-0.50,0.07
2493503998,-0.86,-0.50,0.07
2493505997,-0.86,-0.50,0.07
2493507987,-0.86,-0.49,0.07
2493509986,-0.86,-0.49,0.07
2493511985,-0.86,-0.49,0.07
2493513993,-0.86,-0.49,0.07
2493516019,-0.86,-0.49,0.07
2493518027,-0.86,-0.50,0.07
2493520028,-0.86,-0.50,0.07
2493521967,-0.86,-0.50,0.07
2493523961,-0.86,-0.50,0.07
2493526086,-0.86,-0.50,0.07
2493527984,-0.87,-0.49,0.07
2493529967,-0.87,-0.49,0.07
2493531965,-0.87,-0.49,0.07
2493533963,-0.87,-0.49,0.07
2493535966,-0.87,-0.49,0.07
2493537966,-0.87,-0.49,0.06
2493539968,-0.87,-0.49,0.06
2493542039,-0.87,-0.49,0.06
2493544049,-0.87,-0.49,0.06
2493546016,-0.87,-0.49,0.06
2493548012,-0.87,-0.49,0.06
2493550009,-0.87,-0.49,0.06
2493552126,-0.87,-0.49,0.06
2493554015,-0.87,-0.49,0.06
2493556011,-0.87,-0.49,0.06
2493558010,-0.86,-0.50,0.06
2493560010,-0.86,-0.50,0.06
2493562007,-0.86,-0.50,0.06
2493564013,-0.86,-0.50,0.06
2493566008,-0.86,-0.50,0.06
2493567996,-0.86,-0.50,0.07
2493569989,-0.86,-0.50,0.07
2493571992,-0.86,-0.50,0.07
2493573990,-0.86,-0.50,0.07
2493576090,-0.86,-0.50,0.07
2493578032,-0.86,-0.49,0.07
2493580031,-0.86,-0.49,0.07
2493581991,-0.86,-0.49,0.07
2493583990,-0.86,-0.49,0.07
2493585987,-0.86,-0.49,0.07
2493587989,-0.86,-0.50,0.07
2493589989,-0.86,-0.50,0.07
2493591986,-0.86,-0.50,0.07
2493593991,-0.86,-0.50,0.07
2493596029,-0.86,-0.50,0.07
2493598009,-0.86,-0.49,0.07
2493600016,-0.86,-0.49,0.07
2493602126,-0.86,-0.49,0.07
2493604014,-0.86,-0.49,0.07
2493606026,-0.86,-0.49,0.07
2493608031,-0.86,-0.50,0.06
2493609969,-0.86,-0.50,0.06
2493611966,-0.86,-0.50,0.06
2493613967,-0.86,-0.50,0.06
2493615968,-0.86,-0.50,0.06
2493617968,-0.86,-0.50,0.06
2493619967,-0.87,-0.49,0.06
2493622044,-0.87,-0.49,0.06
2493623967,-0.87,-0.49,0.06
2493626082,-0.87,-0.49,0.06
2493627980,-0.87,-0.49,0.06
2493629967,-0.87,-0.49,0.08
2493631966,-0.87,-0.49,0.08
2493633966,-0.87,-0.49,0.08
2493635966,-0.87,-0.49,0.08
2493637966,-0.87,-0.49,0.08
2493640002,-0.87,-0.49,0.07
2493642061,-0.87,-0.49,0.07
2493644019,-0.87,-0.49,0.07
2493646014,-0.87,-0.49,0.07
2493648009,-0.87,-0.49,0.07
2493650010,-0.86,-0.49,0.06
2493652129,-0.86,-0.49,0.06
2493654016,-0.86,-0.49,0.06
2493656010,-0.86,-0.49,0.06
2493658013,-0.86,-0.49,0.06
2493660013,-0.86,-0.49,0.06
2493661991,-0.86,-0.49,0.06
2493663986,-0.86,-0.49,0.06
2493665990,-0.86,-0.49,0.06
2493667991,-0.86,-0.49,0.06
2493669991,-0.86,-0.50,0.07
2493671991,-0.86,-0.50,0.07
2493673991,-0.86,-0.50,0.07
2493676090,-0.86,-0.50,0.07
2493677993,-0.86,-0.50,0.07
2493680031,-0.86,-0.49,0.08
2493682020,-0.86,-0.49,0.08
2493684020,-0.86,-0.49,0.08
2493686014,-0.86,-0.49,0.08
2493688008,-0.86,-0.49,0.08
2493690014,-0.87,-0.49,0.07
2493692014,-0.87,-0.49,0.07
2493694010,-0.87,-0.49,0.07
2493696018,-0.87,-0.49,0.07
2493697991,-0.87,-0.49,0.07
2493699992,-0.86,-0.49,0.08
2493702100,-0.86,-0.49,0.08
2493703992,-0.86,-0.49,0.08
2493705995,-0.86,-0.49,0.08
2493707986,-0.86,-0.49,0.08
2493709985,-0.86,-0.49,0.08
2493711985,-0.86,-0.49,0.08
2493713991,-0.86,-0.49,0.08
2493715989,-0.86,-0.49,0.08
2493717991,-0.86,-0.49,0.08
2493719987,-0.86,-0.49,0.08
2493721982,-0.86,-0.49,0.08
2493724019,-0.86,-0.49,0.08
2493726111,-0.86,-0.49,0.08
2493728033,-0.86,-0.49,0.08
2493729965,-0.86,-0.49,0.09
2493731964,-0.86,-0.49,0.09
2493733966,-0.86,-0.49,0.09
2493735966,-0.86,-0.49,0.09
2493737967,-0.86,-0.49,0.09
2493739968,-0.86,-0.49,0.08
2493741966,-0.86,-0.49,0.08
2493743969,-0.86,-0.49,0.08
2493746018,-0.86,-0.49,0.08
2493747966,-0.86,-0.49,0.08
2493749964,-0.86,-0.49,0.09
2493752081,-0.86,-0.49,0.09
2493753990,-0.86,-0.49,0.09
2493755962,-0.86,-0.49,0.09
2493757966,-0.86,-0.49,0.09
2493759965,-0.87,-0.49,0.10
2493761965,-0.87,-0.49,0.10
2493763965,-0.87,-0.49,0.10
2493765965,-0.87,-0.49,0.10
2493767964,-0.87,-0.49,0.10
2493769965,-0.87,-0.48,0.09
2493771963,-0.87,-0.48,0.09
2493790055,-0.86,-0.49,0.08
2493792016,-0.86,-0.49,0.08
2493794020,-0.86,-0.49,0.08
2493796019,-0.86,-0.49,0.08
2493798017,-0.86,-0.49,0.08
2493800016,-0.87,-0.48,0.09
2493802129,-0.87,-0.48,0.09
2493803994,-0.87,-0.48,0.09
2493805996,-0.87,-0.48,0.09
2493807987,-0.87,-0.48,0.09
2493809990,-0.87,-0.48,0.09
2493811987,-0.86,-0.49,0.09
2493813984,-0.86,-0.49,0.09
2493815986,-0.86,-0.49,0.09
2493817987,-0.86,-0.49,0.09
2493819984,-0.86,-0.49,0.09
2493821987,-0.87,-0.48,0.09
2493823990,-0.87,-0.48,0.09
2493826068,-0.87,-0.48,0.09
2493827993,-0.87,-0.48,0.09
2493830023,-0.87,-0.48,0.09
2493832019,-0.87,-0.49,0.08
2493834022,-0.87,-0.49,0.08
2493836030,-0.87,-0.49,0.08
2493838027,-0.87,-0.49,0.08
2493840055,-0.87,-0.49,0.08
2493842022,-0.87,-0.48,0.08
2493844014,-0.87,-0.48,0.08
2493846042,-0.87,-0.48,0.08
2493847992,-0.87,-0.48,0.08
2493849991,-0.87,-0.48,0.08
2493852108,-0.86,-0.49,0.09
2493853991,-0.86,-0.49,0.09
2493855986,-0.86,-0.49,0.09
2493857990,-0.86,-0.49,0.09
2493859987,-0.86,-0.49,0.09
2493861991,-0.86,-0.49,0.09
2493863987,-0.86,-0.49,0.09
2493865991,-0.86,-0.49,0.09
2493867986,-0.86,-0.49,0.09
2493870029,-0.86,-0.49,0.09
2493872018,-0.87,-0.48,0.09
2493874016,-0.87,-0.48,0.09
2493876101,-0.87,-0.48,0.09
2493878022,-0.87,-0.48,0.09
2493880018,-0.87,-0.48,0.09
2493881995,-0.86,-0.49,0.09
2493883986,-0.86,-0.49,0.09
2493885991,-0.86,-0.49,0.09
2493887992,-0.86,-0.49,0.09
2493889991,-0.86,-0.49,0.09
2493891991,-0.86,-0.49,0.09
2493893991,-0.86,-0.49,0.09
2493895996,-0.86,-0.49,0.09
2493897985,-0.86,-0.49,0.09
2493899985,-0.86,-0.49,0.09
2493902077,-0.86,-0.49,0.08
2493903992,-0.86,-0.49,0.08
2493905998,-0.86,-0.49,0.08
2493907996,-0.86,-0.49,0.08
2493910022,-0.86,-0.49,0.08
2493912013,-0.87,-0.48,0.08
2493914017,-0.87,-0.48,0.08
2493916017,-0.87,-0.48,0.08
2493918016,-0.87,-0.48,0.08
2493920014,-0.87,-0.48,0.08
2493921989,-0.86,-0.49,0.07
2493923992,-0.86,-0.49,0.07
2493926095,-0.86,-0.49,0.07
2493927998,-0.86,-0.49,0.07
2493929991,-0.86,-0.49,0.07
2493931992,-0.86,-0.49,0.07
2493933989,-0.86,-0.49,0.07
2493935991,-0.86,-0.49,0.07
2493937987,-0.86,-0.49,0.07
2493939991,-0.86,-0.49,0.07
2493941991,-0.87,-0.49,0.08
2493943992,-0.87,-0.49,0.08
2493946011,-0.87,-0.49,0.08
2493947986,-0.87,-0.49,0.08
2493950025,-0.87,-0.49,0.08
2493952154,-0.86,-0.49,0.08
2493954015,-0.86,-0.49,0.08
2493956058,-0.86,-0.49,0.08
2493958016,-0.86,-0.49,0.08
2493960013,-0.86,-0.49,0.08
2493962012,-0.86,-0.49,0.07
2493964014,-0.86,-0.49,0.07
2493966017,-0.86,-0.49,0.07
2493967991,-0.86,-0.49,0.07
2493969989,-0.86,-0.49,0.07
2493971987,-0.86,-0.49,0.07
2493973992,-0.86,-0.49,0.07
2493976105,-0.86,-0.49,0.07
2493977996,-0.86,-0.49,0.07
2493979984,-0.86,-0.49,0.07
2493981992,-0.86,-0.49,0.09
2493983989,-0.86,-0.49,0.09
2493985996,-0.86,-0.49,0.09
2493988027,-0.86,-0.49,0.09
2493990053,-0.86,-0.49,0.09
2493992013,-0.87,-0.49,0.08
2493994016,-0.87,-0.49,0.08
2493996017,-0.87,-0.49,0.08
2493998015,-0.87,-0.49,0.08
2494000017,-0.87,-0.49,0.08
2494002126,-0.87,-0.49,0.09
2494004001,-0.87,-0.49,0.09
2494005997,-0.87,-0.49,0.09
2494007985,-0.87,-0.49,0.09
2494009991,-0.87,-0.49,0.09
2494011990,-0.87,-0.49,0.09
2494013990,-0.87,-0.49,0.08
2494015992,-0.87,-0.49,0.08
2494017990,-0.87,-0.49,0.08
2494019987,-0.87,-0.49,0.08
2494021991,-0.87,-0.49,0.08
2494023991,-0.86,-0.49,0.08
2494026076,-0.86,-0.49,0.08
2494027997,-0.86,-0.49,0.08
2494030024,-0.86,-0.49,0.08
2494032019,-0.86,-0.49,0.08
2494034018,-0.86,-0.48,0.08
2494036017,-0.86,-0.48,0.08
2494038030,-0.86,-0.48,0.08
2494040071,-0.86,-0.48,0.08
2494042050,-0.86,-0.48,0.08
2494044021,-0.86,-0.49,0.09
2494046040,-0.86,-0.49,0.09
2494047990,-0.86,-0.49,0.09
2494049987,-0.86,-0.49,0.09
2494052106,-0.86,-0.49,0.09
2494053992,-0.86,-0.48,0.08
2494055990,-0.86,-0.48,0.08
2494057990,-0.86,-0.48,0.08
2494059991,-0.86,-0.48,0.08
2494061990,-0.86,-0.48,0.08
2494063990,-0.86,-0.49,0.07
2494065991,-0.86,-0.49,0.07
2494067989,-0.86,-0.49,0.07
2494070025,-0.86,-0.49,0.07
2494072014,-0.86,-0.49,0.07
2494074014,-0.87,-0.49,0.08
2494076103,-0.87,-0.49,0.08
2494078021,-0.87,-0.49,0.08
2494080014,-0.87,-0.49,0.08
2494082010,-0.87,-0.49,0.08
2494083991,-0.87,-0.48,0.08
2494085986,-0.87,-0.48,0.08
2494087991,-0.87,-0.48,0.08
2494089992,-0.87,-0.48,0.08
2494092033,-0.87,-0.48,0.08
2494093992,-0.87,-0.48,0.07
2494095998,-0.87,-0.48,0.07
2494097990,-0.87,-0.48,0.07
2494099983,-0.87,-0.48,0.07
2494102090,-0.87,-0.48,0.07
2494103993,-0.87,-0.48,0.07
2494105996,-0.87,-0.48,0.07
2494107989,-0.87,-0.48,0.07
2494110030,-0.87,-0.48,0.07
2494112012,-0.87,-0.48,0.07
2494114011,-0.87,-0.48,0.07
2494116019,-0.87,-0.48,0.07
2494118017,-0.87,-0.48,0.07
2494120016,-0.87,-0.48,0.07
2494122015,-0.87,-0.48,0.07
2494123984,-0.87,-0.49,0.08
2494126087,-0.87,-0.49,0.08
2494127988,-0.87,-0.49,0.08
2494129981,-0.87,-0.49,0.08
2494131980,-0.87,-0.49,0.08
2494133979,-0.86,-0.49,0.07
2494135979,-0.86,-0.49,0.07
2494137979,-0.86,-0.49,0.07
2494139980,-0.86,-0.49,0.07
2494141979,-0.86,-0.49,0.07
2494143982,-0.87,-0.49,0.08
2494146032,-0.87,-0.49,0.08
2494147978,-0.87,-0.49,0.08
2494150016,-0.87,-0.49,0.08
2494152118,-0.87,-0.49,0.08
2494154006,-0.86,-0.49,0.08
2494156036,-0.86,-0.49,0.08
2494158058,-0.86,-0.49,0.08
2494160023,-0.86,-0.49,0.08
2494162006,-0.86,-0.49,0.08
2494164008,-0.87,-0.49,0.08
2494166018,-0.87,-0.49,0.08
2494167979,-0.87,-0.49,0.08
2494169978,-0.87,-0.49,0.08
2494171984,-0.87,-0.49,0.08
2494173977,-0.87,-0.49,0.07
2494176009,-0.87,-0.49,0.07
2494177982,-0.87,-0.49,0.07
2494179975,-0.87,-0.49,0.07
2494181979,-0.87,-0.49,0.07
2494183978,-0.86,-0.49,0.07
2494185977,-0.86,-0.49,0.07
2494187979,-0.86,-0.49,0.07
2494190013,-0.86,-0.49,0.07
2494192044,-0.86,-0.49,0.07
2494194045,-0.86,-0.49,0.07
2494196014,-0.86,-0.49,0.08
2494198010,-0.86,-0.49,0.08
2494200013,-0.86,-0.49,0.08
2494202042,-0.86,-0.49,0.08
2494204013,-0.86,-0.49,0.08
2494205991,-0.86,-0.48,0.08
2494207975,-0.86,-0.48,0.08
2494209975,-0.86,-0.48,0.08
2494211980,-0.86,-0.48,0.08
2494213977,-0.86,-0.48,0.08
2494215976,-0.86,-0.49,0.07
2494217976,-0.86,-0.49,0.07
2494219978,-0.86,-0.49,0.07
2494221976,-0.86,-0.49,0.07
2494223978,-0.86,-0.49,0.07
2494226152,-0.86,-0.49,0.07
2494228054,-0.86,-0.49,0.07
2494230061,-0.86,-0.49,0.07
2494232025,-0.86,-0.49,0.07
2494234037,-0.86,-0.49,0.07
2494236005,-0.86,-0.49,0.08
2494238004,-0.86,-0.49,0.08
2494240009,-0.86,-0.49,0.08
2494242009,-0.86,-0.49,0.08
2494244007,-0.86,-0.49,0.08
2494246043,-0.87,-0.49,0.09
2494248015,-0.87,-0.49,0.09
2494249975,-0.87,-0.49,0.09
2494252005,-0.87,-0.49,0.09
2494253991,-0.87,-0.49,0.09
2494255974,-0.86,-0.49,0.09
2494257975,-0.86,-0.49,0.09
2494259974,-0.86,-0.49,0.09
2494261980,-0.86,-0.49,0.09
2494263976,-0.86,-0.49,0.09
2494265979,-0.86,-0.49,0.09
2494267978,-0.86,-0.49,0.09
2494269977,-0.86,-0.49,0.09
2494271975,-0.86,-0.49,0.09
2494274010,-0.86,-0.49,0.09
2494276018,-0.87,-0.48,0.09
2494278009,-0.87,-0.48,0.09
2494280010,-0.87,-0.48,0.09
2494282011,-0.87,-0.48,0.09
2494284011,-0.87,-0.48,0.09
2494285977,-0.86,-0.49,0.08
2494287980,-0.86,-0.49,0.08
2494290034,-0.86,-0.49,0.08
2494292030,-0.86,-0.49,0.08
2494294003,-0.86,-0.49,0.08
2494296023,-0.87,-0.48,0.09
2494297979,-0.87,-0.48,0.09
2494299979,-0.87,-0.48,0.09
2494302004,-0.87,-0.48,0.09
2494303977,-0.87,-0.48,0.09
2494305990,-0.87,-0.48,0.08
2494307978,-0.87,-0.48,0.08
2494309977,-0.87,-0.48,0.08
2494311980,-0.87,-0.48,0.08
2494314025,-0.87,-0.48,0.08
2494316005,-0.87,-0.49,0.09
2494318004,-0.87,-0.49,0.09
2494320004,-0.87,-0.49,0.09
2494322003,-0.87,-0.49,0.09
2494324005,-0.87,-0.49,0.09
2494326019,-0.86,-0.48,0.09
2494327985,-0.86,-0.48,0.09
2494329980,-0.86,-0.48,0.09
2494331977,-0.86,-0.48,0.09
2494333979,-0.86,-0.48,0.09
2494335979,-0.87,-0.49,0.09
2494337976,-0.87,-0.49,0.09
2494339977,-0.87,-0.49,0.09
2494341979,-0.87,-0.49,0.09
2494343981,-0.87,-0.49,0.09
2494346015,-0.86,-0.49,0.09
2494347975,-0.86,-0.49,0.09
2494349979,-0.86,-0.49,0.09
2494351996,-0.86,-0.49,0.09
2494354018,-0.86,-0.49,0.09
2494356007,-0.86,-0.48,0.09
2494358003,-0.86,-0.48,0.09
2494360006,-0.86,-0.48,0.09
2494362005,-0.86,-0.48,0.09
2494364002,-0.86,-0.48,0.09
2494366008,-0.86,-0.49,0.09
2494367986,-0.86,-0.49,0.09
2494369980,-0.86,-0.49,0.09
2494371976,-0.86,-0.49,0.09
2494373979,-0.86,-0.49,0.09
2494376000,-0.86,-0.49,0.09
2494377981,-0.86,-0.49,0.09
2494379979,-0.86,-0.49,0.09
2494381979,-0.86,-0.49,0.09
2494383979,-0.86,-0.49,0.09
2494385977,-0.86,-0.49,0.09
2494387979,-0.86,-0.49,0.09
2494389980,-0.86,-0.49,0.09
2494391978,-0.86,-0.49,0.09
2494394008,-0.86,-0.49,0.09
2494396004,-0.86,-0.49,0.09
2494398038,-0.86,-0.49,0.09
2494400012,-0.86,-0.49,0.09
2494402048,-0.86,-0.49,0.09
2494404035,-0.86,-0.49,0.09
2494406017,-0.86,-0.49,0.09
2494408007,-0.87,-0.49,0.09
2494410006,-0.87,-0.49,0.09
2494411980,-0.87,-0.49,0.09
2494413979,-0.87,-0.49,0.09
2494415978,-0.87,-0.49,0.09
2494417975,-0.87,-0.49,0.09
2494419980,-0.87,-0.49,0.09
2494421979,-0.87,-0.49,0.09
2494423978,-0.87,-0.49,0.09
2494426002,-0.87,-0.49,0.09
2494427987,-0.87,-0.48,0.09
2494429978,-0.87,-0.48,0.09
2494431989,-0.87,-0.48,0.09
2494434019,-0.87,-0.48,0.09
2494436015,-0.87,-0.48,0.09
2494437960,-0.86,-0.49,0.08
2494439957,-0.86,-0.49,0.08
2494441958,-0.86,-0.49,0.08
2494443959,-0.86,-0.49,0.08
2494446007,-0.86,-0.49,0.08
2494447957,-0.86,-0.48,0.09
2494449955,-0.86,-0.48,0.09
2494451990,-0.86,-0.48,0.09
2494453955,-0.86,-0.48,0.09
2494455958,-0.86,-0.48,0.09
2494457958,-0.87,-0.48,0.09
2494459958,-0.87,-0.48,0.09
2494461955,-0.87,-0.48,0.09
2494463958,-0.87,-0.48,0.09
2494465958,-0.87,-0.48,0.09
2494467958,-0.86,-0.49,0.09
2494469955,-0.86,-0.49,0.09
2494471953,-0.86,-0.49,0.09
2494473955,-0.86,-0.49,0.09
2494475967,-0.86,-0.49,0.09
2494477963,-0.86,-0.49,0.10
2494479955,-0.86,-0.49,0.10
2494481955,-0.86,-0.49,0.10
2494562052,-0.87,-0.49,0.07
2494564005,-0.87,-0.49,0.07
2494566004,-0.87,-0.49,0.07
2494568003,-0.86,-0.49,0.08
2494570002,-0.86,-0.49,0.08
2494572001,-0.86,-0.49,0.08
2494574006,-0.86,-0.49,0.08
2494576022,-0.86,-0.49,0.08
2494578007,-0.86,-0.49,0.08
2494579979,-0.87,-0.48,0.08
2494581980,-0.87,-0.48,0.08
2494583979,-0.87,-0.48,0.08
2494585978,-0.87,-0.48,0.08
2494587980,-0.87,-0.48,0.08
2494589980,-0.86,-0.49,0.07
2494591979,-0.86,-0.49,0.07
2494593984,-0.86,-0.49,0.07
2494595990,-0.86,-0.49,0.07
2494597975,-0.86,-0.49,0.07
2494599977,-0.86,-0.48,0.08
2494602031,-0.86,-0.48,0.08
2494604048,-0.86,-0.48,0.08
2494606011,-0.86,-0.48,0.08
2494608010,-0.86,-0.48,0.08
2494610031,-0.86,-0.49,0.08
2494612014,-0.86,-0.49,0.08
2494614045,-0.86,-0.49,0.08
2494616010,-0.86,-0.49,0.08
2494618014,-0.86,-0.49,0.08
2494619980,-0.86,-0.49,0.08
2494622047,-0.86,-0.49,0.08
2494623976,-0.86,-0.49,0.08
2494626003,-0.86,-0.49,0.08
2494627986,-0.86,-0.49,0.08
2494629980,-0.86,-0.49,0.08
2494631975,-0.86,-0.49,0.08
2494633980,-0.86,-0.49,0.08
2494635975,-0.86,-0.49,0.08
2494637975,-0.86,-0.49,0.08
2494639974,-0.87,-0.49,0.08
2494642014,-0.87,-0.49,0.08
2494644005,-0.87,-0.49,0.08
2494646040,-0.87,-0.49,0.08
2494648002,-0.87,-0.49,0.08
2494650004,-0.86,-0.50,0.07
2494652031,-0.86,-0.50,0.07
2494654011,-0.86,-0.50,0.07
2494655979,-0.86,-0.50,0.07
2494657977,-0.86,-0.50,0.07
2494659997,-0.87,-0.49,0.07
2494662048,-0.87,-0.49,0.07
2494664015,-0.87,-0.49,0.07
2494665980,-0.87,-0.49,0.07
2494667979,-0.87,-0.49,0.07
2494669979,-0.86,-0.49,0.07
2494671976,-0.86,-0.49,0.07
2494673976,-0.86,-0.49,0.07
2494676000,-0.86,-0.49,0.07
2494677980,-0.86,-0.49,0.07
2494679975,-0.86,-0.49,0.07
2494682021,-0.86,-0.49,0.07
2494684005,-0.86,-0.49,0.07
2494686004,-0.86,-0.49,0.07
2494688008,-0.86,-0.49,0.07
2494690006,-0.86,-0.49,0.07
2494692006,-0.86,-0.49,0.07
2494694008,-0.86,-0.49,0.07
2494695994,-0.86,-0.49,0.07
2494697975,-0.86,-0.49,0.07
2494699977,-0.86,-0.49,0.07
2494701995,-0.86,-0.49,0.07
2494704026,-0.86,-0.49,0.07
2494706019,-0.86,-0.49,0.07
2494708089,-0.86,-0.49,0.07
2494710010,-0.86,-0.49,0.07
2494711975,-0.86,-0.49,0.07
2494713977,-0.86,-0.49,0.07
2494715977,-0.86,-0.49,0.07
2494717981,-0.86,-0.49,0.07
2494719977,-0.87,-0.49,0.08
2494722023,-0.87,-0.49,0.08
2494724004,-0.87,-0.49,0.08
2494726023,-0.87,-0.49,0.08
2494728006,-0.87,-0.49,0.08
2494730006,-0.86,-0.49,0.08
2494732006,-0.86,-0.49,0.08
2494734007,-0.86,-0.49,0.08
2494735979,-0.86,-0.49,0.08
2494737976,-0.86,-0.49,0.08
2494739977,-0.87,-0.48,0.08
2494741980,-0.87,-0.48,0.08
2494743983,-0.87,-0.48,0.08
2494746008,-0.87,-0.48,0.08
2494747977,-0.87,-0.48,0.08
2494749977,-0.86,-0.49,0.09
2494751992,-0.86,-0.49,0.09
2494753978,-0.86,-0.49,0.09
2494755991,-0.86,-0.49,0.09
2494758139,-0.86,-0.49,0.09
2494760016,-0.87,-0.49,0.08
2494762021,-0.87,-0.49,0.08
2494764007,-0.87,-0.49,0.08
2494766004,-0.87,-0.49,0.08
2494768003,-0.87,-0.49,0.08
2494770005,-0.87,-0.49,0.08
2494772007,-0.87,-0.49,0.08
2494774007,-0.87,-0.49,0.08
2494776007,-0.87,-0.49,0.08
2494777982,-0.87,-0.49,0.08
2494779976,-0.87,-0.49,0.08
2494781981,-0.86,-0.49,0.08
2494783978,-0.86,-0.49,0.08
2494785981,-0.86,-0.49,0.08
2494787976,-0.86,-0.49,0.08
2494789979,-0.86,-0.49,0.08
2494791977,-0.87,-0.49,0.07
2494793981,-0.87,-0.49,0.07
2494795990,-0.87,-0.49,0.07
2494797979,-0.87,-0.49,0.07
2494799976,-0.87,-0.49,0.07
2494802033,-0.86,-0.48,0.08
2494804005,-0.86,-0.48,0.08
2494806006,-0.86,-0.48,0.08
2494808051,-0.86,-0.48,0.08
2494810004,-0.86,-0.48,0.08
2494812002,-0.86,-0.49,0.07
2494814012,-0.86,-0.49,0.07
2494816040,-0.86,-0.49,0.07
2494818025,-0.86,-0.49,0.07
2494819976,-0.86,-0.49,0.07
2494821974,-0.86,-0.49,0.08
2494823979,-0.86,-0.49,0.08
2494826002,-0.86,-0.49,0.08
2494827978,-0.86,-0.49,0.08
2494829974,-0.86,-0.49,0.08
2494831977,-0.86,-0.48,0.08
2494833975,-0.86,-0.48,0.08
2494835979,-0.86,-0.48,0.08
2494837976,-0.86,-0.48,0.08
2494839977,-0.86,-0.48,0.08
2494842021,-0.86,-0.49,0.08
2494844003,-0.86,-0.49,0.08
2494846037,-0.86,-0.49,0.08
2494848005,-0.86,-0.49,0.08
2494850008,-0.86,-0.49,0.08
2494852030,-0.86,-0.49,0.09
2494854007,-0.86,-0.49,0.09
2494855980,-0.86,-0.49,0.09
2494857976,-0.86,-0.49,0.09
2494859977,-0.86,-0.49,0.09
2494861977,-0.86,-0.49,0.08
2494863981,-0.86,-0.49,0.08
2494865979,-0.86,-0.49,0.08
2494867977,-0.86,-0.49,0.08
2494869976,-0.86,-0.49,0.08
2494871979,-0.87,-0.49,0.09
2494873979,-0.87,-0.49,0.09
2494876088,-0.87,-0.49,0.09
2494878059,-0.87,-0.49,0.09
2494880017,-0.87,-0.49,0.09
2494882018,-0.87,-0.49,0.09
2494884002,-0.87,-0.49,0.09
2494886003,-0.87,-0.49,0.09
2494888007,-0.87,-0.49,0.09
2494890015,-0.87,-0.49,0.09
2494892007,-0.87,-0.48,0.09
2494894006,-0.87,-0.48,0.09
2494895988,-0.87,-0.48,0.09
2494897977,-0.87,-0.48,0.09
2494899978,-0.87,-0.48,0.09
2494902002,-0.86,-0.49,0.08
2494903979,-0.86,-0.49,0.08
2494905987,-0.86,-0.49,0.08
2494907992,-0.86,-0.49,0.08
2494910028,-0.86,-0.49,0.08
2494911979,-0.86,-0.48,0.09
2494913977,-0.86,-0.48,0.09
2494915976,-0.86,-0.48,0.09
2494917977,-0.86,-0.48,0.09
2494919974,-0.86,-0.48,0.09
2494922012,-0.86,-0.49,0.08
2494924008,-0.86,-0.49,0.08
2494926122,-0.86,-0.49,0.08
2494928042,-0.86,-0.49,0.08
2494930004,-0.86,-0.49,0.08
2494932005,-0.86,-0.49,0.08
2494934008,-0.86,-0.49,0.08
2494936004,-0.86,-0.49,0.08
2494937997,-0.86,-0.49,0.08
2494939978,-0.86,-0.49,0.08
2494941979,-0.87,-0.49,0.09
2494943982,-0.87,-0.49,0.09
2494946011,-0.87,-0.49,0.09
2494947979,-0.87,-0.49,0.09
2494949977,-0.87,-0.49,0.09
2494951999,-0.87,-0.49,0.08
2494953976,-0.87,-0.49,0.08
2494955982,-0.87,-0.49,0.08
2494957979,-0.87,-0.49,0.08
2494959979,-0.87,-0.49,0.08
2494962017,-0.87,-0.49,0.08
2494964006,-0.86,-0.49,0.09
2494966004,-0.86,-0.49,0.09
2494968007,-0.86,-0.49,0.09
2494970028,-0.86,-0.49,0.09
2494972062,-0.86,-0.49,0.09
2494974044,-0.86,-0.49,0.08
2494976024,-0.86,-0.49,0.08
2494977986,-0.86,-0.49,0.08
2494979976,-0.86,-0.49,0.08
2494981977,-0.86,-0.49,0.08
2494983975,-0.87,-0.48,0.08
2494985975,-0.87,-0.48,0.08
2494987977,-0.87,-0.48,0.08
2494989975,-0.87,-0.48,0.08
2494991975,-0.87,-0.48,0.08
2494993976,-0.86,-0.49,0.07
2494995987,-0.86,-0.49,0.07
2494997974,-0.86,-0.49,0.07
2494999977,-0.86,-0.49,0.07
2495002034,-0.86,-0.49,0.07
2495004005,-0.87,-0.48,0.07
2495006022,-0.87,-0.48,0.07
2495008007,-0.87,-0.48,0.07
2495010007,-0.87,-0.48,0.07
2495011999,-0.87,-0.48,0.07
2495014036,-0.87,-0.48,0.08
2495015980,-0.87,-0.48,0.08
2495017977,-0.87,-0.48,0.08
2495019976,-0.87,-0.48,0.08
2495021981,-0.87,-0.48,0.08
2495023979,-0.87,-0.48,0.08
2495025999,-0.87,-0.48,0.08
2495027982,-0.87,-0.48,0.08
2495029974,-0.87,-0.48,0.08
2495031979,-0.87,-0.48,0.08
2495034052,-0.86,-0.49,0.08
2495036016,-0.86,-0.49,0.08
2495037976,-0.86,-0.49,0.08
2495039978,-0.86,-0.49,0.08
2495042025,-0.86,-0.49,0.08
2495044002,-0.87,-0.49,0.07
2495046034,-0.87,-0.49,0.07
2495048007,-0.87,-0.49,0.07
2495050001,-0.87,-0.49,0.07
2495052032,-0.87,-0.49,0.07
2495054010,-0.86,-0.49,0.07
2495055976,-0.86,-0.49,0.07
2495057980,-0.86,-0.49,0.07
2495059979,-0.86,-0.49,0.07
2495061976,-0.86,-0.49,0.07
2495063977,-0.86,-0.49,0.07
2495065978,-0.86,-0.49,0.07
2495067985,-0.86,-0.49,0.07
2495069979,-0.86,-0.49,0.07
2495071979,-0.86,-0.49,0.07
2495073979,-0.86,-0.49,0.08
2495076001,-0.86,-0.49,0.08
2495077986,-0.86,-0.49,0.08
2495080033,-0.86,-0.49,0.08
2495082035,-0.86,-0.49,0.08
2495084025,-0.86,-0.49,0.08
2495086005,-0.86,-0.49,0.08
2495088006,-0.86,-0.49,0.08
2495090005,-0.86,-0.49,0.08
2495092006,-0.86,-0.49,0.08
2495094008,-0.86,-0.49,0.08
2495096012,-0.86,-0.49,0.08
2495097976,-0.86,-0.49,0.08
2495099977,-0.86,-0.49,0.08
2495102005,-0.86,-0.49,0.08
2495103980,-0.86,-0.50,0.07
2495105992,-0.86,-0.50,0.07
2495107974,-0.86,-0.50,0.07
2495109977,-0.86,-0.50,0.07
2495111972,-0.86,-0.50,0.07
2495113976,-0.86,-0.49,0.08
2495116022,-0.86,-0.49,0.08
2495117977,-0.86,-0.49,0.08
2495119977,-0.86,-0.49,0.08
2495121979,-0.86,-0.49,0.08
2495124016,-0.87,-0.49,0.08
2495126018,-0.87,-0.49,0.08
2495128030,-0.87,-0.49,0.08
2495130046,-0.87,-0.49,0.08
2495132030,-0.87,-0.49,0.08
2495134002,-0.86,-0.49,0.08
2495136006,-0.86,-0.49,0.08
2495138007,-0.86,-0.49,0.08
2495139990,-0.86,-0.49,0.08
2495141979,-0.86,-0.49,0.08
2495143986,-0.86,-0.49,0.08
2495146013,-0.86,-0.49,0.08
2495147976,-0.86,-0.49,0.08
2495149979,-0.86,-0.49,0.08
2495152002,-0.86,-0.49,0.08
2495153985,-0.86,-0.49,0.08
2495155977,-0.86,-0.49,0.07
2495157979,-0.86,-0.49,0.07
2495159976,-0.86,-0.49,0.07
2495161977,-0.86,-0.49,0.07
2495164015,-0.86,-0.49,0.07
2495166005,-0.86,-0.49,0.09
2495168006,-0.86,-0.49,0.09
2495170006,-0.86,-0.49,0.09
2495172007,-0.86,-0.49,0.09
2495174030,-0.86,-0.49,0.09
2495176063,-0.87,-0.48,0.08
2495178042,-0.87,-0.48,0.08
2495179973,-0.87,-0.48,0.08
2495181979,-0.87,-0.48,0.08
2495183980,-0.87,-0.48,0.08
2495185980,-0.87,-0.49,0.09
2495187979,-0.87,-0.49,0.09
2495189978,-0.87,-0.49,0.09
2495191976,-0.87,-0.49,0.09
2495193974,-0.87,-0.49,0.09
2495195993,-0.86,-0.49,0.09
2495197977,-0.86,-0.49,0.09
2495199976,-0.86,-0.49,0.09
2495201996,-0.86,-0.49,0.09
2495204010,-0.86,-0.49,0.09
2495206016,-0.86,-0.49,0.08
2495208009,-0.86,-0.49,0.08
2495210009,-0.86,-0.49,0.08
2495212011,-0.86,-0.49,0.08
2495214013,-0.86,-0.49,0.08
2495215978,-0.86,-0.49,0.09
2495218020,-0.86,-0.49,0.09
2495220007,-0.86,-0.49,0.09
2495222080,-0.86,-0.49,0.09
2495224008,-0.86,-0.49,0.09
2495226001,-0.87,-0.48,0.08
2495227981,-0.87,-0.48,0.08
2495229977,-0.87,-0.48,0.08
2495231976,-0.87,-0.48,0.08
2495233976,-0.87,-0.48,0.08
2495235979,-0.86,-0.49,0.08
2495237977,-0.86,-0.49,0.08
2495239976,-0.86,-0.49,0.08
2495241976,-0.86,-0.49,0.08
2495244023,-0.86,-0.49,0.08
2495246037,-0.87,-0.48,0.08
2495248007,-0.87,-0.48,0.08
2495250007,-0.87,-0.48,0.08
2495252037,-0.87,-0.48,0.08
2495254009,-0.87,-0.48,0.08
2495256018,-0.88,-0.48,0.08
2495257981,-0.88,-0.48,0.08
2495259981,-0.88,-0.48,0.08
2495261980,-0.88,-0.48,0.08
2495263977,-0.88,-0.48,0.08
2495265979,-0.87,-0.48,0.08
2495268003,-0.87,-0.48,0.08
2495270146,-0.87,-0.48,0.08
2495272011,-0.87,-0.48,0.08
2495273979,-0.87,-0.48,0.08
2495276092,-0.86,-0.49,0.08
2495277988,-0.86,-0.49,0.08
2495279978,-0.86,-0.49,0.08
2495281978,-0.86,-0.49,0.08
2495284019,-0.86,-0.49,0.08
2495286003,-0.87,-0.48,0.08
2495288001,-0.87,-0.48,0.08
2495290006,-0.87,-0.48,0.08
2495292007,-0.87,-0.48,0.08
2495294008,-0.87,-0.48,0.08
2495296008,-0.87,-0.48,0.09
2495297979,-0.87,-0.48,0.09
2495299979,-0.87,-0.48,0.09
2495301996,-0.87,-0.48,0.09
2495303984,-0.87,-0.48,0.09
2495305987,-0.87,-0.49,0.09
2495307977,-0.87,-0.49,0.09
2495309978,-0.87,-0.49,0.09
2495311978,-0.87,-0.49,0.09
2495313978,-0.87,-0.49,0.09
2495316096,-0.86,-0.49,0.09
2495318013,-0.86,-0.49,0.09
2495320013,-0.86,-0.49,0.09
2495321979,-0.86,-0.49,0.09
2495324020,-0.86,-0.49,0.09
2495326112,-0.87,-0.49,0.09
2495328010,-0.87,-0.49,0.09
2495330007,-0.87,-0.49,0.09
2495332005,-0.87,-0.49,0.09
2495334007,-0.87,-0.49,0.09
2495336007,-0.86,-0.49,0.07
2495337978,-0.86,-0.49,0.07
2495339976,-0.86,-0.49,0.07
2495341980,-0.86,-0.49,0.07
2495343979,-0.86,-0.49,0.07
2495346012,-0.86,-0.49,0.07
2495347976,-0.86,-0.49,0.08
2495349985,-0.86,-0.49,0.08
2495351995,-0.86,-0.49,0.08
2495353980,-0.86,-0.49,0.08
2495355979,-0.86,-0.49,0.08
2495357977,-0.87,-0.49,0.09
2495359976,-0.87,-0.49,0.09
2495361979,-0.87,-0.49,0.09
2495364014,-0.87,-0.49,0.09
2495366006,-0.87,-0.49,0.09
2495368006,-0.87,-0.49,0.08
2495370006,-0.87,-0.49,0.08
2495372005,-0.87,-0.49,0.08
2495374005,-0.87,-0.49,0.08
2495376020,-0.87,-0.49,0.08
2495377982,-0.86,-0.50,0.08
2495380057,-0.86,-0.50,0.08
2495382024,-0.86,-0.50,0.08
2495383979,-0.86,-0.50,0.08
2495385976,-0.86,-0.50,0.08
2495387975,-0.86,-0.49,0.09
2495389976,-0.86,-0.49,0.09
2495391976,-0.86,-0.49,0.09
2495393975,-0.86,-0.49,0.09
2495395987,-0.86,-0.49,0.09
2495397972,-0.86,-0.48,0.08
2495399975,-0.86,-0.48,0.08
2495402001,-0.86,-0.48,0.08
2495404017,-0.86,-0.48,0.08
2495406012,-0.86,-0.48,0.08
2495407999,-0.86,-0.49,0.08
2495410009,-0.86,-0.49,0.08
2495412007,-0.86,-0.49,0.08
2495414003,-0.86,-0.49,0.08
2495416005,-0.86,-0.49,0.08
2495417977,-0.87,-0.48,0.07
2495419975,-0.87,-0.48,0.07
2495422025,-0.87,-0.48,0.07
2495423977,-0.87,-0.48,0.07
2495426002,-0.87,-0.48,0.07
2495427982,-0.87,-0.48,0.07
2495429975,-0.87,-0.48,0.07
2495431980,-0.87,-0.48,0.07
2495433979,-0.87,-0.48,0.07
2495435978,-0.87,-0.48,0.07
2495438051,-0.87,-0.49,0.08
2495440019,-0.87,-0.49,0.08
2495441977,-0.87,-0.49,0.08
2495444018,-0.87,-0.49,0.08
2495446032,-0.87,-0.49,0.08
2495448005,-0.87,-0.49,0.08
2495450002,-0.87,-0.49,0.08
2495452033,-0.87,-0.49,0.08
2495454007,-0.87,-0.49,0.08
2495456006,-0.87,-0.49,0.08
2495457977,-0.87,-0.49,0.08
2495459976,-0.87,-0.49,0.08
2495461981,-0.87,-0.49,0.08
2495463979,-0.87,-0.49,0.08
2495465981,-0.87,-0.49,0.08
2495467978,-0.87,-0.49,0.07
2495469977,-0.87,-0.49,0.07
2495471975,-0.87,-0.49,0.07
2495473979,-0.87,-0.49,0.07
2495475994,-0.87,-0.49,0.07
2495477982,-0.86,-0.49,0.07
2495479979,-0.86,-0.49,0.07
2495481981,-0.86,-0.49,0.07
2495484056,-0.86,-0.49,0.07
2495486037,-0.86,-0.49,0.07
2495488009,-0.86,-0.49,0.08
2495490007,-0.86,-0.49,0.08
2495492006,-0.86,-0.49,0.08
2495494005,-0.86,-0.49,0.08
2495496006,-0.86,-0.49,0.08
2495498007,-0.86,-0.49,0.07
2495499980,-0.86,-0.49,0.07
2495502001,-0.86,-0.49,0.07
2495503984,-0.86,-0.49,0.07
2495505999,-0.86,-0.49,0.07
2495507977,-0.86,-0.49,0.07
2495509976,-0.86,-0.49,0.07
2495511980,-0.86,-0.49,0.07
2495513975,-0.86,-0.49,0.07
2495515974,-0.86,-0.49,0.07
2495517984,-0.86,-0.50,0.08
2495519978,-0.86,-0.50,0.08
2495521977,-0.86,-0.50,0.08
2495524009,-0.86,-0.50,0.08
2495526024,-0.86,-0.50,0.08
2495528004,-0.87,-0.49,0.08
2495530005,-0.87,-0.49,0.08
2495532003,-0.87,-0.49,0.08
2495534007,-0.87,-0.49,0.08
2495536006,-0.87,-0.49,0.08
2495537984,-0.87,-0.49,0.08
2495539984,-0.87,-0.49,0.07
2495541979,-0.87,-0.49,0.07
2495543982,-0.87,-0.49,0.07
2495546010,-0.87,-0.49,0.07
2495548024,-0.87,-0.49,0.07
2495550022,-0.86,-0.49,0.07
2495552051,-0.86,-0.49,0.07
2495553973,-0.86,-0.49,0.07
2495555975,-0.86,-0.49,0.07
2495557979,-0.86,-0.49,0.07
2495559975,-0.86,-0.49,0.08
2495561977,-0.86,-0.49,0.08
2495564021,-0.86,-0.49,0.08
2495566005,-0.86,-0.49,0.08
2495568006,-0.86,-0.49,0.08
2495570008,-0.86,-0.49,0.07
2495572008,-0.86,-0.49,0.07
2495574005,-0.86,-0.49,0.07
2495576014,-0.86,-0.49,0.07
2495577977,-0.86,-0.49,0.07
2495579978,-0.86,-0.48,0.08
2495581974,-0.86,-0.48,0.08
2495583980,-0.86,-0.48,0.08
2495585977,-0.86,-0.48,0.08
2495587975,-0.86,-0.48,0.08
2495589977,-0.87,-0.49,0.08
2495591977,-0.87,-0.49,0.08
2495593977,-0.87,-0.49,0.08
2495595992,-0.87,-0.49,0.08
2495597977,-0.87,-0.49,0.08
2495599975,-0.87,-0.49,0.08
2495601990,-0.87,-0.49,0.08
2495604010,-0.87,-0.49,0.08
2495606010,-0.87,-0.49,0.08
2495608049,-0.87,-0.49,0.08
2495610026,-0.86,-0.49,0.09
2495612022,-0.86,-0.49,0.09
2495614006,-0.86,-0.49,0.09
2495616002,-0.86,-0.49,0.09
2495618003,-0.86,-0.49,0.09
2495619992,-0.87,-0.48,0.09
2495622050,-0.87,-0.48,0.09
2495623977,-0.87,-0.48,0.09
2495626005,-0.87,-0.48,0.09
2495628023,-0.87,-0.48,0.09
2495629974,-0.87,-0.48,0.09
2495631977,-0.87,-0.48,0.09
2495633977,-0.87,-0.48,0.09
2495635974,-0.87,-0.48,0.09
2495637979,-0.87,-0.48,0.09
2495639977,-0.86,-0.48,0.09
2495641977,-0.86,-0.48,0.09
2495644012,-0.86,-0.48,0.09
2495646036,-0.86,-0.48,0.09
2495648004,-0.86,-0.48,0.09
2495650006,-0.87,-0.48,0.08
2495652032,-0.87,-0.48,0.08
2495654003,-0.87,-0.48,0.08
2495656007,-0.87,-0.48,0.08
2495657979,-0.87,-0.48,0.08
2495659979,-0.87,-0.48,0.08
2495661979,-0.87,-0.48,0.08
2495663980,-0.87,-0.48,0.08
2495665979,-0.87,-0.48,0.08
2495667977,-0.87,-0.48,0.08
2495670064,-0.87,-0.48,0.08
2495672024,-0.87,-0.48,0.08
2495673977,-0.87,-0.48,0.08
2495676094,-0.87,-0.48,0.08
2495677991,-0.87,-0.48,0.08
2495679975,-0.86,-0.49,0.07
2495681979,-0.86,-0.49,0.07
2495684022,-0.86,-0.49,0.07
2495686005,-0.86,-0.49,0.07
2495688002,-0.86,-0.49,0.07
2495690007,-0.87,-0.49,0.07
2495692006,-0.87,-0.49,0.07
2495694005,-0.87,-0.49,0.07
2495696013,-0.87,-0.49,0.07
2495697980,-0.87,-0.49,0.07
2495699978,-0.87,-0.49,0.08
2495701996,-0.87,-0.49,0.08
2495703982,-0.87,-0.49,0.08
2495705989,-0.87,-0.49,0.08
2495707974,-0.87,-0.49,0.08
2495709979,-0.87,-0.49,0.07
2495711978,-0.87,-0.49,0.07
2495713976,-0.87,-0.49,0.07
2495715976,-0.87,-0.49,0.07
2495717974,-0.87,-0.49,0.07
2495719977,-0.87,-0.49,0.07
2495721974,-0.88,-0.48,0.07
2495724008,-0.88,-0.48,0.07
2495726099,-0.88,-0.48,0.07
2495728021,-0.88,-0.48,0.07
2495730049,-0.88,-0.48,0.07
2495732000,-0.86,-0.50,0.07
2495734115,-0.86,-0.50,0.07
2495736042,-0.86,-0.50,0.07
2495738007,-0.86,-0.50,0.07
2495740013,-0.86,-0.50,0.07
2495741993,-0.86,-0.48,0.07
2495743981,-0.86,-0.48,0.07
2495746011,-0.86,-0.48,0.07
2495747976,-0.86,-0.48,0.07
2495749976,-0.86,-0.48,0.07
2495752000,-0.86,-0.49,0.09
2495753980,-0.86,-0.49,0.09
2495755991,-0.86,-0.49,0.09
2495757975,-0.86,-0.49,0.09
2495759979,-0.86,-0.49,0.09
2495761976,-0.86,-0.49,0.08
2495764018,-0.86,-0.49,0.08
2495766009,-0.86,-0.49,0.08
2495768011,-0.86,-0.49,0.08
2495770008,-0.86,-0.49,0.08
2495772008,-0.86,-0.49,0.07
2495774013,-0.86,-0.49,0.07
2495775997,-0.86,-0.49,0.07
2495777981,-0.86,-0.49,0.07
2495779978,-0.86,-0.49,0.07
2495781977,-0.87,-0.48,0.09
2495783976,-0.87,-0.48,0.09
2495785981,-0.87,-0.48,0.09
2495787977,-0.87,-0.48,0.09
2495789978,-0.87,-0.48,0.09
2495791976,-0.87,-0.49,0.10
2495794054,-0.87,-0.49,0.10
2495796025,-0.87,-0.49,0.10
2495797977,-0.87,-0.49,0.10
2495799977,-0.87,-0.49,0.10
2495801999,-0.86,-0.49,0.08
2495804024,-0.86,-0.49,0.08
2495806016,-0.86,-0.49,0.08
2495808011,-0.86,-0.49,0.08
2495810008,-0.86,-0.49,0.08
2495812011,-0.86,-0.48,0.11
2495814010,-0.86,-0.48,0.11
2495816011,-0.86,-0.48,0.11
2495817977,-0.86,-0.48,0.11
2495819979,-0.86,-0.48,0.11
2495821980,-0.87,-0.48,0.11
2495823979,-0.87,-0.48,0.11
2495826002,-0.87,-0.48,0.11
2495827982,-0.87,-0.48,0.11
2495829979,-0.87,-0.48,0.11
2495832022,-0.86,-0.48,0.10
2495833977,-0.86,-0.48,0.10
2495835980,-0.86,-0.48,0.10
2495837980,-0.86,-0.48,0.10
2495839979,-0.86,-0.48,0.10
2495841974,-0.86,-0.48,0.11
2495844017,-0.86,-0.48,0.11
2495846049,-0.86,-0.48,0.11
2495848008,-0.86,-0.48,0.11
2495850007,-0.86,-0.48,0.11
2495852037,-0.87,-0.48,0.10
2495854011,-0.87,-0.48,0.10
2495856019,-0.87,-0.48,0.10
2495858063,-0.87,-0.48,0.10
2495860019,-0.87,-0.48,0.10
2495861977,-0.86,-0.48,0.10
2495863978,-0.86,-0.48,0.10
2495865975,-0.86,-0.48,0.10
2495867977,-0.86,-0.48,0.10
2495869978,-0.86,-0.48,0.10
2495871977,-0.86,-0.48,0.10
2495873989,-0.86,-0.48,0.10
2495876002,-0.86,-0.48,0.10
2495877985,-0.86,-0.48,0.10
2495879975,-0.86,-0.48,0.10
2495881975,-0.86,-0.49,0.10
2495884022,-0.86,-0.49,0.10
2495886004,-0.86,-0.49,0.10
2495888003,-0.86,-0.49,0.10
2495890003,-0.86,-0.49,0.10
2495892007,-0.86,-0.49,0.11
2495894009,-0.86,-0.49,0.11
2495896008,-0.86,-0.49,0.11
2495897977,-0.86,-0.49,0.11
2495899979,-0.86,-0.49,0.11
2495901996,-0.86,-0.49,0.10
2495903979,-0.86,-0.49,0.10
2495905989,-0.86,-0.49,0.10
2495907974,-0.86,-0.49,0.10
2495909980,-0.86,-0.49,0.10
2495911979,-0.86,-0.49,0.10
2495913979,-0.86,-0.50,0.10
2495915978,-0.86,-0.50,0.10
2495917998,-0.86,-0.50,0.10
2495920112,-0.86,-0.50,0.10
2495922013,-0.86,-0.50,0.10
2495924018,-0.86,-0.49,0.09
2495926021,-0.86,-0.49,0.09
2495928005,-0.86,-0.49,0.09
2495930006,-0.86,-0.49,0.09
2495932006,-0.86,-0.49,0.09
2495934040,-0.87,-0.48,0.09
2495936011,-0.87,-0.48,0.09
2495937981,-0.87,-0.48,0.09
2495939985,-0.87,-0.48,0.09
2495941977,-0.87,-0.48,0.09
2495943983,-0.86,-0.49,0.08
2495946012,-0.86,-0.49,0.08
2495947975,-0.86,-0.49,0.08
2495949976,-0.86,-0.49,0.08
2495951994,-0.86,-0.49,0.08
2495953977,-0.86,-0.48,0.08
2495955976,-0.86,-0.48,0.08
2495957976,-0.86,-0.48,0.08
2495959975,-0.86,-0.48,0.08
2495961973,-0.86,-0.48,0.08
2495964018,-0.87,-0.48,0.09
2495966005,-0.87,-0.48,0.09
2495968008,-0.87,-0.48,0.09
2495970006,-0.87,-0.48,0.09
2495972006,-0.87,-0.48,0.09
2495974005,-0.88,-0.48,0.08
2495976015,-0.88,-0.48,0.08
2495977984,-0.88,-0.48,0.08
2495979997,-0.88,-0.48,0.08
2495982052,-0.88,-0.48,0.08
2495984015,-0.88,-0.47,0.08
2495985981,-0.88,-0.47,0.08
2495987980,-0.88,-0.47,0.08
2495989979,-0.88,-0.47,0.08
2495991978,-0.88,-0.47,0.08
2495993980,-0.88,-0.47,0.08
2495995988,-0.88,-0.47,0.08
2495997974,-0.88,-0.47,0.08
2495999977,-0.88,-0.47,0.08
2496002000,-0.88,-0.47,0.08
2496004022,-0.87,-0.47,0.09
2496006021,-0.87,-0.47,0.09
2496008010,-0.87,-0.47,0.09
2496010007,-0.87,-0.47,0.09
2496012010,-0.87,-0.47,0.09
2496014006,-0.87,-0.47,0.09
2496016005,-0.87,-0.47,0.09
2496018007,-0.87,-0.47,0.09
2496019976,-0.87,-0.47,0.09
2496021980,-0.87,-0.47,0.09
2496023979,-0.86,-0.48,0.09
2496026003,-0.86,-0.48,0.09
2496027978,-0.86,-0.48,0.09
2496029979,-0.86,-0.48,0.09
2496031980,-0.86,-0.48,0.09
2496033975,-0.87,-0.48,0.09
2496035988,-0.87,-0.48,0.09
2496038013,-0.87,-0.48,0.09
2496039979,-0.87,-0.48,0.09
2496041979,-0.87,-0.48,0.09
2496044069,-0.87,-0.48,0.09
2496046042,-0.87,-0.48,0.09
2496048012,-0.87,-0.48,0.09
2496050004,-0.87,-0.48,0.09
2496052035,-0.87,-0.48,0.09
2496054009,-0.87,-0.48,0.09
2496056007,-0.87,-0.48,0.09
2496058004,-0.87,-0.48,0.09
2496060009,-0.87,-0.48,0.09
2496061980,-0.87,-0.48,0.09
2496063979,-0.86,-0.49,0.10
2496065977,-0.86,-0.49,0.10
2496067978,-0.86,-0.49,0.10
2496069982,-0.86,-0.49,0.10
2496071980,-0.86,-0.49,0.10
2496073977,-0.86,-0.49,0.10
2496076092,-0.86,-0.49,0.10
2496077987,-0.86,-0.49,0.10
2496079974,-0.86,-0.49,0.10
2496081974,-0.86,-0.49,0.10
2496083976,-0.87,-0.50,0.07
2496086011,-0.87,-0.50,0.07
2496088011,-0.87,-0.50,0.07
2496090008,-0.87,-0.50,0.07
2496092056,-0.87,-0.50,0.07
2496094051,-0.86,-0.49,0.08
2496096015,-0.86,-0.49,0.08
2496098006,-0.86,-0.49,0.08
2496100012,-0.86,-0.49,0.08
2496102007,-0.86,-0.49,0.08
2496103984,-0.86,-0.49,0.08
2496105990,-0.86,-0.50,0.10
2496107976,-0.86,-0.50,0.10
2496109976,-0.86,-0.50,0.10
2496111979,-0.86,-0.50,0.10
2496113976,-0.86,-0.50,0.10
2496115977,-0.86,-0.49,0.08
2496117978,-0.86,-0.49,0.08
2496119974,-0.86,-0.49,0.08
2496121977,-0.86,-0.49,0.08
2496123978,-0.86,-0.49,0.08
2496126112,-0.86,-0.49,0.08
2496128017,-0.86,-0.49,0.08
2496130001,-0.86,-0.49,0.08
2496132009,-0.86,-0.49,0.08
2496134014,-0.86,-0.49,0.08
2496136012,-0.86,-0.50,0.07
2496138022,-0.86,-0.50,0.07
2496140020,-0.86,-0.50,0.07
2496141976,-0.86,-0.50,0.07
2496143978,-0.86,-0.50,0.07
2496146012,-0.87,-0.50,0.07
2496147979,-0.87,-0.50,0.07
2496149976,-0.87,-0.50,0.07
2496152000,-0.87,-0.50,0.07
2496154066,-0.87,-0.50,0.07
2496156018,-0.87,-0.50,0.07
2496157976,-0.87,-0.50,0.07
2496159977,-0.87,-0.50,0.07
2496161979,-0.87,-0.50,0.07
2496163977,-0.87,-0.50,0.07
2496166027,-0.87,-0.50,0.06
2496168011,-0.87,-0.50,0.06
2496170008,-0.87,-0.50,0.06
2496172007,-0.87,-0.50,0.06
2496174006,-0.87,-0.50,0.06
2496176028,-0.85,-0.49,0.09
2496178011,-0.85,-0.49,0.09
2496179976,-0.85,-0.49,0.09
2496181979,-0.85,-0.49,0.09
2496183977,-0.85,-0.49,0.09
2496185980,-0.85,-0.52,0.05
2496187979,-0.85,-0.52,0.05
2496189979,-0.85,-0.52,0.05
2496191976,-0.85,-0.52,0.05
2496193986,-0.85,-0.52,0.05
2496195989,-0.87,-0.50,0.04
2496197978,-0.87,-0.50,0.04
2496199979,-0.87,-0.50,0.04
2496201994,-0.87,-0.50,0.04
2496203987,-0.87,-0.50,0.04
2496206021,-0.86,-0.46,0.06
2496208010,-0.86,-0.46,0.06
2496210006,-0.86,-0.46,0.06
2496212011,-0.86,-0.46,0.06
2496214014,-0.86,-0.46,0.06
2496216062,-0.86,-0.48,0.08
2496218042,-0.86,-0.48,0.08
2496220016,-0.86,-0.48,0.08
2496221980,-0.86,-0.48,0.08
2496223979,-0.86,-0.48,0.08
2496226156,-0.88,-0.49,0.03
2496228110,-0.88,-0.49,0.03
2496230015,-0.88,-0.49,0.03
2496231984,-0.88,-0.49,0.03
2496233979,-0.88,-0.49,0.03
2496235975,-0.88,-0.50,0.03
2496237980,-0.88,-0.50,0.03
2496239983,-0.88,-0.50,0.03
2496242015,-0.88,-0.50,0.03
2496243982,-0.88,-0.50,0.03
2496246052,-0.90,-0.48,0.06
2496248007,-0.90,-0.48,0.06
2496250000,-0.90,-0.48,0.06
2496252038,-0.90,-0.48,0.06
2496254004,-0.90,-0.48,0.06
2496256012,-0.88,-0.48,0.03
2496258012,-0.88,-0.48,0.03
2496259980,-0.88,-0.48,0.03
2496261980,-0.88,-0.48,0.03
2496263980,-0.88,-0.48,0.03
2496265980,-0.87,-0.49,0.04
2496267984,-0.87,-0.49,0.04
2496269976,-0.87,-0.49,0.04
2496271981,-0.87,-0.49,0.04
2496273978,-0.87,-0.49,0.04
2496276001,-0.85,-0.48,0.04
2496278017,-0.85,-0.48,0.04
2496280042,-0.85,-0.48,0.04
2496282014,-0.85,-0.48,0.04
2496283972,-0.85,-0.48,0.04
2496286019,-0.85,-0.50,0.05
2496288007,-0.85,-0.50,0.05
2496290008,-0.85,-0.50,0.05
2496292009,-0.85,-0.50,0.05
2496294011,-0.85,-0.50,0.05
2496296008,-0.85,-0.50,0.05
2496298005,-0.87,-0.50,0.05
2496299974,-0.87,-0.50,0.05
2496302000,-0.87,-0.50,0.05
2496303984,-0.87,-0.50,0.05
2496305991,-0.87,-0.50,0.05
2496307975,-0.86,-0.50,0.05
2496309979,-0.86,-0.50,0.05
2496311977,-0.86,-0.50,0.05
2496313978,-0.86,-0.50,0.05
2496315974,-0.86,-0.50,0.05
2496317978,-0.88,-0.50,0.05
2496319976,-0.88,-0.50,0.05
2496321980,-0.88,-0.50,0.05
2496323979,-0.88,-0.50,0.05
2496326019,-0.88,-0.50,0.05
2496328009,-0.86,-0.50,0.04
2496330009,-0.86,-0.50,0.04
2496332009,-0.86,-0.50,0.04
2496334009,-0.86,-0.50,0.04
2496336011,-0.86,-0.50,0.04
2496338033,-0.86,-0.50,0.06
2496340065,-0.86,-0.50,0.06
2496342022,-0.86,-0.50,0.06
2496343980,-0.86,-0.50,0.06
2496346040,-0.86,-0.50,0.06
2496347974,-0.86,-0.49,0.05
2496349975,-0.86,-0.49,0.05
2496352000,-0.86,-0.49,0.05
2496353977,-0.86,-0.49,0.05
2496355975,-0.86,-0.49,0.05
2496357978,-0.86,-0.50,0.05
2496359972,-0.86,-0.50,0.05
2496361975,-0.86,-0.50,0.05
2496363974,-0.86,-0.50,0.05
2496366019,-0.86,-0.50,0.05
2496368007,-0.86,-0.50,0.05
2496370005,-0.86,-0.50,0.05
2496372005,-0.86,-0.50,0.05
2496374005,-0.86,-0.50,0.05
2496376018,-0.86,-0.50,0.05
2496378012,-0.85,-0.50,0.05
2496379980,-0.85,-0.50,0.05
2496381981,-0.85,-0.50,0.05
2496383979,-0.85,-0.50,0.05
2496385980,-0.85,-0.50,0.05
2496387977,-0.87,-0.50,0.06
2496389976,-0.87,-0.50,0.06
2496391981,-0.87,-0.50,0.06
2496393981,-0.87,-0.50,0.06
2496395989,-0.87,-0.50,0.06
2496397982,-0.87,-0.50,0.06
2496399985,-0.87,-0.50,0.06
2496401995,-0.87,-0.50,0.06
2496404043,-0.87,-0.50,0.06
2496406035,-0.87,-0.50,0.06
2496408019,-0.87,-0.50,0.06
2496410005,-0.87,-0.50,0.06
2496412003,-0.87,-0.50,0.06
2496414006,-0.87,-0.50,0.06
2496416006,-0.87,-0.50,0.06
2496418004,-0.85,-0.50,0.05
2496420007,-0.85,-0.50,0.05
2496421976,-0.85,-0.50,0.05
2496423978,-0.85,-0.50,0.05
2496426006,-0.85,-0.50,0.05
2496427980,-0.85,-0.50,0.08
2496429979,-0.85,-0.50,0.08
2496431978,-0.85,-0.50,0.08
2496433981,-0.85,-0.50,0.08
2496435980,-0.85,-0.50,0.08
2496437979,-0.86,-0.49,0.07
2496439978,-0.86,-0.49,0.07
2496441978,-0.86,-0.49,0.07
2496443978,-0.86,-0.49,0.07
2496446043,-0.86,-0.49,0.07
2496448015,-0.87,-0.49,0.08
2496450009,-0.87,-0.49,0.08
2496452158,-0.87,-0.49,0.08
2496454041,-0.87,-0.49,0.08
2496456008,-0.87,-0.49,0.08
2496458008,-0.87,-0.48,0.08
2496460011,-0.87,-0.48,0.08
2496462011,-0.87,-0.48,0.08
2496463981,-0.87,-0.48,0.08
2496465980,-0.87,-0.48,0.08
2496467978,-0.88,-0.48,0.08
2496469977,-0.88,-0.48,0.08
2496471977,-0.88,-0.48,0.08
2496473976,-0.88,-0.48,0.08
2496476093,-0.88,-0.48,0.08
2496477986,-0.86,-0.51,0.08
2496479977,-0.86,-0.51,0.08
2496481978,-0.86,-0.51,0.08
2496483974,-0.86,-0.51,0.08
2496485975,-0.86,-0.51,0.08
2496488013,-0.86,-0.51,0.08
2496490009,-0.86,-0.47,0.09
2496492010,-0.86,-0.47,0.09
2496494011,-0.86,-0.47,0.09
2496496015,-0.86,-0.47,0.09
2496498019,-0.86,-0.47,0.09
2496500006,-0.86,-0.48,0.07
2496501996,-0.86,-0.48,0.07
2496503981,-0.86,-0.48,0.07
2496505999,-0.86,-0.48,0.07
2496507976,-0.86,-0.48,0.07
2496509979,-0.85,-0.51,0.09
2496512034,-0.85,-0.51,0.09
2496514034,-0.85,-0.51,0.09
2496515992,-0.85,-0.51,0.09
2496517977,-0.85,-0.51,0.09
2496519977,-0.86,-0.47,0.10
2496521975,-0.86,-0.47,0.10
2496523979,-0.86,-0.47,0.10
2496526094,-0.86,-0.47,0.10
2496528028,-0.86,-0.47,0.10
2496530005,-0.87,-0.49,0.10
2496532009,-0.87,-0.49,0.10
2496534010,-0.87,-0.49,0.10
2496536007,-0.87,-0.49,0.10
2496538007,-0.87,-0.49,0.10
2496540012,-0.87,-0.50,0.10
2496541980,-0.87,-0.50,0.10
2496543983,-0.87,-0.50,0.10
2496546015,-0.87,-0.50,0.10
2496547989,-0.87,-0.50,0.10
2496550016,-0.85,-0.50,0.08
2496552003,-0.85,-0.50,0.08
2496553977,-0.85,-0.50,0.08
2496555971,-0.85,-0.50,0.08
2496557975,-0.85,-0.50,0.08
2496559974,-0.85,-0.50,0.10
2496561974,-0.85,-0.50,0.10
2496563976,-0.85,-0.50,0.10
2496565981,-0.85,-0.50,0.10
2496568021,-0.85,-0.50,0.10
2496570008,-0.87,-0.48,0.10
2496572005,-0.87,-0.48,0.10
2496574062,-0.87,-0.48,0.10
2496576041,-0.87,-0.48,0.10
2496578005,-0.87,-0.48,0.10
2496580003,-0.88,-0.47,0.11
2496582009,-0.88,-0.47,0.11
2496583979,-0.88,-0.47,0.11
2496585979,-0.88,-0.47,0.11
2496587977,-0.88,-0.47,0.11
2496589976,-0.86,-0.45,0.09
2496591984,-0.86,-0.45,0.09
2496593996,-0.86,-0.45,0.09
2496595990,-0.86,-0.45,0.09
2496597974,-0.86,-0.45,0.09
2496599974,-0.86,-0.49,0.10
2496601993,-0.86,-0.49,0.10
2496603982,-0.86,-0.49,0.10
2496605989,-0.86,-0.49,0.10
2496608012,-0.86,-0.49,0.10
2496610006,-0.87,-0.48,0.11
2496612002,-0.87,-0.48,0.11
2496614001,-0.87,-0.48,0.11
2496616005,-0.87,-0.48,0.11
2496618005,-0.87,-0.48,0.11
2496620007,-0.87,-0.48,0.11
2496622050,-0.87,-0.48,0.11
2496623975,-0.87,-0.48,0.11
2496626005,-0.87,-0.48,0.11
2496627982,-0.87,-0.48,0.11
2496629977,-0.87,-0.47,0.09
2496631976,-0.87,-0.47,0.09
2496633980,-0.87,-0.47,0.09
2496635980,-0.87,-0.47,0.09
2496638031,-0.87,-0.47,0.09
2496640033,-0.86,-0.50,0.11
2496641993,-0.86,-0.50,0.11
2496643976,-0.86,-0.50,0.11
2496646005,-0.86,-0.50,0.11
2496648018,-0.86,-0.50,0.11
2496650033,-0.85,-0.49,0.09
2496652083,-0.85,-0.49,0.09
2496654004,-0.85,-0.49,0.09
2496656007,-0.85,-0.49,0.09
2496658008,-0.85,-0.49,0.09
2496660015,-0.87,-0.49,0.10
2496662007,-0.87,-0.49,0.10
2496663980,-0.87,-0.49,0.10
2496665978,-0.87,-0.49,0.10
2496667976,-0.87,-0.49,0.10
2496669976,-0.86,-0.49,0.09
2496671979,-0.86,-0.49,0.09
2496673977,-0.86,-0.49,0.09
2496675999,-0.86,-0.49,0.09
2496677986,-0.86,-0.49,0.09
2496679978,-0.86,-0.49,0.09
2496681974,-0.87,-0.48,0.10
2496683974,-0.87,-0.48,0.10
2496685979,-0.87,-0.48,0.10
2496688009,-0.87,-0.48,0.10
2496690006,-0.87,-0.48,0.10
2496692008,-0.87,-0.47,0.09
2496694006,-0.87,-0.47,0.09
2496696014,-0.87,-0.47,0.09
2496698051,-0.87,-0.47,0.09
2496700030,-0.87,-0.47,0.09
2496702046,-0.88,-0.46,0.08
2496704009,-0.88,-0.46,0.08
2496705990,-0.88,-0.46,0.08
2496707979,-0.88,-0.46,0.08
2496709976,-0.88,-0.46,0.08
2496711976,-0.87,-0.47,0.08
2496713980,-0.87,-0.47,0.08
2496715975,-0.87,-0.47,0.08
2496717979,-0.87,-0.47,0.08
2496719977,-0.87,-0.47,0.08
2496721976,-0.86,-0.48,0.08
2496723977,-0.86,-0.48,0.08
2496726009,-0.86,-0.48,0.08
2496728012,-0.86,-0.48,0.08
2496730004,-0.86,-0.48,0.08
2496732010,-0.87,-0.48,0.08
2496734011,-0.87,-0.48,0.08
2496736010,-0.87,-0.48,0.08
2496738008,-0.87,-0.48,0.08
2496740012,-0.87,-0.48,0.08
2496741979,-0.87,-0.49,0.07
2496743983,-0.87,-0.49,0.07
2496746017,-0.87,-0.49,0.07
2496747974,-0.87,-0.49,0.07
2496749976,-0.87,-0.49,0.07
2496752021,-0.87,-0.48,0.07
2496754027,-0.87,-0.48,0.07
2496755988,-0.87,-0.48,0.07
2496757981,-0.87,-0.48,0.07
2496760086,-0.87,-0.48,0.07
2496762010,-0.88,-0.48,0.08
2496763978,-0.88,-0.48,0.08
2496765980,-0.88,-0.48,0.08
2496768022,-0.88,-0.48,0.08
2496770008,-0.88,-0.48,0.08
2496772008,-0.87,-0.50,0.07
2496774010,-0.87,-0.50,0.07
2496776029,-0.87,-0.50,0.07
2496778013,-0.87,-0.50,0.07
2496780011,-0.87,-0.50,0.07
2496781980,-0.87,-0.50,0.07
2496783980,-0.87,-0.50,0.07
2496785980,-0.87,-0.50,0.07
2496787979,-0.87,-0.50,0.07
2496789979,-0.87,-0.50,0.07
2496791981,-0.87,-0.49,0.07
2496793974,-0.87,-0.49,0.07
2496795993,-0.87,-0.49,0.07
2496797976,-0.87,-0.49,0.07
2496799976,-0.87,-0.49,0.07
2496801989,-0.86,-0.49,0.06
2496803982,-0.86,-0.49,0.06
2496805992,-0.86,-0.49,0.06
2496808014,-0.86,-0.49,0.06
2496810038,-0.86,-0.49,0.06
2496812070,-0.86,-0.49,0.06
2496814042,-0.86,-0.49,0.06
2496816005,-0.86,-0.49,0.06
2496818005,-0.86,-0.49,0.06
2496820004,-0.86,-0.49,0.06
2496822002,-0.86,-0.49,0.07
2496823981,-0.86,-0.49,0.07
2496826003,-0.86,-0.49,0.07
2496827985,-0.86,-0.49,0.07
2496829984,-0.86,-0.49,0.07
2496831979,-0.87,-0.50,0.07
2496833976,-0.87,-0.50,0.07
2496835974,-0.87,-0.50,0.07
2496837980,-0.87,-0.50,0.07
2496839980,-0.87,-0.50,0.07
2496841977,-0.87,-0.50,0.07
2496843986,-0.87,-0.50,0.07
2496846007,-0.87,-0.50,0.07
2496848016,-0.87,-0.50,0.07
2496850004,-0.87,-0.50,0.07
2496852030,-0.86,-0.50,0.06
2496854006,-0.86,-0.50,0.06
2496856004,-0.86,-0.50,0.06
2496858008,-0.86,-0.50,0.06
2496860050,-0.86,-0.50,0.06
2496861977,-0.86,-0.50,0.07
2496863977,-0.86,-0.50,0.07
2496865981,-0.86,-0.50,0.07
2496868002,-0.86,-0.50,0.07
2496870043,-0.86,-0.50,0.07
2496872007,-0.86,-0.50,0.07
2496873980,-0.86,-0.50,0.07
2496876002,-0.86,-0.50,0.07
2496877981,-0.86,-0.50,0.07
2496879978,-0.86,-0.50,0.07
2496881978,-0.86,-0.50,0.07
2496883974,-0.86,-0.50,0.06
2496885976,-0.86,-0.50,0.06
2496888022,-0.86,-0.50,0.06
2496890003,-0.86,-0.50,0.06
2496892005,-0.86,-0.50,0.06
2496894008,-0.86,-0.50,0.05
2496896005,-0.86,-0.50,0.05
2496898007,-0.86,-0.50,0.05
2496900012,-0.86,-0.50,0.05
2496901999,-0.86,-0.50,0.05
2496903984,-0.86,-0.50,0.06
2496905990,-0.86,-0.50,0.06
2496907974,-0.86,-0.50,0.06
2496909978,-0.86,-0.50,0.06
2496911976,-0.86,-0.50,0.06
2496913974,-0.86,-0.50,0.06
2496915976,-0.86,-0.50,0.06
2496917977,-0.86,-0.50,0.06
2496919975,-0.86,-0.50,0.06
2496921979,-0.86,-0.50,0.06
2496923979,-0.86,-0.50,0.05
2496925989,-0.86,-0.50,0.05
2496928014,-0.86,-0.50,0.05
2496930007,-0.86,-0.50,0.05
2496932008,-0.86,-0.50,0.05
2496934007,-0.86,-0.49,0.06
2496936009,-0.86,-0.49,0.06
2496938057,-0.86,-0.49,0.06
2496940032,-0.86,-0.49,0.06
2496942015,-0.86,-0.49,0.06
2496943984,-0.87,-0.49,0.06
2496946012,-0.87,-0.49,0.06
2496947972,-0.87,-0.49,0.06
2496949978,-0.87,-0.49,0.06
2496952004,-0.87,-0.49,0.06
2496953974,-0.87,-0.49,0.05
2496955979,-0.87,-0.49,0.05
2496958034,-0.87,-0.49,0.05
2496959981,-0.87,-0.49,0.05
2496961977,-0.87,-0.49,0.05
2496963979,-0.87,-0.49,0.06
2496965973,-0.87,-0.49,0.06
2496968019,-0.87,-0.49,0.06
2496970002,-0.87,-0.49,0.06
2496972002,-0.87,-0.49,0.06
2496974004,-0.87,-0.48,0.06
2496976021,-0.87,-0.48,0.06
2496978007,-0.87,-0.48,0.06
2496980005,-0.87,-0.48,0.06
2496981977,-0.87,-0.48,0.06
2496983980,-0.87,-0.48,0.06
2496985977,-0.87,-0.48,0.06
2496987978,-0.87,-0.48,0.06
2496989980,-0.87,-0.48,0.06
2496991976,-0.87,-0.48,0.06
2496993976,-0.87,-0.48,0.06
2496996001,-0.87,-0.48,0.06
2496998120,-0.87,-0.48,0.06
2497000014,-0.87,-0.48,0.06
2497001996,-0.87,-0.48,0.06
2497003978,-0.87,-0.48,0.06
2497006000,-0.87,-0.48,0.06
2497008020,-0.87,-0.48,0.06
2497010001,-0.87,-0.48,0.06
2497012004,-0.87,-0.48,0.06
2497014007,-0.86,-0.49,0.07
2497016002,-0.86,-0.49,0.07
2497018008,-0.86,-0.49,0.07
2497020006,-0.86,-0.49,0.07
2497021976,-0.86,-0.49,0.07
2497023977,-0.86,-0.50,0.07
2497026004,-0.86,-0.50,0.07
2497027985,-0.86,-0.50,0.07
2497029976,-0.86,-0.50,0.07
2497031979,-0.86,-0.50,0.07
2497033979,-0.86,-0.50,0.07
2497035976,-0.86,-0.50,0.07
2497037976,-0.86,-0.50,0.07
2497039980,-0.86,-0.50,0.07
2497041975,-0.86,-0.50,0.07
2497043977,-0.86,-0.50,0.07
2497046014,-0.86,-0.50,0.07
2497048014,-0.86,-0.50,0.07
2497050006,-0.86,-0.50,0.07
2497052034,-0.86,-0.50,0.07
2497054007,-0.86,-0.50,0.06
2497056005,-0.86,-0.50,0.06
2497058006,-0.86,-0.50,0.06
2497060025,-0.86,-0.50,0.06
2497062069,-0.86,-0.50,0.06
2497064029,-0.86,-0.50,0.06
2497065976,-0.87,-0.50,0.07
2497067980,-0.87,-0.50,0.07
2497069975,-0.87,-0.50,0.07
2497071972,-0.87,-0.50,0.07
2497073976,-0.87,-0.50,0.07
2497076001,-0.86,-0.50,0.07
2497077981,-0.86,-0.50,0.07
2497079980,-0.86,-0.50,0.07
2497081979,-0.86,-0.50,0.07
2497083978,-0.86,-0.50,0.07
2497085978,-0.88,-0.49,0.06
2497088021,-0.88,-0.49,0.06
2497090005,-0.88,-0.49,0.06
2497092002,-0.88,-0.49,0.06
2497094005,-0.88,-0.49,0.06
2497096008,-0.87,-0.50,0.07
2497098009,-0.87,-0.50,0.07
2497100006,-0.87,-0.50,0.07
2497101995,-0.87,-0.50,0.07
2497103979,-0.87,-0.50,0.07
2497105991,-0.86,-0.49,0.07
2497107979,-0.86,-0.49,0.07
2497109979,-0.86,-0.49,0.07
2497111979,-0.86,-0.49,0.07
2497113979,-0.86,-0.49,0.07
2497115981,-0.87,-0.48,0.07
2497117978,-0.87,-0.48,0.07
2497120110,-0.87,-0.48,0.07
2497122015,-0.87,-0.48,0.07
2497123977,-0.87,-0.48,0.07
2497126001,-0.87,-0.48,0.07
2497128019,-0.87,-0.48,0.07
2497130005,-0.87,-0.48,0.07
2497132003,-0.87,-0.48,0.07
2497134007,-0.87,-0.48,0.07
2497136004,-0.87,-0.49,0.07
2497138007,-0.87,-0.49,0.07
2497140008,-0.87,-0.49,0.07
2497141980,-0.87,-0.49,0.07
2497143983,-0.87,-0.49,0.07
2497146013,-0.87,-0.50,0.07
2497147979,-0.87,-0.50,0.07
2497149978,-0.87,-0.50,0.07
2497152000,-0.87,-0.50,0.07
2497153979,-0.87,-0.50,0.07
2497155975,-0.87,-0.50,0.07
2497157978,-0.87,-0.50,0.07
2497159973,-0.87,-0.50,0.07
2497161974,-0.87,-0.50,0.07
2497164027,-0.87,-0.50,0.07
2497166094,-0.86,-0.49,0.07
2497168045,-0.86,-0.49,0.07
2497170004,-0.86,-0.49,0.07
2497172004,-0.86,-0.49,0.07
2497174007,-0.86,-0.49,0.07
2497176022,-0.86,-0.49,0.07
2497178012,-0.86,-0.49,0.07
2497180009,-0.86,-0.49,0.07
2497181978,-0.86,-0.49,0.07
2497183983,-0.86,-0.49,0.07
2497185980,-0.86,-0.49,0.07
2497187980,-0.86,-0.49,0.07
2497189979,-0.86,-0.49,0.07
2497191979,-0.86,-0.49,0.07
2497193981,-0.86,-0.49,0.07
2497195989,-0.86,-0.49,0.06
2497197980,-0.86,-0.49,0.06
2497199975,-0.86,-0.49,0.06
2497201993,-0.86,-0.49,0.06
2497203983,-0.86,-0.49,0.06
2497205987,-0.86,-0.50,0.06
2497208015,-0.86,-0.50,0.06
2497210007,-0.86,-0.50,0.06
2497212005,-0.86,-0.50,0.06
2497214005,-0.86,-0.50,0.06
2497216005,-0.87,-0.50,0.06
2497218004,-0.87,-0.50,0.06
2497219992,-0.87,-0.50,0.06
2497221977,-0.87,-0.50,0.06
2497223980,-0.87,-0.50,0.06
2497226045,-0.87,-0.50,0.07
2497228036,-0.87,-0.50,0.07
2497229982,-0.87,-0.50,0.07
2497231978,-0.87,-0.50,0.07
2497233974,-0.87,-0.50,0.07
2497235976,-0.87,-0.50,0.07
2497237977,-0.87,-0.50,0.07
2497239978,-0.87,-0.50,0.07
2497241978,-0.87,-0.50,0.07
2497243979,-0.87,-0.50,0.07
2497246011,-0.86,-0.49,0.07
2497248024,-0.86,-0.49,0.07
2497250008,-0.86,-0.49,0.07
2497252035,-0.86,-0.49,0.07
2497254007,-0.86,-0.49,0.07
2497256014,-0.86,-0.49,0.07
2497258003,-0.87,-0.49,0.07
2497260007,-0.87,-0.49,0.07
2497261977,-0.87,-0.49,0.07
2497263974,-0.87,-0.49,0.07
2497266021,-0.87,-0.49,0.07
2497267977,-0.86,-0.49,0.06
2497269976,-0.86,-0.49,0.06
2497271978,-0.86,-0.49,0.06
2497274053,-0.86,-0.49,0.06
2497276031,-0.86,-0.49,0.06
2497277978,-0.86,-0.49,0.06
2497279974,-0.86,-0.49,0.06
2497281975,-0.86,-0.49,0.06
2497283979,-0.86,-0.49,0.06
2497285979,-0.86,-0.49,0.06
2497288026,-0.87,-0.50,0.06
2497290004,-0.87,-0.50,0.06
2497292004,-0.87,-0.50,0.06
2497294010,-0.87,-0.50,0.06
2497296009,-0.87,-0.50,0.06
2497298002,-0.88,-0.50,0.06
2497300009,-0.88,-0.50,0.06
2497302091,-0.88,-0.50,0.06
2497303984,-0.88,-0.50,0.06
2497305990,-0.88,-0.50,0.06
2497307974,-0.87,-0.49,0.05
2497309975,-0.87,-0.49,0.05
2497311980,-0.87,-0.49,0.05
2497313977,-0.87,-0.49,0.05
2497315981,-0.87,-0.49,0.05
2497317975,-0.86,-0.49,0.06
2497319979,-0.86,-0.49,0.06
2497322095,-0.86,-0.49,0.06
2497324018,-0.86,-0.49,0.06
2497326089,-0.86,-0.49,0.06
2497328023,-0.86,-0.49,0.07
2497330002,-0.86,-0.49,0.07
2497332004,-0.86,-0.49,0.07
2497334004,-0.86,-0.49,0.07
2497336001,-0.86,-0.49,0.07
2497338005,-0.86,-0.49,0.07
2497340009,-0.86,-0.49,0.07
2497341979,-0.86,-0.49,0.07
2497343981,-0.86,-0.49,0.07
2497346012,-0.86,-0.49,0.07
2497347978,-0.87,-0.48,0.07
2497349976,-0.87,-0.48,0.07
2497352092,-0.87,-0.48,0.07
2497353979,-0.87,-0.48,0.07
2497355975,-0.87,-0.48,0.07
2497357975,-0.86,-0.50,0.06
2497359977,-0.86,-0.50,0.06
2497361978,-0.86,-0.50,0.06
2497363978,-0.86,-0.50,0.06
2497365976,-0.86,-0.50,0.06
2497368067,-0.87,-0.50,0.07
2497370050,-0.87,-0.50,0.07
2497372041,-0.87,-0.50,0.07
2497374004,-0.87,-0.50,0.07
2497376109,-0.87,-0.50,0.07
2497378013,-0.86,-0.49,0.07
2497380008,-0.86,-0.49,0.07
2497382007,-0.86,-0.49,0.07
2497384011,-0.86,-0.49,0.07
2497385979,-0.86,-0.49,0.07
2497387977,-0.86,-0.50,0.07
2497389975,-0.86,-0.50,0.07
2497391977,-0.86,-0.50,0.07
2497393982,-0.86,-0.50,0.07
2497395990,-0.86,-0.50,0.07
2497397975,-0.86,-0.49,0.07
2497399974,-0.86,-0.49,0.07
2497402076,-0.86,-0.49,0.07
2497403981,-0.86,-0.49,0.07
2497405991,-0.86,-0.49,0.07
2497408013,-0.86,-0.49,0.07
2497410008,-0.86,-0.49,0.07
2497412006,-0.86,-0.49,0.07
2497414042,-0.86,-0.49,0.07
2497416071,-0.86,-0.49,0.07
2497418028,-0.86,-0.49,0.07
2497420005,-0.86,-0.49,0.07
2497422005,-0.86,-0.49,0.07
2497423982,-0.86,-0.49,0.07
2497426094,-0.86,-0.49,0.07
2497427988,-0.87,-0.49,0.08
2497429975,-0.87,-0.49,0.08
2497431975,-0.87,-0.49,0.08
2497433978,-0.87,-0.49,0.08
2497435976,-0.87,-0.49,0.08
2497437980,-0.87,-0.49,0.08
2497439975,-0.88,-0.48,0.08
2497441978,-0.88,-0.48,0.08
2497443979,-0.88,-0.48,0.08
2497446020,-0.88,-0.48,0.08
2497448016,-0.88,-0.48,0.08
2497450005,-0.88,-0.49,0.07
2497452112,-0.88,-0.49,0.07
2497454007,-0.88,-0.49,0.07
2497456006,-0.88,-0.49,0.07
2497458003,-0.88,-0.49,0.07
2497460011,-0.87,-0.49,0.06
2497461979,-0.87,-0.49,0.06
2497463974,-0.87,-0.49,0.06
2497465974,-0.87,-0.49,0.06
2497467978,-0.87,-0.49,0.06
2497470035,-0.86,-0.50,0.06
2497471975,-0.86,-0.50,0.06
2497473979,-0.86,-0.50,0.06
2497476083,-0.86,-0.50,0.06
2497478064,-0.86,-0.50,0.06
2497480017,-0.86,-0.50,0.07
2497481974,-0.86,-0.50,0.07
2497483975,-0.86,-0.50,0.07
2497485978,-0.86,-0.50,0.07
2497488020,-0.86,-0.50,0.07
2497490008,-0.86,-0.49,0.06
2497492002,-0.86,-0.49,0.06
2497494008,-0.86,-0.49,0.06
2497496010,-0.86,-0.49,0.06
2497498007,-0.86,-0.49,0.06
2497500006,-0.87,-0.48,0.06
2497502098,-0.87,-0.48,0.06
2497503988,-0.87,-0.48,0.06
2497505994,-0.87,-0.48,0.06
2497507979,-0.87,-0.48,0.06
2497509979,-0.87,-0.49,0.07
2497511985,-0.87,-0.49,0.07
2497513984,-0.87,-0.49,0.07
2497515977,-0.87,-0.49,0.07
2497517978,-0.87,-0.49,0.07
2497519980,-0.87,-0.50,0.05
2497521974,-0.87,-0.50,0.05
2497524042,-0.87,-0.50,0.05
2497526119,-0.87,-0.50,0.05
2497528024,-0.87,-0.50,0.05
2497530005,-0.86,-0.50,0.07
2497532003,-0.86,-0.50,0.07
2497534004,-0.86,-0.50,0.07
2497536006,-0.86,-0.50,0.07
2497538003,-0.86,-0.50,0.07
2497540008,-0.87,-0.50,0.06
2497541979,-0.87,-0.50,0.06
2497543982,-0.87,-0.50,0.06
2497546017,-0.87,-0.50,0.06
2497547979,-0.87,-0.50,0.06
2497549974,-0.87,-0.48,0.05
2497552091,-0.87,-0.48,0.05
2497553975,-0.87,-0.48,0.05
2497555974,-0.87,-0.48,0.05
2497557978,-0.87,-0.48,0.05
2497559977,-0.87,-0.49,0.05
2497561974,-0.87,-0.49,0.05
2497563974,-0.87,-0.49,0.05
2497565974,-0.87,-0.49,0.05
2497568018,-0.87,-0.49,0.05
2497570002,-0.86,-0.49,0.05
2497572002,-0.86,-0.49,0.05
2497574071,-0.86,-0.49,0.05
2497576118,-0.86,-0.49,0.05
2497578025,-0.86,-0.49,0.05
2497580006,-0.87,-0.49,0.05
2497582004,-0.87,-0.49,0.05
2497584009,-0.87,-0.49,0.05
2497585976,-0.87,-0.49,0.05
2497587976,-0.87,-0.49,0.05
2497589976,-0.86,-0.50,0.05
2497591976,-0.86,-0.50,0.05
2497593981,-0.86,-0.50,0.05
2497595988,-0.86,-0.50,0.05
2497597975,-0.86,-0.50,0.05
2497599976,-0.86,-0.49,0.06
2497602078,-0.86,-0.49,0.06
2497603979,-0.86,-0.49,0.06
2497605987,-0.86,-0.49,0.06
2497608008,-0.86,-0.49,0.06
2497610007,-0.87,-0.49,0.06
2497612000,-0.87,-0.49,0.06
2497614007,-0.87,-0.49,0.06
2497616003,-0.87,-0.49,0.06
2497618006,-0.87,-0.49,0.06
2497620004,-0.87,-0.49,0.06
2497622051,-0.87,-0.49,0.06
2497623973,-0.87,-0.49,0.06
2497626085,-0.87,-0.49,0.06
2497627989,-0.87,-0.49,0.06
2497629976,-0.87,-0.49,0.06
2497631975,-0.86,-0.50,0.07
2497633979,-0.86,-0.50,0.07
2497635977,-0.86,-0.50,0.07
2497637977,-0.86,-0.50,0.07
2497639974,-0.86,-0.50,0.07
2497641975,-0.86,-0.50,0.08
2497643981,-0.86,-0.50,0.08
2497646014,-0.86,-0.50,0.08
2497648016,-0.86,-0.50,0.08
2497650001,-0.86,-0.50,0.08
2497652114,-0.87,-0.49,0.07
2497654009,-0.87,-0.49,0.07
2497656033,-0.87,-0.49,0.07
2497658060,-0.87,-0.49,0.07
2497660048,-0.87,-0.49,0.07
2497662007,-0.87,-0.49,0.07
2497664012,-0.87,-0.49,0.07
2497665980,-0.87,-0.49,0.07
2497667977,-0.87,-0.49,0.07
2497669981,-0.87,-0.49,0.07
2497671976,-0.86,-0.49,0.07
2497673983,-0.86,-0.49,0.07
2497676122,-0.86,-0.49,0.07
2497677991,-0.86,-0.49,0.07
2497679976,-0.86,-0.49,0.07
2497681977,-0.87,-0.49,0.07
2497683977,-0.87,-0.49,0.07
2497685977,-0.87,-0.49,0.07
2497688020,-0.87,-0.49,0.07
2497690005,-0.87,-0.49,0.07
2497692003,-0.87,-0.49,0.05
2497694007,-0.87,-0.49,0.05
2497696012,-0.87,-0.49,0.05
2497698007,-0.87,-0.49,0.05
2497700012,-0.87,-0.49,0.05
2497702085,-0.86,-0.50,0.07
2497703984,-0.86,-0.50,0.07
2497705989,-0.86,-0.50,0.07
2497707975,-0.86,-0.50,0.07
2497709980,-0.86,-0.50,0.07
2497711979,-0.86,-0.49,0.07
2497714095,-0.86,-0.49,0.07
2497716015,-0.86,-0.49,0.07
2497717976,-0.86,-0.49,0.07
2497719975,-0.86,-0.49,0.07
2497721979,-0.87,-0.48,0.07
2497723978,-0.87,-0.48,0.07
2497726094,-0.87,-0.48,0.07
2497728021,-0.87,-0.48,0.07
2497730002,-0.87,-0.48,0.07
2497732000,-0.86,-0.49,0.07
2497734004,-0.86,-0.49,0.07
2497736004,-0.86,-0.49,0.07
2497738006,-0.86,-0.49,0.07
2497740005,-0.86,-0.49,0.07
2497741981,-0.86,-0.49,0.07
2497743979,-0.86,-0.49,0.07
2497746017,-0.86,-0.49,0.07
2497747976,-0.86,-0.49,0.07
2497749976,-0.86,-0.49,0.07
2497752091,-0.87,-0.49,0.07
2497753980,-0.87,-0.49,0.07
2497755992,-0.87,-0.49,0.07
2497757978,-0.87,-0.49,0.07
2497759978,-0.87,-0.49,0.07
2497761976,-0.87,-0.50,0.06
2497763976,-0.87,-0.50,0.06
2497765978,-0.87,-0.50,0.06
2497768014,-0.87,-0.50,0.06
2497770002,-0.87,-0.50,0.06
2497772002,-0.87,-0.49,0.07
2497774057,-0.87,-0.49,0.07
2497776118,-0.87,-0.49,0.07
2497778050,-0.87,-0.49,0.07
2497780003,-0.87,-0.49,0.07
2497782005,-0.86,-0.49,0.08
2497784011,-0.86,-0.49,0.08
2497785977,-0.86,-0.49,0.08
2497787981,-0.86,-0.49,0.08
2497789978,-0.86,-0.49,0.08
2497791984,-0.86,-0.49,0.07
2497793980,-0.86,-0.49,0.07
2497795989,-0.86,-0.49,0.07
2497797974,-0.86,-0.49,0.07
2497799974,-0.86,-0.49,0.07
2497802085,-0.85,-0.49,0.08
2497803983,-0.85,-0.49,0.08
2497805990,-0.85,-0.49,0.08
2497808018,-0.85,-0.49,0.08
2497810004,-0.85,-0.49,0.08
2497812008,-0.86,-0.49,0.09
2497814007,-0.86,-0.49,0.09
2497816006,-0.86,-0.49,0.09
2497818008,-0.86,-0.49,0.09
2497820006,-0.86,-0.49,0.09
2497822062,-0.87,-0.49,0.09
2497824018,-0.87,-0.49,0.09
2497826092,-0.87,-0.49,0.09
2497827986,-0.87,-0.49,0.09
2497829975,-0.87,-0.49,0.09
2497831979,-0.87,-0.49,0.09
2497833976,-0.87,-0.50,0.08
2497835976,-0.87,-0.50,0.08
2497837977,-0.87,-0.50,0.08
2497839977,-0.87,-0.50,0.08
2497841978,-0.87,-0.50,0.08
2497843978,-0.87,-0.49,0.09
2497846013,-0.87,-0.49,0.09
2497848026,-0.87,-0.49,0.09
2497850006,-0.87,-0.49,0.09
2497852115,-0.87,-0.49,0.09
2497854006,-0.86,-0.50,0.09
2497856005,-0.86,-0.50,0.09
2497858006,-0.86,-0.50,0.09
2497860007,-0.86,-0.50,0.09
2497861979,-0.86,-0.50,0.09
2497863981,-0.86,-0.49,0.07
2497866009,-0.86,-0.49,0.07
2497868071,-0.86,-0.49,0.07
2497870022,-0.86,-0.49,0.07
2497871977,-0.86,-0.49,0.07
2497873977,-0.85,-0.49,0.08
2497876090,-0.85,-0.49,0.08
2497877987,-0.85,-0.49,0.08
2497880015,-0.85,-0.49,0.08
2497881977,-0.85,-0.49,0.08
2497883977,-0.85,-0.48,0.07
2497885979,-0.85,-0.48,0.07
2497888022,-0.85,-0.48,0.07
2497890005,-0.85,-0.48,0.07
2497892001,-0.85,-0.48,0.07
2497894009,-0.87,-0.48,0.08
2497896010,-0.87,-0.48,0.08
2497898004,-0.87,-0.48,0.08
2497900011,-0.87,-0.48,0.08
2497902092,-0.87,-0.48,0.08
2497903983,-0.88,-0.49,0.07
2497905992,-0.88,-0.49,0.07
2497907979,-0.88,-0.49,0.07
2497909974,-0.88,-0.49,0.07
2497911975,-0.88,-0.49,0.07
2497913980,-0.88,-0.49,0.07
2497916091,-0.88,-0.49,0.07
2497918014,-0.88,-0.49,0.07
2497919976,-0.88,-0.49,0.07
2497921984,-0.88,-0.49,0.07
2497923974,-0.87,-0.49,0.07
2497926089,-0.87,-0.49,0.07
2497928027,-0.87,-0.49,0.07
2497930006,-0.87,-0.49,0.07
2497932005,-0.87,-0.49,0.07
2497934004,-0.87,-0.49,0.07
2497936007,-0.87,-0.49,0.07
2497938007,-0.87,-0.49,0.07
2497940009,-0.87,-0.49,0.07
2497941979,-0.87,-0.49,0.07
2497943981,-0.86,-0.49,0.06
2497946016,-0.86,-0.49,0.06
2497947979,-0.86,-0.49,0.06
2497949977,-0.86,-0.49,0.06
2497952090,-0.86,-0.49,0.06
2497953975,-0.86,-0.48,0.07
2497955974,-0.86,-0.48,0.07
2497957978,-0.86,-0.48,0.07
2497959975,-0.86,-0.48,0.07
2497961976,-0.86,-0.48,0.07
2497963980,-0.87,-0.49,0.06
2497965976,-0.87,-0.49,0.06
2497968013,-0.87,-0.49,0.06
2497970005,-0.87,-0.49,0.06
2497972006,-0.87,-0.49,0.06
2497974006,-0.87,-0.49,0.07
2497976099,-0.87,-0.49,0.07
2497978063,-0.87,-0.49,0.07
2497980035,-0.87,-0.49,0.07
2497982039,-0.87,-0.49,0.07
2497984014,-0.87,-0.49,0.07
2497985985,-0.87,-0.49,0.07
2497987981,-0.87,-0.49,0.07
2497989980,-0.87,-0.49,0.07
2497991980,-0.87,-0.49,0.07
2497993977,-0.87,-0.50,0.07
2497995988,-0.87,-0.50,0.07
2497997978,-0.87,-0.50,0.07
2497999974,-0.87,-0.50,0.07
2498002095,-0.87,-0.50,0.07
2498003982,-0.88,-0.48,0.09
2498006002,-0.88,-0.48,0.09
2498008006,-0.88,-0.48,0.09
2498010007,-0.88,-0.48,0.09
2498012000,-0.88,-0.48,0.09
2498014006,-0.88,-0.48,0.09
2498016006,-0.86,-0.48,0.08
2498018006,-0.86,-0.48,0.08
2498020007,-0.86,-0.48,0.08
2498021979,-0.86,-0.48,0.08
2498023978,-0.86,-0.48,0.08
2498026086,-0.87,-0.47,0.07
2498027988,-0.87,-0.47,0.07
2498029977,-0.87,-0.47,0.07
2498031981,-0.87,-0.47,0.07
2498033980,-0.87,-0.47,0.07
2498035977,-0.86,-0.47,0.07
2498038041,-0.86,-0.47,0.07
2498040042,-0.86,-0.47,0.07
2498041982,-0.86,-0.47,0.07
2498043981,-0.86,-0.47,0.07
2498046008,-0.87,-0.47,0.07
2498048022,-0.87,-0.47,0.07
2498050007,-0.87,-0.47,0.07
2498052117,-0.87,-0.47,0.07
2498054004,-0.87,-0.47,0.07
2498056006,-0.87,-0.48,0.07
2498058008,-0.87,-0.48,0.07
2498060005,-0.87,-0.48,0.07
2498061977,-0.87,-0.48,0.07
2498063980,-0.87,-0.48,0.07
2498065980,-0.88,-0.49,0.07
2498067979,-0.88,-0.49,0.07
2498069979,-0.88,-0.49,0.07
2498071976,-0.88,-0.49,0.07
2498073981,-0.88,-0.49,0.07
2498076077,-0.88,-0.48,0.07
2498077989,-0.88,-0.48,0.07
2498079981,-0.88,-0.48,0.07
2498081980,-0.88,-0.48,0.07
2498083988,-0.88,-0.48,0.07
2498086034,-0.86,-0.50,0.07
2498088106,-0.86,-0.50,0.07
2498090042,-0.86,-0.50,0.07
2498092006,-0.86,-0.50,0.07
2498094008,-0.86,-0.50,0.07
2498096008,-0.86,-0.50,0.07
2498098004,-0.86,-0.50,0.07
2498100003,-0.86,-0.50,0.07
2498102114,-0.86,-0.50,0.07
2498104013,-0.86,-0.50,0.07
2498105991,-0.84,-0.49,0.06
2498107979,-0.84,-0.49,0.06
2498109974,-0.84,-0.49,0.06
2498111978,-0.84,-0.49,0.06
2498113976,-0.84,-0.49,0.06
2498115980,-0.86,-0.49,0.07
2498117975,-0.86,-0.49,0.07
2498119979,-0.86,-0.49,0.07
2498121975,-0.86,-0.49,0.07
2498123975,-0.86,-0.49,0.07
2498126073,-0.87,-0.48,0.07
2498127987,-0.87,-0.48,0.07
2498130020,-0.87,-0.48,0.07
2498132007,-0.87,-0.48,0.07
2498134008,-0.87,-0.48,0.07
2498136008,-0.89,-0.49,0.07
2498138009,-0.89,-0.49,0.07
2498140002,-0.89,-0.49,0.07
2498142005,-0.89,-0.49,0.07
2498143979,-0.89,-0.49,0.07
2498146016,-0.86,-0.49,0.06
2498147995,-0.86,-0.49,0.06
2498150070,-0.86,-0.49,0.06
2498152134,-0.86,-0.49,0.06
2498153974,-0.86,-0.49,0.06
2498155980,-0.88,-0.49,0.09
2498157977,-0.88,-0.49,0.09
2498159975,-0.88,-0.49,0.09
2498161978,-0.88,-0.49,0.09
2498163975,-0.88,-0.49,0.09
2498165976,-0.85,-0.48,0.07
2498167980,-0.85,-0.48,0.07
2498170019,-0.85,-0.48,0.07
2498172003,-0.85,-0.48,0.07
2498174004,-0.85,-0.48,0.07
2498176104,-0.86,-0.49,0.07
2498178005,-0.86,-0.49,0.07
2498180007,-0.86,-0.49,0.07
2498182006,-0.86,-0.49,0.07
2498183979,-0.86,-0.49,0.07
2498185978,-0.85,-0.47,0.09
2498188021,-0.85,-0.47,0.09
2498189975,-0.85,-0.47,0.09
2498191975,-0.85,-0.47,0.09
2498193981,-0.85,-0.47,0.09
2498196069,-0.86,-0.50,0.09
2498198016,-0.86,-0.50,0.09
2498199979,-0.86,-0.50,0.09
2498202093,-0.86,-0.50,0.09
2498203983,-0.86,-0.50,0.09
2498205988,-0.86,-0.50,0.09
2498207976,-0.87,-0.49,0.09
2498210023,-0.87,-0.49,0.09
2498212006,-0.87,-0.49,0.09
2498214005,-0.87,-0.49,0.09
2498216006,-0.87,-0.49,0.09
2498218007,-0.87,-0.50,0.11
2498220008,-0.87,-0.50,0.11
2498222007,-0.87,-0.50,0.11
2498223980,-0.87,-0.50,0.11
2498226206,-0.87,-0.50,0.11
2498228041,-0.86,-0.51,0.11
2498229988,-0.86,-0.51,0.11
2498231976,-0.86,-0.51,0.11
2498233984,-0.86,-0.51,0.11
2498235977,-0.86,-0.51,0.11
2498237975,-0.85,-0.50,0.11
2498239977,-0.85,-0.50,0.11
2498241977,-0.85,-0.50,0.11
2498244157,-0.85,-0.50,0.11
2498246036,-0.85,-0.50,0.11
2498247975,-0.85,-0.49,0.08
2498250024,-0.85,-0.49,0.08
2498252120,-0.85,-0.49,0.08
2498254005,-0.85,-0.49,0.08
2498256013,-0.85,-0.49,0.08
2498258009,-0.86,-0.49,0.08
2498260007,-0.86,-0.49,0.08
2498262009,-0.86,-0.49,0.08
2498263979,-0.86,-0.49,0.08
2498265980,-0.86,-0.49,0.08
2498267976,-0.87,-0.50,0.08
2498269978,-0.87,-0.50,0.08
2498271979,-0.87,-0.50,0.08
2498273974,-0.87,-0.50,0.08
2498276080,-0.87,-0.50,0.08
2498277988,-0.87,-0.50,0.07
2498279976,-0.87,-0.50,0.07
2498281980,-0.87,-0.50,0.07
2498283979,-0.87,-0.50,0.07
2498285979,-0.87,-0.50,0.07
2498287980,-0.86,-0.52,0.07
2498290062,-0.86,-0.52,0.07
2498292058,-0.86,-0.52,0.07
2498294042,-0.86,-0.52,0.07
2498296008,-0.86,-0.52,0.07
2498298009,-0.85,-0.52,0.08
2498300010,-0.85,-0.52,0.08
2498302125,-0.85,-0.52,0.08
2498304011,-0.85,-0.52,0.08
2498306015,-0.85,-0.52,0.08
2498307978,-0.84,-0.51,0.08
2498309980,-0.84,-0.51,0.08
2498311978,-0.84,-0.51,0.08
2498313978,-0.84,-0.51,0.08
2498315981,-0.84,-0.51,0.08
2498317975,-0.83,-0.50,0.07
2498319978,-0.83,-0.50,0.07
2498321976,-0.83,-0.50,0.07
2498323980,-0.83,-0.50,0.07
2498326082,-0.83,-0.50,0.07
2498327988,-0.83,-0.49,0.07
2498330014,-0.83,-0.49,0.07
2498332006,-0.83,-0.49,0.07
2498334006,-0.83,-0.49,0.07
2498336005,-0.83,-0.49,0.07
2498338006,-0.84,-0.54,0.07
2498340008,-0.84,-0.54,0.07
2498342008,-0.84,-0.54,0.07
2498343980,-0.84,-0.54,0.07
2498346016,-0.84,-0.54,0.07
2498347977,-0.85,-0.55,0.07
2498349976,-0.85,-0.55,0.07
2498352162,-0.85,-0.55,0.07
2498354039,-0.85,-0.55,0.07
2498355981,-0.85,-0.55,0.07
2498357975,-0.87,-0.55,0.05
2498359975,-0.87,-0.55,0.05
2498361976,-0.87,-0.55,0.05
2498363980,-0.87,-0.55,0.05
2498365979,-0.87,-0.55,0.05
2498367975,-0.86,-0.53,0.06
2498370026,-0.86,-0.53,0.06
2498372001,-0.86,-0.53,0.06
2498374000,-0.86,-0.53,0.06
2498376113,-0.86,-0.53,0.06
2498378008,-0.84,-0.54,0.05
2498380006,-0.84,-0.54,0.05
2498382002,-0.84,-0.54,0.05
2498383979,-0.84,-0.54,0.05
2498385974,-0.84,-0.54,0.05
2498387978,-0.84,-0.54,0.05
2498389978,-0.82,-0.52,0.04
2498392024,-0.82,-0.52,0.04
2498393981,-0.82,-0.52,0.04
2498395989,-0.82,-0.52,0.04
2498397976,-0.82,-0.52,0.04
2498399980,-0.82,-0.52,0.04
2498402086,-0.82,-0.52,0.04
2498403980,-0.82,-0.52,0.04
2498405990,-0.82,-0.52,0.04
2498407978,-0.82,-0.52,0.04
2498410018,-0.82,-0.52,0.05
2498412055,-0.82,-0.52,0.05
2498414032,-0.82,-0.52,0.05
2498416012,-0.82,-0.52,0.05
2498418006,-0.82,-0.52,0.05
2498420007,-0.85,-0.52,0.05
2498422007,-0.85,-0.52,0.05
2498424012,-0.85,-0.52,0.05
2498426095,-0.85,-0.52,0.05
2498427987,-0.85,-0.52,0.05
2498429992,-0.87,-0.53,0.05
2498431980,-0.87,-0.53,0.05
2498433979,-0.87,-0.53,0.05
2498435977,-0.87,-0.53,0.05
2498437980,-0.87,-0.53,0.05
2498439981,-0.88,-0.56,0.06
2498441981,-0.88,-0.56,0.06
2498443986,-0.88,-0.56,0.06
2498446011,-0.88,-0.56,0.06
2498447974,-0.88,-0.56,0.06
2498450014,-0.88,-0.57,0.04
2498452111,-0.88,-0.57,0.04
2498454007,-0.88,-0.57,0.04
2498456010,-0.88,-0.57,0.04
2498458002,-0.88,-0.57,0.04
2498460002,-0.87,-0.55,0.04
2498462004,-0.87,-0.55,0.04
2498463981,-0.87,-0.55,0.04
2498465980,-0.87,-0.55,0.04
2498467977,-0.87,-0.55,0.04
2498469975,-0.83,-0.55,0.03
2498471984,-0.83,-0.55,0.03
2498473981,-0.83,-0.55,0.03
2498476082,-0.83,-0.55,0.03
2498477989,-0.83,-0.55,0.03
2498479979,-0.80,-0.54,0.03
2498481978,-0.80,-0.54,0.03
2498484073,-0.80,-0.54,0.03
2498486015,-0.80,-0.54,0.03
2498487978,-0.80,-0.54,0.03
2498490024,-0.81,-0.54,0.02
2498492003,-0.81,-0.54,0.02
2498494047,-0.81,-0.54,0.02
2498496015,-0.81,-0.54,0.02
2498498017,-0.81,-0.54,0.02
2498500004,-0.84,-0.54,0.01
2498502121,-0.84,-0.54,0.01
2498504011,-0.84,-0.54,0.01
2498505995,-0.84,-0.54,0.01
2498507978,-0.84,-0.54,0.01
2498509976,-0.88,-0.53,0.04
2498511979,-0.88,-0.53,0.04
2498513977,-0.88,-0.53,0.04
2498515977,-0.88,-0.53,0.04
2498517975,-0.88,-0.53,0.04
2498519975,-0.93,-0.57,0.04
2498521975,-0.93,-0.57,0.04
2498523979,-0.93,-0.57,0.04
2498526083,-0.93,-0.57,0.04
2498527990,-0.93,-0.57,0.04
2498530011,-0.92,-0.63,0.03
2498532007,-0.92,-0.63,0.03
2498534005,-0.92,-0.63,0.03
2498536010,-0.92,-0.63,0.03
2498538069,-0.92,-0.63,0.03
2498540038,-0.91,-0.64,0.01
2498542007,-0.91,-0.64,0.01
2498544006,-0.91,-0.64,0.01
2498546011,-0.91,-0.64,0.01
2498547976,-0.91,-0.64,0.01
2498549977,-0.95,-0.68,-0.02
2498552094,-0.95,-0.68,-0.02
2498553974,-0.95,-0.68,-0.02
2498555973,-0.95,-0.68,-0.02
2498557977,-0.95,-0.68,-0.02
2498559971,-0.90,-0.55,0.19
2498561981,-0.90,-0.55,0.19
2498563975,-0.90,-0.55,0.19
2498565977,-0.90,-0.55,0.19
2498567976,-0.90,-0.55,0.19
2498570014,-0.96,-0.77,-0.02
2498572007,-0.96,-0.77,-0.02
2498574005,-0.96,-0.77,-0.02
2498576095,-0.96,-0.77,-0.02
2498578010,-0.96,-0.77,-0.02
2498580003,-0.91,-0.69,0.07
2498582006,-0.91,-0.69,0.07
2498583979,-0.91,-0.69,0.07
2498585976,-0.91,-0.69,0.07
2498587979,-0.91,-0.69,0.07
2498589979,-0.91,-0.69,0.07
2498591978,-1.03,-0.74,0.10
2498593981,-1.03,-0.74,0.10
2498595991,-1.03,-0.74,0.10
2498598023,-1.03,-0.74,0.10
2498600123,-1.03,-0.74,0.10
2498602124,-1.04,-0.68,0.16
2498603979,-1.04,-0.68,0.16
2498605987,-1.04,-0.68,0.16
2498607976,-1.04,-0.68,0.16
2498610026,-1.04,-0.68,0.16
2498612004,-1.11,-0.74,0.08
2498613999,-1.11,-0.74,0.08
2498616009,-1.11,-0.74,0.08
2498618003,-1.11,-0.74,0.08
2498620007,-1.11,-0.74,0.08
2498622076,-1.11,-0.66,0.14
2498623974,-1.11,-0.66,0.14
2498626084,-1.11,-0.66,0.14
2498627988,-1.11,-0.66,0.14
2498629976,-1.11,-0.66,0.14
2498631978,-1.09,-0.69,0.09
2498633979,-1.09,-0.69,0.09
2498635981,-1.09,-0.69,0.09
2498637979,-1.09,-0.69,0.09
2498639978,-1.09,-0.69,0.09
2498641977,-1.10,-0.62,0.09
2498644045,-1.10,-0.62,0.09
2498646037,-1.10,-0.62,0.09
2498647976,-1.10,-0.62,0.09
2498650043,-1.10,-0.62,0.09
2498652118,-1.09,-0.57,0.05
2498654008,-1.09,-0.57,0.05
2498656007,-1.09,-0.57,0.05
2498658001,-1.09,-0.57,0.05
2498660006,-1.09,-0.57,0.05
2498662004,-1.05,-0.48,0.15
2498663979,-1.05,-0.48,0.15
2498665979,-1.05,-0.48,0.15
2498667978,-1.05,-0.48,0.15
2498669979,-1.05,-0.48,0.15
2498671981,-1.01,-0.49,0.05
2498673977,-1.01,-0.49,0.05
2498676080,-1.01,-0.49,0.05
2498677987,-1.01,-0.49,0.05
2498679977,-1.01,-0.49,0.05
2498681975,-1.00,-0.45,0.09
2498683979,-1.00,-0.45,0.09
2498685979,-1.00,-0.45,0.09
2498687977,-1.00,-0.45,0.09
2498690010,-1.00,-0.45,0.09
2498692004,-1.01,-0.45,0.11
2498694009,-1.01,-0.45,0.11
2498696014,-1.01,-0.45,0.11
2498698037,-1.01,-0.45,0.11
2498700056,-1.01,-0.45,0.11
2498702114,-1.02,-0.42,0.07
2498704013,-1.02,-0.42,0.07
2498705987,-1.02,-0.42,0.07
2498708066,-1.02,-0.42,0.07
2498710014,-1.02,-0.42,0.07
2498711976,-1.06,-0.38,0.13
2498713976,-1.06,-0.38,0.13
2498715976,-1.06,-0.38,0.13
2498717975,-1.06,-0.38,0.13
2498719975,-1.06,-0.38,0.13
2498721976,-1.08,-0.34,0.11
2498723976,-1.08,-0.34,0.11
2498726088,-1.08,-0.34,0.11
2498727988,-1.08,-0.34,0.11
2498730020,-1.08,-0.34,0.11
2498732006,-1.09,-0.31,0.12
2498734001,-1.09,-0.31,0.12
2498736008,-1.09,-0.31,0.12
2498738005,-1.09,-0.31,0.12
2498740005,-1.09,-0.31,0.12
2498742007,-1.04,-0.26,0.15
2498743977,-1.04,-0.26,0.15
2498745980,-1.04,-0.26,0.15
2498747981,-1.04,-0.26,0.15
2498750013,-1.04,-0.26,0.15
2498752090,-1.02,-0.25,0.18
2498753979,-1.02,-0.25,0.18
2498755993,-1.02,-0.25,0.18
2498757980,-1.02,-0.25,0.18
2498759979,-1.02,-0.25,0.18
2498761977,-0.99,-0.23,0.16
2498763979,-0.99,-0.23,0.16
2498765977,-0.99,-0.23,0.16
2498767976,-0.99,-0.23,0.16
2498770016,-0.99,-0.23,0.16
2498772003,-0.99,-0.23,0.16
2498774000,-0.96,-0.22,0.23
2498776095,-0.96,-0.22,0.23
2498778053,-0.96,-0.22,0.23
2498780028,-0.96,-0.22,0.23
2498782024,-0.96,-0.22,0.23
2498784003,-0.96,-0.26,0.23
2498786008,-0.96,-0.26,0.23
2498787979,-0.96,-0.26,0.23
2498789979,-0.96,-0.26,0.23
2498791977,-0.96,-0.26,0.23
2498793976,-0.96,-0.27,0.25
2498795993,-0.96,-0.27,0.25
2498797975,-0.96,-0.27,0.25
2498799979,-0.96,-0.27,0.25
2498802143,-0.96,-0.27,0.25
2498803984,-1.00,-0.29,0.23
2498805988,-1.00,-0.29,0.23
2498807976,-1.00,-0.29,0.23
2498810016,-1.00,-0.29,0.23
2498812006,-1.00,-0.29,0.23
2498814005,-1.02,-0.28,0.22
2498816008,-1.02,-0.28,0.22
2498818005,-1.02,-0.28,0.22
2498820010,-1.02,-0.28,0.22
2498822006,-1.02,-0.28,0.22
2498823986,-1.02,-0.29,0.20
2498826083,-1.02,-0.29,0.20
2498827987,-1.02,-0.29,0.20
2498829980,-1.02,-0.29,0.20
2498832007,-1.02,-0.29,0.20
2498834059,-1.01,-0.26,0.16
2498836009,-1.01,-0.26,0.16
2498837975,-1.01,-0.26,0.16
2498839978,-1.01,-0.26,0.16
2498841975,-1.01,-0.26,0.16
2498843978,-1.00,-0.23,0.18
2498845976,-1.00,-0.23,0.18
2498847979,-1.00,-0.23,0.18
2498850045,-1.00,-0.23,0.18
2498852124,-1.00,-0.23,0.18
2498854007,-0.98,-0.23,0.17
2498856009,-0.98,-0.23,0.17
2498858009,-0.98,-0.23,0.17
2498860004,-0.98,-0.23,0.17
2498862002,-0.98,-0.23,0.17
2498863979,-0.98,-0.23,0.17
2498865977,-0.98,-0.23,0.17
2498867976,-0.98,-0.23,0.17
2498869975,-0.98,-0.23,0.17
2498871979,-0.98,-0.23,0.17
2498873972,-0.95,-0.27,0.14
2498876075,-0.95,-0.27,0.14
2498877986,-0.95,-0.27,0.14
2498879979,-0.95,-0.27,0.14
2498881979,-0.95,-0.27,0.14
2498883978,-0.95,-0.27,0.16
2498885979,-0.95,-0.27,0.16
2498887979,-0.95,-0.27,0.16
2498890014,-0.95,-0.27,0.16
2498892005,-0.95,-0.27,0.16
2498894003,-0.93,-0.29,0.16
2498896069,-0.93,-0.29,0.16
2498898048,-0.93,-0.29,0.16
2498900008,-0.93,-0.29,0.16
2498902130,-0.93,-0.29,0.16
2498904052,-0.92,-0.29,0.14
2498906006,-0.92,-0.29,0.14
2498907978,-0.92,-0.29,0.14
2498909974,-0.92,-0.29,0.14
2498911974,-0.92,-0.29,0.14
2498913976,-0.93,-0.29,0.16
2498915977,-0.93,-0.29,0.16
2498917974,-0.93,-0.29,0.16
2498919975,-0.93,-0.29,0.16
2498921980,-0.93,-0.29,0.16
2498923979,-0.90,-0.30,0.13
2498926087,-0.90,-0.30,0.13
2498927987,-0.90,-0.30,0.13
2498930011,-0.90,-0.30,0.13
2498932007,-0.90,-0.30,0.13
2498934005,-0.88,-0.29,0.17
2498936008,-0.88,-0.29,0.17
2498938009,-0.88,-0.29,0.17
2498940007,-0.88,-0.29,0.17
2498942002,-0.88,-0.29,0.17
2498943975,-0.84,-0.29,0.16
2498945976,-0.84,-0.29,0.16
2498947980,-0.84,-0.29,0.16
2498950018,-0.84,-0.29,0.16
2498952089,-0.84,-0.29,0.16
2498953985,-0.84,-0.29,0.17
2498955988,-0.84,-0.29,0.17
2498958072,-0.84,-0.29,0.17
2498960018,-0.84,-0.29,0.17
2498961978,-0.84,-0.29,0.17
2498963976,-0.84,-0.29,0.17
2498965976,-0.83,-0.29,0.14
2498967977,-0.83,-0.29,0.14
2498970019,-0.83,-0.29,0.14
2498972002,-0.83,-0.29,0.14
2498974005,-0.83,-0.29,0.14
2498976115,-0.84,-0.30,0.12
2498978010,-0.84,-0.30,0.12
2498980007,-0.84,-0.30,0.12
2498982006,-0.84,-0.30,0.12
2498983980,-0.84,-0.30,0.12
2498985981,-0.84,-0.27,0.16
2498987977,-0.84,-0.27,0.16
2498989976,-0.84,-0.27,0.16
2498991977,-0.84,-0.27,0.16
2498993981,-0.84,-0.27,0.16
2498995991,-0.85,-0.26,0.21
2498997973,-0.85,-0.26,0.21
2498999977,-0.85,-0.26,0.21
2499002077,-0.85,-0.26,0.21
2499004070,-0.85,-0.26,0.21
2499006043,-0.84,-0.33,0.17
2499007996,-0.84,-0.33,0.17
2499010011,-0.84,-0.33,0.17
2499012004,-0.84,-0.33,0.17
2499014005,-0.84,-0.33,0.17
2499016006,-0.81,-0.28,0.19
2499018006,-0.81,-0.28,0.19
2499020010,-0.81,-0.28,0.19
2499022009,-0.81,-0.28,0.19
2499023979,-0.81,-0.28,0.19
2499026094,-0.79,-0.30,0.20
2499027988,-0.79,-0.30,0.20
2499029981,-0.79,-0.30,0.20
2499031980,-0.79,-0.30,0.20
2499033979,-0.79,-0.30,0.20
2499035980,-0.79,-0.28,0.19
2499037979,-0.79,-0.28,0.19
2499039980,-0.79,-0.28,0.19
2499041980,-0.79,-0.28,0.19
2499043981,-0.79,-0.28,0.19
2499045978,-0.79,-0.29,0.14
2499047987,-0.79,-0.29,0.14
2499050044,-0.79,-0.29,0.14
2499052170,-0.79,-0.29,0.14
2499054036,-0.79,-0.29,0.14
2499056018,-0.80,-0.29,0.11
2499058007,-0.80,-0.29,0.11
2499060005,-0.80,-0.29,0.11
2499062008,-0.80,-0.29,0.11
2499064003,-0.80,-0.29,0.11
2499066015,-0.79,-0.27,0.12
2499067975,-0.79,-0.27,0.12
2499069979,-0.79,-0.27,0.12
2499071979,-0.79,-0.27,0.12
2499073977,-0.79,-0.27,0.12
2499076100,-0.77,-0.25,0.18
2499077987,-0.77,-0.25,0.18
2499079979,-0.77,-0.25,0.18
2499081978,-0.77,-0.25,0.18
2499083980,-0.77,-0.25,0.18
2499085985,-0.78,-0.30,0.11
2499087976,-0.78,-0.30,0.11
2499090009,-0.78,-0.30,0.11
2499092004,-0.78,-0.30,0.11
2499094005,-0.78,-0.30,0.11
2499096010,-0.77,-0.31,0.12
2499098002,-0.77,-0.31,0.12
2499100006,-0.77,-0.31,0.12
2499102114,-0.77,-0.31,0.12
2499103984,-0.77,-0.31,0.12
2499105991,-0.79,-0.29,0.16
2499107990,-0.79,-0.29,0.16
2499110020,-0.79,-0.29,0.16
2499111981,-0.79,-0.29,0.16
2499113979,-0.79,-0.29,0.16
2499116047,-0.77,-0.31,0.12
2499118029,-0.77,-0.31,0.12
2499119975,-0.77,-0.31,0.12
2499121974,-0.77,-0.31,0.12
2499123971,-0.77,-0.31,0.12
2499126089,-0.81,-0.29,0.09
2499127986,-0.81,-0.29,0.09
2499130017,-0.81,-0.29,0.09
2499132007,-0.81,-0.29,0.09
2499134006,-0.81,-0.29,0.09
2499136007,-0.79,-0.29,0.08
2499138007,-0.79,-0.29,0.08
2499140006,-0.79,-0.29,0.08
2499142003,-0.79,-0.29,0.08
2499143976,-0.79,-0.29,0.08
2499145975,-0.79,-0.24,0.09
2499147981,-0.79,-0.24,0.09
2499150019,-0.79,-0.24,0.09
2499152092,-0.79,-0.24,0.09
2499153978,-0.79,-0.24,0.09
2499155974,-0.79,-0.24,0.09
2499157977,-0.79,-0.25,0.08
2499159974,-0.79,-0.25,0.08
2499161977,-0.79,-0.25,0.08
2499164129,-0.79,-0.25,0.08
2499166020,-0.79,-0.25,0.08
2499167977,-0.78,-0.25,0.10
2499170023,-0.78,-0.25,0.10
2499172006,-0.78,-0.25,0.10
2499174001,-0.78,-0.25,0.10
2499176113,-0.78,-0.25,0.10
2499178014,-0.77,-0.25,0.13
2499180006,-0.77,-0.25,0.13
2499182005,-0.77,-0.25,0.13
2499183985,-0.77,-0.25,0.13
2499185985,-0.77,-0.25,0.13
2499187979,-0.77,-0.26,0.12
2499189975,-0.77,-0.26,0.12
2499191978,-0.77,-0.26,0.12
2499193977,-0.77,-0.26,0.12
2499195993,-0.77,-0.26,0.12
2499197975,-0.79,-0.25,0.19
2499199972,-0.79,-0.25,0.19
2499202079,-0.79,-0.25,0.19
2499203981,-0.79,-0.25,0.19
2499205991,-0.79,-0.25,0.19
2499207979,-0.80,-0.30,0.19
2499210034,-0.80,-0.30,0.19
2499212067,-0.80,-0.30,0.19
2499214031,-0.80,-0.30,0.19
2499216013,-0.80,-0.30,0.19
2499218008,-0.82,-0.29,0.18
2499220004,-0.82,-0.29,0.18
2499222007,-0.82,-0.29,0.18
2499224003,-0.82,-0.29,0.18
2499226118,-0.82,-0.29,0.18
2499227988,-0.82,-0.26,0.22
2499229979,-0.82,-0.26,0.22
2499231979,-0.82,-0.26,0.22
2499233979,-0.82,-0.26,0.22
2499235974,-0.82,-0.26,0.22
2499237981,-0.81,-0.24,0.23
2499239979,-0.81,-0.24,0.23
2499241980,-0.81,-0.24,0.23
2499243978,-0.81,-0.24,0.23
2499245978,-0.81,-0.24,0.23
2499247982,-0.81,-0.23,0.19
2499250041,-0.81,-0.23,0.19
2499252114,-0.81,-0.23,0.19
2499254004,-0.81,-0.23,0.19
2499256010,-0.81,-0.23,0.19
2499258007,-0.83,-0.19,0.23
2499260004,-0.83,-0.19,0.23
2499262012,-0.83,-0.19,0.23
2499263977,-0.83,-0.19,0.23
2499265974,-0.83,-0.19,0.23
2499267979,-0.84,-0.18,0.27
2499269978,-0.84,-0.18,0.27
2499271985,-0.84,-0.18,0.27
2499274069,-0.84,-0.18,0.27
2499276118,-0.84,-0.18,0.27
2499277986,-0.86,-0.23,0.25
2499279976,-0.86,-0.23,0.25
2499281980,-0.86,-0.23,0.25
2499283979,-0.86,-0.23,0.25
2499285976,-0.86,-0.23,0.25
2499287977,-0.88,-0.25,0.21
2499290020,-0.88,-0.25,0.21
2499292004,-0.88,-0.25,0.21
2499294001,-0.88,-0.25,0.21
2499296009,-0.88,-0.25,0.21
2499298007,-0.88,-0.26,0.25
2499300005,-0.88,-0.26,0.25
2499302108,-0.88,-0.26,0.25
2499303987,-0.88,-0.26,0.25
2499305987,-0.88,-0.26,0.25
2499307979,-0.86,-0.26,0.25
2499309979,-0.86,-0.26,0.25
2499311976,-0.86,-0.26,0.25
2499314028,-0.86,-0.26,0.25
2499315978,-0.86,-0.26,0.25
2499317977,-0.85,-0.26,0.24
2499319977,-0.85,-0.26,0.24
2499321980,-0.85,-0.26,0.24
2499323975,-0.85,-0.26,0.24
2499326071,-0.85,-0.26,0.24
2499327989,-0.86,-0.25,0.21
2499330016,-0.86,-0.25,0.21
2499332006,-0.86,-0.25,0.21
2499334005,-0.86,-0.25,0.21
2499336066,-0.86,-0.25,0.21
2499338045,-0.86,-0.22,0.23
2499340006,-0.86,-0.22,0.23
2499342007,-0.86,-0.22,0.23
2499344002,-0.86,-0.22,0.23
2499346009,-0.86,-0.22,0.23
2499347987,-0.86,-0.22,0.23
2499350010,-0.86,-0.23,0.23
2499352094,-0.86,-0.23,0.23
2499353977,-0.86,-0.23,0.23
2499355977,-0.86,-0.23,0.23
2499357976,-0.86,-0.23,0.23
2499359979,-0.87,-0.24,0.19
2499361974,-0.87,-0.24,0.19
2499363975,-0.87,-0.24,0.19
2499365976,-0.87,-0.24,0.19
2499367975,-0.87,-0.24,0.19
2499370014,-0.89,-0.24,0.20
2499372005,-0.89,-0.24,0.20
2499374005,-0.89,-0.24,0.20
2499376097,-0.89,-0.24,0.20
2499378013,-0.89,-0.24,0.20
2499380005,-0.90,-0.25,0.20
2499382008,-0.90,-0.25,0.20
2499383980,-0.90,-0.25,0.20
2499385980,-0.90,-0.25,0.20
2499387979,-0.90,-0.25,0.20
2499389979,-0.89,-0.24,0.17
2499391979,-0.89,-0.24,0.17
2499393979,-0.89,-0.24,0.17
2499395990,-0.89,-0.24,0.17
2499398070,-0.89,-0.24,0.17
2499400020,-0.90,-0.25,0.21
2499402093,-0.90,-0.25,0.21
2499403980,-0.90,-0.25,0.21
2499405988,-0.90,-0.25,0.21
2499407976,-0.90,-0.25,0.21
2499410023,-0.91,-0.25,0.21
2499412013,-0.91,-0.25,0.21
2499414001,-0.91,-0.25,0.21
2499416008,-0.91,-0.25,0.21
2499418005,-0.91,-0.25,0.21
2499420006,-0.93,-0.26,0.23
2499422006,-0.93,-0.26,0.23
2499423981,-0.93,-0.26,0.23
2499426081,-0.93,-0.26,0.23
2499427989,-0.93,-0.26,0.23
2499429978,-0.94,-0.29,0.21
2499431977,-0.94,-0.29,0.21
2499433980,-0.94,-0.29,0.21
2499435981,-0.94,-0.29,0.21
2499438028,-0.94,-0.29,0.21
2499439977,-0.96,-0.29,0.24
2499441978,-0.96,-0.29,0.24
2499443978,-0.96,-0.29,0.24
2499445978,-0.96,-0.29,0.24
2499447977,-0.96,-0.29,0.24
2499450048,-0.93,-0.30,0.25
2499452115,-0.93,-0.30,0.25
2499454005,-0.93,-0.30,0.25
2499456004,-0.93,-0.30,0.25
2499458001,-0.93,-0.30,0.25
2499460002,-0.95,-0.31,0.26
2499462007,-0.95,-0.31,0.26
2499464018,-0.95,-0.31,0.26
2499466079,-0.95,-0.31,0.26
2499468007,-0.95,-0.31,0.26
2499469976,-0.94,-0.34,0.22
2499471972,-0.94,-0.34,0.22
2499473976,-0.94,-0.34,0.22
2499476091,-0.94,-0.34,0.22
2499477995,-0.94,-0.34,0.22
2499479978,-0.94,-0.34,0.21
2499481980,-0.94,-0.34,0.21
2499483979,-0.94,-0.34,0.21
2499485978,-0.94,-0.34,0.21
2499487977,-0.94,-0.34,0.21
2499490024,-0.95,-0.31,0.23
2499492005,-0.95,-0.31,0.23
2499494005,-0.95,-0.31,0.23
2499496010,-0.95,-0.31,0.23
2499498008,-0.95,-0.31,0.23
2499500007,-0.95,-0.31,0.20
2499502115,-0.95,-0.31,0.20
2499503985,-0.95,-0.31,0.20
2499505997,-0.95,-0.31,0.20
2499507980,-0.95,-0.31,0.20
2499509979,-0.96,-0.30,0.19
2499511980,-0.96,-0.30,0.19
2499513975,-0.96,-0.30,0.19
2499515979,-0.96,-0.30,0.19
2499518019,-0.96,-0.30,0.19
2499519979,-0.96,-0.28,0.20
2499521974,-0.96,-0.28,0.20
2499524068,-0.96,-0.28,0.20
2499526121,-0.96,-0.28,0.20
2499527986,-0.96,-0.28,0.20
2499530018,-0.96,-0.30,0.20
2499532006,-0.96,-0.30,0.20
2499534004,-0.96,-0.30,0.20
2499536004,-0.96,-0.30,0.20
2499538004,-0.96,-0.30,0.20
2499540005,-0.96,-0.30,0.20
2499542006,-0.98,-0.29,0.20
2499543976,-0.98,-0.29,0.20
2499545986,-0.98,-0.29,0.20
2499547986,-0.98,-0.29,0.20
2499550011,-0.98,-0.29,0.20
2499552090,-0.96,-0.30,0.24
2499553977,-0.96,-0.30,0.24
2499555974,-0.96,-0.30,0.24
2499557975,-0.96,-0.30,0.24
2499559979,-0.96,-0.30,0.24
2499561972,-0.96,-0.31,0.26
2499563976,-0.96,-0.31,0.26
2499565976,-0.96,-0.31,0.26
2499567972,-0.96,-0.31,0.26
2499570018,-0.96,-0.31,0.26
2499572070,-0.95,-0.35,0.25
2499574039,-0.95,-0.35,0.25
2499576114,-0.95,-0.35,0.25
2499578012,-0.95,-0.35,0.25
2499580009,-0.95,-0.35,0.25
2499582008,-0.93,-0.36,0.26
2499584008,-0.93,-0.36,0.26
2499586011,-0.93,-0.36,0.26
2499587979,-0.93,-0.36,0.26
2499589977,-0.93,-0.36,0.26
2499591975,-0.92,-0.36,0.26
2499593976,-0.92,-0.36,0.26
2499595988,-0.92,-0.36,0.26
2499597976,-0.92,-0.36,0.26
2499599980,-0.92,-0.36,0.26
2499602084,-0.90,-0.38,0.25
2499603983,-0.90,-0.38,0.25
2499605988,-0.90,-0.38,0.25
2499607977,-0.90,-0.38,0.25
2499610012,-0.90,-0.38,0.25
2499612008,-0.90,-0.35,0.27
2499614006,-0.90,-0.35,0.27
2499616009,-0.90,-0.35,0.27
2499618009,-0.90,-0.35,0.27
2499620002,-0.90,-0.35,0.27
2499622120,-0.90,-0.36,0.27
2499624000,-0.90,-0.36,0.27
2499626093,-0.90,-0.36,0.27
2499627987,-0.90,-0.36,0.27
2499629978,-0.90,-0.36,0.27
2499631977,-0.91,-0.36,0.26
2499634055,-0.91,-0.36,0.26
2499636026,-0.91,-0.36,0.26
2499637977,-0.91,-0.36,0.26
2499639977,-0.91,-0.36,0.26
2499641976,-0.93,-0.37,0.26
2499643975,-0.93,-0.37,0.26
2499645978,-0.93,-0.37,0.26
2499647979,-0.93,-0.37,0.26
2499650047,-0.93,-0.37,0.26
2499652123,-0.93,-0.38,0.27
2499654007,-0.93,-0.38,0.27
2499656007,-0.93,-0.38,0.27
2499658003,-0.93,-0.38,0.27
2499660009,-0.93,-0.38,0.27
2499662006,-0.92,-0.39,0.27
2499663980,-0.92,-0.39,0.27
2499665979,-0.92,-0.39,0.27
2499667977,-0.92,-0.39,0.27
2499669974,-0.92,-0.39,0.27
2499671978,-0.92,-0.41,0.25
2499673979,-0.92,-0.41,0.25
2499676081,-0.92,-0.41,0.25
2499677989,-0.92,-0.41,0.25
2499679984,-0.92,-0.41,0.25
2499681979,-0.91,-0.41,0.25
2499683979,-0.91,-0.41,0.25
2499685981,-0.91,-0.41,0.25
2499687981,-0.91,-0.41,0.25
2499690009,-0.91,-0.41,0.25
2499692007,-0.89,-0.41,0.28
2499694006,-0.89,-0.41,0.28
2499696053,-0.89,-0.41,0.28
2499698035,-0.89,-0.41,0.28
2499700009,-0.89,-0.41,0.28
2499702120,-0.89,-0.40,0.31
2499704008,-0.89,-0.40,0.31
2499706015,-0.89,-0.40,0.31
2499707980,-0.89,-0.40,0.31
2499709978,-0.89,-0.40,0.31
2499711976,-0.91,-0.41,0.27
2499713981,-0.91,-0.41,0.27
2499715980,-0.91,-0.41,0.27
2499717980,-0.91,-0.41,0.27
2499719976,-0.91,-0.41,0.27
2499721986,-0.91,-0.41,0.27
2499724020,-0.90,-0.41,0.24
2499726085,-0.90,-0.41,0.24
2499727988,-0.90,-0.41,0.24
2499730019,-0.90,-0.41,0.24
2499732003,-0.90,-0.41,0.24
2499734005,-0.88,-0.41,0.25
2499736007,-0.88,-0.41,0.25
2499738007,-0.88,-0.41,0.25
2499740018,-0.88,-0.41,0.25
2499742013,-0.88,-0.41,0.25
2499743980,-0.89,-0.40,0.25
2499745980,-0.89,-0.40,0.25
2499747982,-0.89,-0.40,0.25
2499750019,-0.89,-0.40,0.25
2499752090,-0.89,-0.40,0.25
2499753980,-0.89,-0.41,0.23
2499755990,-0.89,-0.41,0.23
2499757998,-0.89,-0.41,0.23
2499760068,-0.89,-0.41,0.23
2499762022,-0.89,-0.41,0.23
2499763976,-0.89,-0.41,0.23
2499765977,-0.89,-0.41,0.23
2499767976,-0.89,-0.41,0.23
2499770023,-0.89,-0.41,0.23
2499772000,-0.89,-0.41,0.23
2499774004,-0.88,-0.43,0.21
2499776117,-0.88,-0.43,0.21
2499778006,-0.88,-0.43,0.21
2499780006,-0.88,-0.43,0.21
2499782005,-0.88,-0.43,0.21
2499783977,-0.87,-0.42,0.21
2499785978,-0.87,-0.42,0.21
2499787978,-0.87,-0.42,0.21
2499789977,-0.87,-0.42,0.21
2499791978,-0.87,-0.42,0.21
2499793984,-0.87,-0.42,0.21
2499795990,-0.87,-0.42,0.21
2499797979,-0.87,-0.42,0.21
2499799978,-0.87,-0.42,0.21
2499802080,-0.87,-0.42,0.21
2499803981,-0.87,-0.41,0.18
2499805992,-0.87,-0.41,0.18
2499807980,-0.87,-0.41,0.18
2499810011,-0.87,-0.41,0.18
2499812009,-0.87,-0.41,0.18
2499814006,-0.87,-0.38,0.23
2499816005,-0.87,-0.38,0.23
2499818008,-0.87,-0.38,0.23
2499820036,-0.87,-0.38,0.23
2499822068,-0.87,-0.38,0.23
2499824048,-0.88,-0.38,0.24
2499826119,-0.88,-0.38,0.24
2499827986,-0.88,-0.38,0.24
2499829980,-0.88,-0.38,0.24
2499831975,-0.88,-0.38,0.24
2499833975,-0.88,-0.39,0.22
2499835976,-0.88,-0.39,0.22
2499837976,-0.88,-0.39,0.22
2499839981,-0.88,-0.39,0.22
2499841977,-0.88,-0.39,0.22
2499843978,-0.89,-0.42,0.20
2499845977,-0.89,-0.42,0.20
2499847978,-0.89,-0.42,0.20
2499850050,-0.89,-0.42,0.20
2499852112,-0.89,-0.42,0.20
2499854007,-0.88,-0.41,0.19
2499856005,-0.88,-0.41,0.19
2499858005,-0.88,-0.41,0.19
2499860006,-0.88,-0.41,0.19
2499862005,-0.88,-0.41,0.19
2499863998,-0.88,-0.40,0.18
2499865974,-0.88,-0.40,0.18
2499867977,-0.88,-0.40,0.18
2499869980,-0.88,-0.40,0.18
2499871981,-0.88,-0.40,0.18
2499873976,-0.87,-0.39,0.15
2499876074,-0.87,-0.39,0.15
2499877987,-0.87,-0.39,0.15
2499879994,-0.87,-0.39,0.15
2499882148,-0.87,-0.39,0.15
2499884016,-0.84,-0.32,0.13
2499885973,-0.84,-0.32,0.13
2499887979,-0.84,-0.32,0.13
2499890018,-0.84,-0.32,0.13
2499892005,-0.84,-0.32,0.13
2499894005,-0.92,-0.30,0.12
2499896013,-0.92,-0.30,0.12
2499898012,-0.92,-0.30,0.12
2499900005,-0.92,-0.30,0.12
2499902124,-0.92,-0.30,0.12
2499903979,-0.88,-0.28,0.01
2499905987,-0.88,-0.28,0.01
2499907975,-0.88,-0.28,0.01
2499909979,-0.88,-0.28,0.01
2499911975,-0.88,-0.28,0.01
2499913976,-0.88,-0.28,0.01
2499915977,-0.88,-0.25,0.11
2499917977,-0.88,-0.25,0.11
2499919978,-0.88,-0.25,0.11
2499921975,-0.88,-0.25,0.11
2499923975,-0.88,-0.25,0.11
2499926090,-0.85,-0.29,0.02
2499928062,-0.85,-0.29,0.02
2499930030,-0.85,-0.29,0.02
2499932013,-0.85,-0.29,0.02
2499934003,-0.85,-0.29,0.02
2499936005,-0.96,-0.29,-0.03
2499938008,-0.96,-0.29,-0.03
2499940003,-0.96,-0.29,-0.03
2499942006,-0.96,-0.29,-0.03
2499944006,-0.96,-0.29,-0.03
2499945985,-0.80,-0.38,-0.00
2499947984,-0.80,-0.38,-0.00
2499950006,-0.80,-0.38,-0.00
2499952099,-0.80,-0.38,-0.00
2499953976,-0.80,-0.38,-0.00
2499955978,-0.91,-0.25,-0.03
2499957975,-0.91,-0.25,-0.03
2499959974,-0.91,-0.25,-0.03
2499961975,-0.91,-0.25,-0.03
2499963980,-0.91,-0.25,-0.03
2499965976,-0.76,-0.27,0.01
2499967977,-0.76,-0.27,0.01
2499970013,-0.76,-0.27,0.01
2499972006,-0.76,-0.27,0.01
2499974069,-0.76,-0.27,0.01
2499976116,-0.87,-0.29,-0.03
2499978013,-0.87,-0.29,-0.03
2499980010,-0.87,-0.29,-0.03
2499982012,-0.87,-0.29,-0.03
2499984014,-0.87,-0.29,-0.03
2499985978,-0.85,-0.22,0.01
2499987980,-0.85,-0.22,0.01
2499989975,-0.85,-0.22,0.01
2499991975,-0.85,-0.22,0.01
2499993976,-0.85,-0.22,0.01
2499995989,-0.94,-0.24,-0.02
2499997979,-0.94,-0.24,-0.02
2499999976,-0.94,-0.24,-0.02
2500002084,-0.94,-0.24,-0.02
2500003982,-0.94,-0.24,-0.02
2500005996,-0.83,-0.23,-0.02
2500007978,-0.83,-0.23,-0.02
2500010018,-0.83,-0.23,-0.02
2500012008,-0.83,-0.23,-0.02
2500014008,-0.83,-0.23,-0.02
2500016012,-0.91,-0.25,0.04
2500018011,-0.91,-0.25,0.04
2500020013,-0.91,-0.25,0.04
2500021980,-0.91,-0.25,0.04
2500023979,-0.91,-0.25,0.04
2500026079,-0.82,-0.23,0.05
2500027987,-0.82,-0.23,0.05
2500030023,-0.82,-0.23,0.05
2500031977,-0.82,-0.23,0.05
2500033977,-0.82,-0.23,0.05
2500036044,-0.93,-0.25,-0.01
2500038027,-0.93,-0.25,-0.01
2500039976,-0.93,-0.25,-0.01
2500041976,-0.93,-0.25,-0.01
2500043979,-0.93,-0.25,-0.01
2500045977,-0.90,-0.33,0.02
2500047978,-0.90,-0.33,0.02
2500050046,-0.90,-0.33,0.02
2500052122,-0.90,-0.33,0.02
2500054007,-0.90,-0.33,0.02
2500056011,-0.94,-0.28,0.09
2500058010,-0.94,-0.28,0.09
2500060011,-0.94,-0.28,0.09
2500062013,-0.94,-0.28,0.09
2500063984,-0.94,-0.28,0.09
2500065981,-0.91,-0.29,0.08
2500067983,-0.91,-0.29,0.08
2500069984,-0.91,-0.29,0.08
2500071977,-0.91,-0.29,0.08
2500073976,-0.91,-0.29,0.08
2500076081,-0.89,-0.26,0.11
2500077987,-0.89,-0.26,0.11
2500079979,-0.89,-0.26,0.11
2500081979,-0.89,-0.26,0.11
2500083976,-0.89,-0.26,0.11
2500085976,-0.91,-0.27,0.14
2500087977,-0.91,-0.27,0.14
2500090020,-0.91,-0.27,0.14
2500092011,-0.91,-0.27,0.14
2500094010,-0.91,-0.27,0.14
2500096010,-0.89,-0.26,0.18
2500098064,-0.89,-0.26,0.18
2500100029,-0.89,-0.26,0.18
2500102124,-0.89,-0.26,0.18
2500104005,-0.89,-0.26,0.18
2500106014,-0.89,-0.26,0.18
2500107979,-0.93,-0.26,0.11
2500109978,-0.93,-0.26,0.11
2500111980,-0.93,-0.26,0.11
2500113976,-0.93,-0.26,0.11
2500115974,-0.93,-0.26,0.11
2500117977,-0.91,-0.26,0.07
2500119979,-0.91,-0.26,0.07
2500121980,-0.91,-0.26,0.07
2500123977,-0.91,-0.26,0.07
2500126082,-0.91,-0.26,0.07
2500127988,-0.94,-0.23,0.14
2500130008,-0.94,-0.23,0.14
2500132008,-0.94,-0.23,0.14
2500134008,-0.94,-0.23,0.14
2500136007,-0.94,-0.23,0.14
2500138050,-0.93,-0.23,0.12
2500140008,-0.93,-0.23,0.12
2500142012,-0.93,-0.23,0.12
2500143982,-0.93,-0.23,0.12
2500146110,-0.93,-0.23,0.12
2500148013,-0.95,-0.28,0.15
2500150013,-0.95,-0.28,0.15
2500152099,-0.95,-0.28,0.15
2500153976,-0.95,-0.28,0.15
2500155975,-0.95,-0.28,0.15
2500157975,-0.96,-0.28,0.17
2500159979,-0.96,-0.28,0.17
2500161977,-0.96,-0.28,0.17
2500163975,-0.96,-0.28,0.17
2500165975,-0.96,-0.28,0.17
2500167976,-0.95,-0.30,0.18
2500170021,-0.95,-0.30,0.18
2500172004,-0.95,-0.30,0.18
2500174005,-0.95,-0.30,0.18
2500176093,-0.95,-0.30,0.18
2500178010,-0.93,-0.30,0.16
2500180005,-0.93,-0.30,0.16
2500182004,-0.93,-0.30,0.16
2500183979,-0.93,-0.30,0.16
2500185974,-0.93,-0.30,0.16
2500187976,-0.92,-0.28,0.20
2500190017,-0.92,-0.28,0.20
2500192050,-0.92,-0.28,0.20
2500194001,-0.92,-0.28,0.20
2500195989,-0.92,-0.28,0.20
2500197971,-0.91,-0.29,0.19
2500199980,-0.91,-0.29,0.19
2500202096,-0.91,-0.29,0.19
2500203982,-0.91,-0.29,0.19
2500205991,-0.91,-0.29,0.19
2500207979,-0.90,-0.31,0.14
2500210015,-0.90,-0.31,0.14
2500212006,-0.90,-0.31,0.14
2500214005,-0.90,-0.31,0.14
2500216008,-0.90,-0.31,0.14
2500218007,-0.91,-0.29,0.12
2500220003,-0.91,-0.29,0.12
2500222003,-0.91,-0.29,0.12
2500223979,-0.91,-0.29,0.12
2500226210,-0.91,-0.29,0.12
2500228073,-0.92,-0.26,0.19
2500229980,-0.92,-0.26,0.19
2500231988,-0.92,-0.26,0.19
2500233977,-0.92,-0.26,0.19
2500236029,-0.92,-0.26,0.19
2500238025,-0.95,-0.27,0.18
2500240035,-0.95,-0.27,0.18
2500241991,-0.95,-0.27,0.18
2500243974,-0.95,-0.27,0.18
2500245977,-0.95,-0.27,0.18
2500247979,-0.98,-0.27,0.14
2500250046,-0.98,-0.27,0.14
2500252124,-0.98,-0.27,0.14
2500254006,-0.98,-0.27,0.14
2500256009,-0.98,-0.27,0.14
2500258006,-0.98,-0.27,0.14
2500260003,-0.98,-0.27,0.14
2500262008,-0.98,-0.27,0.14
2500263991,-0.98,-0.27,0.14
2500265977,-0.98,-0.27,0.14
2500267976,-0.97,-0.25,0.16
2500269981,-0.97,-0.25,0.16
2500271977,-0.97,-0.25,0.16
2500273981,-0.97,-0.25,0.16
2500276077,-0.97,-0.25,0.16
2500277988,-0.97,-0.25,0.13
2500279979,-0.97,-0.25,0.13
2500281981,-0.97,-0.25,0.13
2500283979,-0.97,-0.25,0.13
2500285983,-0.97,-0.25,0.13
2500288136,-0.96,-0.27,0.14
2500290043,-0.96,-0.27,0.14
2500292004,-0.96,-0.27,0.14
2500294007,-0.96,-0.27,0.14
2500296010,-0.96,-0.27,0.14
2500298004,-0.96,-0.27,0.14
2500300007,-0.95,-0.28,0.17
2500302145,-0.95,-0.28,0.17
2500304013,-0.95,-0.28,0.17
2500305987,-0.95,-0.28,0.17
2500307976,-0.95,-0.28,0.17
2500309979,-0.95,-0.27,0.20
2500311977,-0.95,-0.27,0.20
2500313980,-0.95,-0.27,0.20
2500315980,-0.95,-0.27,0.20
2500317977,-0.95,-0.27,0.20
2500319976,-0.95,-0.29,0.18
2500321976,-0.95,-0.29,0.18
2500323977,-0.95,-0.29,0.18
2500326084,-0.95,-0.29,0.18
2500327988,-0.95,-0.29,0.18
2500330012,-0.96,-0.28,0.14
2500332026,-0.96,-0.28,0.14
2500334064,-0.96,-0.28,0.14
2500336042,-0.96,-0.28,0.14
2500338045,-0.96,-0.28,0.14
2500340004,-0.97,-0.27,0.14
2500342006,-0.97,-0.27,0.14
2500344006,-0.97,-0.27,0.14
2500346013,-0.97,-0.27,0.14
2500347980,-0.97,-0.27,0.14
2500350017,-0.96,-0.26,0.12
2500352101,-0.96,-0.26,0.12
2500353978,-0.96,-0.26,0.12
2500355977,-0.96,-0.26,0.12
2500357973,-0.96,-0.26,0.12
2500359975,-0.98,-0.27,0.14
2500361977,-0.98,-0.27,0.14
2500363979,-0.98,-0.27,0.14
2500365973,-0.98,-0.27,0.14
2500367975,-0.98,-0.27,0.14
2500370013,-0.99,-0.30,0.14
2500372006,-0.99,-0.30,0.14
2500374006,-0.99,-0.30,0.14
2500376097,-0.99,-0.30,0.14
2500378012,-0.99,-0.30,0.14
2500380008,-0.99,-0.34,0.14
2500382010,-0.99,-0.34,0.14
2500383978,-0.99,-0.34,0.14
2500385979,-0.99,-0.34,0.14
2500387974,-0.99,-0.34,0.14
2500389976,-1.00,-0.35,0.15
2500391980,-1.00,-0.35,0.15
2500393982,-1.00,-0.35,0.15
2500396074,-1.00,-0.35,0.15
2500398024,-1.00,-0.35,0.15
2500399976,-1.02,-0.35,0.14
2500402093,-1.02,-0.35,0.14
2500403980,-1.02,-0.35,0.14
2500405992,-1.02,-0.35,0.14
2500407975,-1.02,-0.35,0.14
2500410023,-1.02,-0.35,0.14
2500412000,-1.02,-0.35,0.14
2500414000,-1.02,-0.35,0.14
2500416009,-1.02,-0.35,0.14
2500418005,-1.02,-0.35,0.14
2500420005,-1.02,-0.32,0.16
2500422007,-1.02,-0.32,0.16
2500423980,-1.02,-0.32,0.16
2500426085,-1.02,-0.32,0.16
2500427987,-1.02,-0.32,0.16
2500429981,-1.01,-0.34,0.16
2500431979,-1.01,-0.34,0.16
2500433977,-1.01,-0.34,0.16
2500435980,-1.01,-0.34,0.16
2500437981,-1.01,-0.34,0.16
2500440020,-0.99,-0.34,0.18
2500441979,-0.99,-0.34,0.18
2500443976,-0.99,-0.34,0.18
2500445976,-0.99,-0.34,0.18
2500447978,-0.99,-0.34,0.18
2500450048,-0.99,-0.37,0.17
2500452117,-0.99,-0.37,0.17
2500454009,-0.99,-0.37,0.17
2500456069,-0.99,-0.37,0.17
2500458045,-0.99,-0.37,0.17
2500460005,-0.96,-0.37,0.16
2500462006,-0.96,-0.37,0.16
2500464007,-0.96,-0.37,0.16
2500466010,-0.96,-0.37,0.16
2500467984,-0.96,-0.37,0.16
2500469980,-0.95,-0.38,0.18
2500471981,-0.95,-0.38,0.18
2500473979,-0.95,-0.38,0.18
2500476091,-0.95,-0.38,0.18
2500477990,-0.95,-0.38,0.18
2500479977,-0.95,-0.38,0.18
2500481977,-0.94,-0.38,0.16
2500483981,-0.94,-0.38,0.16
2500485980,-0.94,-0.38,0.16
2500487976,-0.94,-0.38,0.16
2500490014,-0.94,-0.38,0.16
2500492008,-0.92,-0.39,0.15
2500494006,-0.92,-0.39,0.15
2500496011,-0.92,-0.39,0.15
2500498018,-0.92,-0.39,0.15
2500500003,-0.92,-0.39,0.15
2500502106,-0.92,-0.38,0.13
2500504062,-0.92,-0.38,0.13
2500506031,-0.92,-0.38,0.13
2500507976,-0.92,-0.38,0.13
2500509974,-0.92,-0.38,0.13
2500511981,-0.92,-0.34,0.15
2500513975,-0.92,-0.34,0.15
2500515975,-0.92,-0.34,0.15
2500517980,-0.92,-0.34,0.15
2500519978,-0.92,-0.34,0.15
2500521976,-0.91,-0.32,0.17
2500523980,-0.91,-0.32,0.17
2500526106,-0.91,-0.32,0.17
2500527990,-0.91,-0.32,0.17
2500530019,-0.91,-0.32,0.17
2500532001,-0.91,-0.31,0.18
2500534007,-0.91,-0.31,0.18
2500536007,-0.91,-0.31,0.18
2500538008,-0.91,-0.31,0.18
2500540006,-0.91,-0.31,0.18
2500542038,-0.91,-0.33,0.19
2500544013,-0.91,-0.33,0.19
2500545984,-0.91,-0.33,0.19
2500547984,-0.91,-0.33,0.19
2500550013,-0.91,-0.33,0.19
2500552259,-0.90,-0.34,0.19
2500554018,-0.90,-0.34,0.19
2500555979,-0.90,-0.34,0.19
2500557979,-0.90,-0.34,0.19
2500559978,-0.90,-0.34,0.19
2500561979,-0.89,-0.37,0.18
2500563978,-0.89,-0.37,0.18
2500565975,-0.89,-0.37,0.18
2500567974,-0.89,-0.37,0.18
2500570020,-0.89,-0.37,0.18
2500572004,-0.89,-0.37,0.16
2500574005,-0.89,-0.37,0.16
2500576109,-0.89,-0.37,0.16
2500578007,-0.89,-0.37,0.16
2500580006,-0.89,-0.37,0.16
2500582010,-0.88,-0.34,0.18
2500583976,-0.88,-0.34,0.18
2500585980,-0.88,-0.34,0.18
2500587977,-0.88,-0.34,0.18
2500589977,-0.88,-0.34,0.18
2500591989,-0.87,-0.33,0.19
2500593981,-0.87,-0.33,0.19
2500596064,-0.87,-0.33,0.19
2500598025,-0.87,-0.33,0.19
2500599977,-0.87,-0.33,0.19
2500602101,-0.87,-0.31,0.19
2500603978,-0.87,-0.31,0.19
2500605990,-0.87,-0.31,0.19
2500607977,-0.87,-0.31,0.19
2500610014,-0.87,-0.31,0.19
2500612002,-0.86,-0.32,0.20
2500614003,-0.86,-0.32,0.20
2500616006,-0.86,-0.32,0.20
2500618005,-0.86,-0.32,0.20
2500620007,-0.86,-0.32,0.20
2500622080,-0.86,-0.35,0.19
2500623979,-0.86,-0.35,0.19
2500626085,-0.86,-0.35,0.19
2500627989,-0.86,-0.35,0.19
2500629978,-0.86,-0.35,0.19
2500631977,-0.83,-0.39,0.18
2500633980,-0.83,-0.39,0.18
2500635979,-0.83,-0.39,0.18
2500637977,-0.83,-0.39,0.18
2500640036,-0.83,-0.39,0.18
2500642034,-0.81,-0.39,0.24
2500643992,-0.81,-0.39,0.24
2500646010,-0.81,-0.39,0.24
2500647981,-0.81,-0.39,0.24
2500650049,-0.81,-0.39,0.24
2500652118,-0.85,-0.42,0.25
2500654004,-0.85,-0.42,0.25
2500656007,-0.85,-0.42,0.25
2500658002,-0.85,-0.42,0.25
2500660009,-0.85,-0.42,0.25
2500662005,-0.86,-0.49,0.15
2500663984,-0.86,-0.49,0.15
2500665979,-0.86,-0.49,0.15
2500667975,-0.86,-0.49,0.15
2500669975,-0.86,-0.49,0.15
2500671981,-0.86,-0.49,0.15
2500673975,-0.88,-0.49,0.17
2500676078,-0.88,-0.49,0.17
2500677988,-0.88,-0.49,0.17
2500679978,-0.88,-0.49,0.17
2500681981,-0.88,-0.49,0.17
2500683975,-0.84,-0.46,0.24
2500685977,-0.84,-0.46,0.24
2500687977,-0.84,-0.46,0.24
2500690012,-0.84,-0.46,0.24
2500692008,-0.84,-0.46,0.24
2500694008,-0.84,-0.48,0.23
2500696012,-0.84,-0.48,0.23
2500698005,-0.84,-0.48,0.23
2500700004,-0.84,-0.48,0.23
2500702111,-0.84,-0.48,0.23
2500704059,-0.87,-0.49,0.23
2500706029,-0.87,-0.49,0.23
2500707980,-0.87,-0.49,0.23
2500709976,-0.87,-0.49,0.23
2500711979,-0.87,-0.49,0.23
2500713975,-0.89,-0.51,0.21
2500715977,-0.89,-0.51,0.21
2500717974,-0.89,-0.51,0.21
2500719976,-0.89,-0.51,0.21
2500721977,-0.89,-0.51,0.21
2500723986,-0.89,-0.52,0.20
2500726087,-0.89,-0.52,0.20
2500727987,-0.89,-0.52,0.20
2500730018,-0.89,-0.52,0.20
2500732001,-0.89,-0.52,0.20
2500734000,-0.88,-0.54,0.18
2500736008,-0.88,-0.54,0.18
2500738005,-0.88,-0.54,0.18
2500740004,-0.88,-0.54,0.18
2500742004,-0.88,-0.54,0.18
2500743977,-0.88,-0.51,0.24
2500745981,-0.88,-0.51,0.24
2500748029,-0.88,-0.51,0.24
2500750016,-0.88,-0.51,0.24
2500752093,-0.88,-0.51,0.24
2500753980,-0.86,-0.52,0.24
2500755992,-0.86,-0.52,0.24
2500757976,-0.86,-0.52,0.24
2500759977,-0.86,-0.52,0.24
2500761978,-0.86,-0.52,0.24
2500763977,-0.88,-0.54,0.20
2500765977,-0.88,-0.54,0.20
2500767979,-0.88,-0.54,0.20
2500770019,-0.88,-0.54,0.20
2500772009,-0.88,-0.54,0.20
2500774004,-0.88,-0.54,0.20
2500776098,-0.88,-0.54,0.20
2500778008,-0.88,-0.54,0.20
2500780003,-0.88,-0.54,0.20
2500782068,-0.88,-0.54,0.20
2500784049,-0.88,-0.53,0.23
2500786008,-0.88,-0.53,0.23
2500787973,-0.88,-0.53,0.23
2500789985,-0.88,-0.53,0.23
2500791980,-0.88,-0.53,0.23
2500793985,-0.89,-0.52,0.25
2500795992,-0.89,-0.52,0.25
2500797975,-0.89,-0.52,0.25
2500799975,-0.89,-0.52,0.25
2500802101,-0.89,-0.52,0.25
2500803982,-0.89,-0.52,0.22
2500805988,-0.89,-0.52,0.22
2500807979,-0.89,-0.52,0.22
2500810008,-0.89,-0.52,0.22
2500812006,-0.89,-0.52,0.22
2500814005,-0.89,-0.52,0.22
2500816006,-0.89,-0.52,0.22
2500818002,-0.89,-0.52,0.22
2500820008,-0.89,-0.52,0.22
2500821993,-0.89,-0.52,0.22
2500823979,-0.88,-0.51,0.22
2500826084,-0.88,-0.51,0.22
2500827987,-0.88,-0.51,0.22
2500829981,-0.88,-0.51,0.22
2500831979,-0.88,-0.51,0.22
2500833979,-0.89,-0.50,0.22
2500835978,-0.89,-0.50,0.22
2500837979,-0.89,-0.50,0.22
2500839979,-0.89,-0.50,0.22
2500842043,-0.89,-0.50,0.22
2500844029,-0.89,-0.50,0.24
2500845979,-0.89,-0.50,0.24
2500847979,-0.89,-0.50,0.24
2500850054,-0.89,-0.50,0.24
2500852130,-0.89,-0.50,0.24
2500854010,-0.89,-0.50,0.23
2500856005,-0.89,-0.50,0.23
2500858008,-0.89,-0.50,0.23
2500860003,-0.89,-0.50,0.23
2500862006,-0.89,-0.50,0.23
2500864005,-0.89,-0.50,0.23
2500865980,-0.91,-0.48,0.23
2500867975,-0.91,-0.48,0.23
2500869975,-0.91,-0.48,0.23
2500871984,-0.91,-0.48,0.23
2500873977,-0.91,-0.48,0.23
2500876078,-0.89,-0.47,0.23
2500877987,-0.89,-0.47,0.23
2500879979,-0.89,-0.47,0.23
2500881977,-0.89,-0.47,0.23
2500883977,-0.89,-0.47,0.23
2500885984,-0.89,-0.46,0.23
2500887979,-0.89,-0.46,0.23
2500890010,-0.89,-0.46,0.23
2500892004,-0.89,-0.46,0.23
2500894005,-0.89,-0.46,0.23
2500896008,-0.88,-0.46,0.24
2500898005,-0.88,-0.46,0.24
2500900006,-0.88,-0.46,0.24
2500902104,-0.88,-0.46,0.24
2500904015,-0.88,-0.46,0.24
2500906072,-0.88,-0.46,0.25
2500908013,-0.88,-0.46,0.25
2500909976,-0.88,-0.46,0.25
2500911976,-0.88,-0.46,0.25
2500913975,-0.88,-0.46,0.25
2500915977,-0.88,-0.45,0.23
2500917978,-0.88,-0.45,0.23
2500919981,-0.88,-0.45,0.23
2500921980,-0.88,-0.45,0.23
2500923977,-0.88,-0.45,0.23
2500926088,-0.86,-0.47,0.23
2500927987,-0.86,-0.47,0.23
2500930020,-0.86,-0.47,0.23
2500932006,-0.86,-0.47,0.23
2500934003,-0.86,-0.47,0.23
2500936006,-0.86,-0.46,0.23
2500938004,-0.86,-0.46,0.23
2500940005,-0.86,-0.46,0.23
2500942002,-0.86,-0.46,0.23
2500944002,-0.86,-0.46,0.23
2500945978,-0.85,-0.45,0.22
2500947982,-0.85,-0.45,0.22
2500950066,-0.85,-0.45,0.22
2500952131,-0.85,-0.45,0.22
2500953975,-0.85,-0.45,0.22
2500955975,-0.84,-0.44,0.21
2500957980,-0.84,-0.44,0.21
2500959974,-0.84,-0.44,0.21
2500961974,-0.84,-0.44,0.21
2500963990,-0.84,-0.44,0.21
2500966083,-0.84,-0.45,0.19
2500968012,-0.84,-0.45,0.19
2500970025,-0.84,-0.45,0.19
2500972002,-0.84,-0.45,0.19
2500974001,-0.84,-0.45,0.19
2500976112,-0.84,-0.46,0.18
2500978007,-0.84,-0.46,0.18
2500980003,-0.84,-0.46,0.18
2500982006,-0.84,-0.46,0.18
2500983984,-0.84,-0.46,0.18
2500985986,-0.85,-0.45,0.18
2500987978,-0.85,-0.45,0.18
2500989976,-0.85,-0.45,0.18
2500991981,-0.85,-0.45,0.18
2500993981,-0.85,-0.45,0.18
2500995990,-0.86,-0.45,0.18
2500997974,-0.86,-0.45,0.18
2500999980,-0.86,-0.45,0.18
2501002078,-0.86,-0.45,0.18
2501003983,-0.86,-0.45,0.18
2501005999,-0.84,-0.47,0.17
2501007977,-0.84,-0.47,0.17
2501010012,-0.84,-0.47,0.17
2501012050,-0.84,-0.47,0.17
2501014043,-0.84,-0.47,0.17
2501016015,-0.90,-0.51,0.17
2501018003,-0.90,-0.51,0.17
2501020006,-0.90,-0.51,0.17
2501022008,-0.90,-0.51,0.17
2501024012,-0.90,-0.51,0.17
2501026097,-0.84,-0.58,0.06
2501027991,-0.84,-0.58,0.06
2501029979,-0.84,-0.58,0.06
2501031976,-0.84,-0.58,0.06
2501033978,-0.84,-0.58,0.06
2501035984,-0.93,-0.57,0.20
2501037985,-0.93,-0.57,0.20
2501039979,-0.93,-0.57,0.20
2501041980,-0.93,-0.57,0.20
2501043981,-0.93,-0.57,0.20
2501045981,-0.86,-0.54,0.13
2501047980,-0.86,-0.54,0.13
2501050045,-0.86,-0.54,0.13
2501052119,-0.86,-0.54,0.13
2501054047,-0.86,-0.54,0.13
2501056005,-0.86,-0.54,0.13
2501058009,-0.84,-0.42,0.37
2501060003,-0.84,-0.42,0.37
2501062007,-0.84,-0.42,0.37
2501064008,-0.84,-0.42,0.37
2501065978,-0.84,-0.42,0.37
2501067976,-0.93,-0.48,0.19
2501069981,-0.93,-0.48,0.19
2501071977,-0.93,-0.48,0.19
2501074134,-0.93,-0.48,0.19
2501076118,-0.93,-0.48,0.19
2501077986,-0.80,-0.50,0.13
2501079975,-0.80,-0.50,0.13
2501081979,-0.80,-0.50,0.13
2501083977,-0.80,-0.50,0.13
2501085975,-0.80,-0.50,0.13
2501087979,-1.00,-0.46,0.17
2501090017,-1.00,-0.46,0.17
2501092004,-1.00,-0.46,0.17
2501094006,-1.00,-0.46,0.17
2501096011,-1.00,-0.46,0.17
2501098004,-0.80,-0.46,0.07
2501100002,-0.80,-0.46,0.07
2501102112,-0.80,-0.46,0.07
2501103983,-0.80,-0.46,0.07
2501105990,-0.80,-0.46,0.07
2501107976,-1.00,-0.41,0.16
2501109978,-1.00,-0.41,0.16
2501111974,-1.00,-0.41,0.16
2501113975,-1.00,-0.41,0.16
2501115983,-1.00,-0.41,0.16
2501117980,-0.84,-0.38,0.05
2501120097,-0.84,-0.38,0.05
2501122017,-0.84,-0.38,0.05
2501123977,-0.84,-0.38,0.05
2501126090,-0.84,-0.38,0.05
2501127990,-0.92,-0.36,0.16
2501130021,-0.92,-0.36,0.16
2501132006,-0.92,-0.36,0.16
2501134006,-0.92,-0.36,0.16
2501136006,-0.92,-0.36,0.16
2501138008,-0.90,-0.30,0.01
2501140007,-0.90,-0.30,0.01
2501142007,-0.90,-0.30,0.01
2501143980,-0.90,-0.30,0.01
2501145980,-0.90,-0.30,0.01
2501147982,-0.88,-0.27,0.13
2501150012,-0.88,-0.27,0.13
2501152088,-0.88,-0.27,0.13
2501153993,-0.88,-0.27,0.13
2501156021,-0.88,-0.27,0.13
2501158011,-0.94,-0.23,0.02
2501159980,-0.94,-0.23,0.02
2501161980,-0.94,-0.23,0.02
2501163978,-0.94,-0.23,0.02
2501166024,-0.94,-0.23,0.02
2501168034,-0.86,-0.25,0.00
2501170025,-0.86,-0.25,0.00
2501172008,-0.86,-0.25,0.00
2501174004,-0.86,-0.25,0.00
2501176114,-0.86,-0.25,0.00
2501178011,-0.96,-0.20,-0.03
2501180006,-0.96,-0.20,-0.03
2501182008,-0.96,-0.20,-0.03
2501183984,-0.96,-0.20,-0.03
2501185979,-0.96,-0.20,-0.03
2501187977,-0.91,-0.18,-0.01
2501189979,-0.91,-0.18,-0.01
2501191976,-0.91,-0.18,-0.01
2501193980,-0.91,-0.18,-0.01
2501195993,-0.91,-0.18,-0.01
2501197971,-0.95,-0.16,-0.02
2501199977,-0.95,-0.16,-0.02
2501202078,-0.95,-0.16,-0.02
2501203979,-0.95,-0.16,-0.02
2501205990,-0.95,-0.16,-0.02
2501207977,-0.94,-0.16,-0.08
2501210014,-0.94,-0.16,-0.08
2501212008,-0.94,-0.16,-0.08
2501214000,-0.94,-0.16,-0.08
2501216006,-0.94,-0.16,-0.08
2501218003,-0.89,-0.12,-0.02
2501220004,-0.89,-0.12,-0.02
2501222005,-0.89,-0.12,-0.02
2501223977,-0.89,-0.12,-0.02
2501226084,-0.89,-0.12,-0.02
2501228068,-0.95,-0.11,0.00
2501230023,-0.95,-0.11,0.00
2501231979,-0.95,-0.11,0.00
2501233978,-0.95,-0.11,0.00
2501235980,-0.95,-0.11,0.00
2501237976,-0.91,-0.12,-0.00
2501239981,-0.91,-0.12,-0.00
2501241980,-0.91,-0.12,-0.00
2501243981,-0.91,-0.12,-0.00
2501245978,-0.91,-0.12,-0.00
2501247992,-0.91,-0.12,-0.00
2501250046,-0.94,-0.14,0.04
2501252119,-0.94,-0.14,0.04
2501254005,-0.94,-0.14,0.04
2501256013,-0.94,-0.14,0.04
2501258038,-0.94,-0.14,0.04
2501260056,-0.91,-0.17,-0.00
2501262007,-0.91,-0.17,-0.00
2501264013,-0.91,-0.17,-0.00
2501265975,-0.91,-0.17,-0.00
2501267980,-0.91,-0.17,-0.00
2501269977,-0.91,-0.20,0.05
2501271981,-0.91,-0.20,0.05
2501273981,-0.91,-0.20,0.05
2501276087,-0.91,-0.20,0.05
2501277987,-0.91,-0.20,0.05
2501279979,-0.90,-0.22,0.01
2501281978,-0.90,-0.22,0.01
2501283979,-0.90,-0.22,0.01
2501285979,-0.90,-0.22,0.01
2501287979,-0.90,-0.22,0.01
2501290091,-0.89,-0.22,0.07
2501292046,-0.89,-0.22,0.07
2501294006,-0.89,-0.22,0.07
2501296004,-0.89,-0.22,0.07
2501298007,-0.89,-0.22,0.07
2501300007,-0.92,-0.25,0.07
2501302119,-0.92,-0.25,0.07
2501304008,-0.92,-0.25,0.07
2501306017,-0.92,-0.25,0.07
2501307980,-0.92,-0.25,0.07
2501309980,-0.90,-0.27,0.07
2501311979,-0.90,-0.27,0.07
2501313984,-0.90,-0.27,0.07
2501315980,-0.90,-0.27,0.07
2501317980,-0.90,-0.27,0.07
2501319979,-0.93,-0.26,0.10
2501321977,-0.93,-0.26,0.10
2501323979,-0.93,-0.26,0.10
2501326080,-0.93,-0.26,0.10
2501327987,-0.93,-0.26,0.10
2501329976,-0.90,-0.31,0.11
2501332010,-0.90,-0.31,0.11
2501334007,-0.90,-0.31,0.11
2501336006,-0.90,-0.31,0.11
2501338006,-0.90,-0.31,0.11
2501340009,-0.91,-0.31,0.17
2501342005,-0.91,-0.31,0.17
2501343991,-0.91,-0.31,0.17
2501345980,-0.91,-0.31,0.17
2501347981,-0.91,-0.31,0.17
2501350012,-0.91,-0.30,0.13
2501352091,-0.91,-0.30,0.13
2501353981,-0.91,-0.30,0.13
2501356069,-0.91,-0.30,0.13
2501358021,-0.91,-0.30,0.13
2501359979,-0.90,-0.32,0.16
2501362014,-0.90,-0.32,0.16
2501363977,-0.90,-0.32,0.16
2501365975,-0.90,-0.32,0.16
2501367977,-0.90,-0.32,0.16
2501369976,-0.91,-0.32,0.13
2501372021,-0.91,-0.32,0.13
2501374007,-0.91,-0.32,0.13
2501376109,-0.91,-0.32,0.13
2501378012,-0.91,-0.32,0.13
2501380008,-0.90,-0.33,0.10
2501382006,-0.90,-0.33,0.10
2501384005,-0.90,-0.33,0.10
2501385978,-0.90,-0.33,0.10
2501387979,-0.90,-0.33,0.10
2501389979,-0.90,-0.29,0.13
2501391977,-0.90,-0.29,0.13
2501393979,-0.90,-0.29,0.13
2501395991,-0.90,-0.29,0.13
2501397974,-0.90,-0.29,0.13
2501399976,-0.90,-0.27,0.13
2501402074,-0.90,-0.27,0.13
2501403980,-0.90,-0.27,0.13
2501405990,-0.90,-0.27,0.13
2501407978,-0.90,-0.27,0.13
2501409978,-0.91,-0.26,0.15
2501412010,-0.91,-0.26,0.15
2501414008,-0.91,-0.26,0.15
2501416059,-0.91,-0.26,0.15
2501418050,-0.91,-0.26,0.15
2501420009,-0.93,-0.27,0.15
2501422005,-0.93,-0.27,0.15
2501424009,-0.93,-0.27,0.15
2501426119,-0.93,-0.27,0.15
2501427988,-0.93,-0.27,0.15
2501429984,-0.94,-0.26,0.18
2501431981,-0.94,-0.26,0.18
2501433979,-0.94,-0.26,0.18
2501435977,-0.94,-0.26,0.18
2501437981,-0.94,-0.26,0.18
2501439976,-0.94,-0.26,0.18
2501441981,-0.95,-0.26,0.20
2501443980,-0.95,-0.26,0.20
2501445985,-0.95,-0.26,0.20
2501447979,-0.95,-0.26,0.20
2501450010,-0.95,-0.26,0.20
2501452126,-0.95,-0.27,0.18
2501454006,-0.95,-0.27,0.18
2501456009,-0.95,-0.27,0.18
2501458004,-0.95,-0.27,0.18
2501460006,-0.95,-0.27,0.18
2501462008,-0.95,-0.28,0.18
2501464055,-0.95,-0.28,0.18
2501465979,-0.95,-0.28,0.18
2501467976,-0.95,-0.28,0.18
2501469981,-0.95,-0.28,0.18
2501471979,-0.94,-0.28,0.19
2501473979,-0.94,-0.28,0.19
2501476091,-0.94,-0.28,0.19
2501478053,-0.94,-0.28,0.19
2501480023,-0.94,-0.28,0.19
2501481975,-0.93,-0.28,0.19
2501483976,-0.93,-0.28,0.19
2501485979,-0.93,-0.28,0.19
2501487974,-0.93,-0.28,0.19
2501489975,-0.93,-0.28,0.19
2501492022,-0.93,-0.27,0.20
2501494014,-0.93,-0.27,0.20
2501496013,-0.93,-0.27,0.20
2501498010,-0.93,-0.27,0.20
2501500011,-0.93,-0.27,0.20
2501502127,-0.93,-0.27,0.20
2501504012,-0.93,-0.27,0.20
2501505998,-0.93,-0.27,0.20
2501507975,-0.93,-0.27,0.20
2501509974,-0.93,-0.27,0.20
2501511979,-0.94,-0.29,0.18
2501513974,-0.94,-0.29,0.18
2501515975,-0.94,-0.29,0.18
2501517976,-0.94,-0.29,0.18
2501519975,-0.94,-0.29,0.18
2501521973,-0.95,-0.28,0.17
2501523974,-0.95,-0.28,0.17
2501526112,-0.95,-0.28,0.17
2501528042,-0.95,-0.28,0.17
2501529987,-0.95,-0.28,0.17
2501532015,-0.97,-0.27,0.20
2501534004,-0.97,-0.27,0.20
2501536006,-0.97,-0.27,0.20
2501538007,-0.97,-0.27,0.20
2501540001,-0.97,-0.27,0.20
2501542005,-0.97,-0.29,0.16
2501544007,-0.97,-0.29,0.16
2501545975,-0.97,-0.29,0.16
2501547984,-0.97,-0.29,0.16
2501550006,-0.97,-0.29,0.16
2501552100,-0.97,-0.29,0.16
2501553973,-0.97,-0.29,0.16
2501555973,-0.97,-0.29,0.16
2501557970,-0.97,-0.29,0.16
2501559974,-0.97,-0.29,0.16
2501561980,-0.98,-0.27,0.18
2501563977,-0.98,-0.27,0.18
2501566033,-0.98,-0.27,0.18
2501567980,-0.98,-0.27,0.18
2501569976,-0.98,-0.27,0.18
2501572014,-0.97,-0.29,0.19
2501574004,-0.97,-0.29,0.19
2501576105,-0.97,-0.29,0.19
2501578006,-0.97,-0.29,0.19
2501580006,-0.97,-0.29,0.19
2501582000,-0.99,-0.31,0.16
2501584006,-0.99,-0.31,0.16
2501585978,-0.99,-0.31,0.16
2501588063,-0.99,-0.31,0.16
2501590020,-0.99,-0.31,0.16
2501591974,-0.99,-0.32,0.18
2501593979,-0.99,-0.32,0.18
2501595993,-0.99,-0.32,0.18
2501597976,-0.99,-0.32,0.18
2501599976,-0.99,-0.32,0.18
2501602094,-0.95,-0.34,0.21
2501603980,-0.95,-0.34,0.21
2501605990,-0.95,-0.34,0.21
2501607977,-0.95,-0.34,0.21
2501609976,-0.95,-0.34,0.21
2501612020,-0.93,-0.37,0.24
2501614001,-0.93,-0.37,0.24
2501616005,-0.93,-0.37,0.24
2501618006,-0.93,-0.37,0.24
2501620008,-0.93,-0.37,0.24
2501622080,-0.93,-0.42,0.22
2501624009,-0.93,-0.42,0.22
2501626084,-0.93,-0.42,0.22
2501627987,-0.93,-0.42,0.22
2501629980,-0.93,-0.42,0.22
2501631977,-0.93,-0.42,0.22
2501633979,-0.95,-0.45,0.19
2501635979,-0.95,-0.45,0.19
2501637976,-0.95,-0.45,0.19
2501639974,-0.95,-0.45,0.19
2501641981,-0.95,-0.45,0.19
2501643980,-0.93,-0.46,0.17
2501645979,-0.93,-0.46,0.17
2501647994,-0.93,-0.46,0.17
2501650090,-0.93,-0.46,0.17
2501652164,-0.93,-0.46,0.17
2501654011,-0.91,-0.42,0.23
2501656005,-0.91,-0.42,0.23
2501658005,-0.91,-0.42,0.23
2501660009,-0.91,-0.42,0.23
2501662007,-0.91,-0.42,0.23
2501664004,-0.95,-0.43,0.21
2501666008,-0.95,-0.43,0.21
2501667985,-0.95,-0.43,0.21
2501670017,-0.95,-0.43,0.21
2501671980,-0.95,-0.43,0.21
2501673979,-0.98,-0.45,0.19
2501676082,-0.98,-0.45,0.19
2501677988,-0.98,-0.45,0.19
2501679975,-0.98,-0.45,0.19
2501681976,-0.98,-0.45,0.19
2501683977,-0.98,-0.45,0.16
2501685975,-0.98,-0.45,0.16
2501687976,-0.98,-0.45,0.16
2501689976,-0.98,-0.45,0.16
2501692021,-0.98,-0.45,0.16
2501694007,-0.98,-0.43,0.16
2501696045,-0.98,-0.43,0.16
2501698034,-0.98,-0.43,0.16
2501700009,-0.98,-0.43,0.16
2501702124,-0.98,-0.43,0.16
2501704003,-0.98,-0.42,0.16
2501706014,-0.98,-0.42,0.16
2501708008,-0.98,-0.42,0.16
2501709984,-0.98,-0.42,0.16
2501711979,-0.98,-0.42,0.16
2501713977,-0.98,-0.41,0.13
2501715976,-0.98,-0.41,0.13
2501717976,-0.98,-0.41,0.13
2501719979,-0.98,-0.41,0.13
2501721980,-0.98,-0.41,0.13
2501723973,-0.97,-0.39,0.10
2501726086,-0.97,-0.39,0.10
2501727988,-0.97,-0.39,0.10
2501729977,-0.97,-0.39,0.10
2501732008,-0.97,-0.39,0.10
2501734008,-0.98,-0.37,0.08
2501736004,-0.98,-0.37,0.08
2501738009,-0.98,-0.37,0.08
2501740005,-0.98,-0.37,0.08
2501742005,-0.98,-0.37,0.08
2501743997,-0.98,-0.35,0.03
2501745980,-0.98,-0.35,0.03
2501747975,-0.98,-0.35,0.03
2501749983,-0.98,-0.35,0.03
2501752124,-0.98,-0.35,0.03
2501753983,-0.97,-0.33,0.03
2501755993,-0.97,-0.33,0.03
2501758039,-0.97,-0.33,0.03
2501760029,-0.97,-0.33,0.03
2501761977,-0.97,-0.33,0.03
2501763976,-0.97,-0.30,0.05
2501765981,-0.97,-0.30,0.05
2501767977,-0.97,-0.30,0.05
2501769980,-0.97,-0.30,0.05
2501772053,-0.97,-0.30,0.05
2501774008,-0.95,-0.29,0.05
2501776110,-0.95,-0.29,0.05
2501778012,-0.95,-0.29,0.05
2501780008,-0.95,-0.29,0.05
2501782006,-0.95,-0.29,0.05
2501784006,-0.93,-0.28,0.06
2501785979,-0.93,-0.28,0.06
2501787977,-0.93,-0.28,0.06
2501789978,-0.93,-0.28,0.06
2501791979,-0.93,-0.28,0.06
2501793981,-0.92,-0.28,0.08
2501795991,-0.92,-0.28,0.08
2501797978,-0.92,-0.28,0.08
2501799977,-0.92,-0.28,0.08
2501802079,-0.92,-0.28,0.08
2501803979,-0.91,-0.26,0.10
2501805990,-0.91,-0.26,0.10
2501807978,-0.91,-0.26,0.10
2501809977,-0.91,-0.26,0.10
2501812014,-0.91,-0.26,0.10
2501814002,-0.90,-0.27,0.14
2501816005,-0.90,-0.27,0.14
2501818006,-0.90,-0.27,0.14
2501820069,-0.90,-0.27,0.14
2501822040,-0.90,-0.27,0.14
2501824010,-0.90,-0.27,0.14
2501826118,-0.90,-0.29,0.13
2501827999,-0.90,-0.29,0.13
2501829979,-0.90,-0.29,0.13
2501831976,-0.90,-0.29,0.13
2501833976,-0.90,-0.29,0.13
2501835982,-0.89,-0.28,0.16
2501837981,-0.89,-0.28,0.16
2501839981,-0.89,-0.28,0.16
2501841980,-0.89,-0.28,0.16
2501843979,-0.89,-0.28,0.16
2501845978,-0.87,-0.30,0.18
2501847979,-0.87,-0.30,0.18
2501849981,-0.87,-0.30,0.18
2501852145,-0.87,-0.30,0.18
2501854003,-0.87,-0.30,0.18
2501856006,-0.86,-0.29,0.20
2501858005,-0.86,-0.29,0.20
2501860004,-0.86,-0.29,0.20
2501862008,-0.86,-0.29,0.20
2501864013,-0.86,-0.29,0.20
2501865977,-0.84,-0.29,0.21
2501867977,-0.84,-0.29,0.21
2501869979,-0.84,-0.29,0.21
2501871977,-0.84,-0.29,0.21
2501874025,-0.84,-0.29,0.21
2501876084,-0.83,-0.29,0.23
2501877987,-0.83,-0.29,0.23
2501879981,-0.83,-0.29,0.23
2501882091,-0.83,-0.29,0.23
2501884013,-0.83,-0.29,0.23
2501885978,-0.84,-0.31,0.21
2501887978,-0.84,-0.31,0.21
2501889976,-0.84,-0.31,0.21
2501892017,-0.84,-0.31,0.21
2501894005,-0.84,-0.31,0.21
2501896010,-0.84,-0.33,0.22
2501898007,-0.84,-0.33,0.22
2501900008,-0.84,-0.33,0.22
2501902120,-0.84,-0.33,0.22
2501904012,-0.84,-0.33,0.22
2501905990,-0.84,-0.34,0.24
2501907974,-0.84,-0.34,0.24
2501909977,-0.84,-0.34,0.24
2501911978,-0.84,-0.34,0.24
2501913977,-0.84,-0.34,0.24
2501915979,-0.85,-0.37,0.24
2501917978,-0.85,-0.37,0.24
2501919972,-0.85,-0.37,0.24
2501921979,-0.85,-0.37,0.24
2501923975,-0.85,-0.37,0.24
2501926085,-0.86,-0.40,0.24
2501927986,-0.86,-0.40,0.24
2501929976,-0.86,-0.40,0.24
