timestamp,accX,accY,accZ
447402747,0.54,-0.61,0.55
447404690,0.54,-0.61,0.55
447406696,0.54,-0.61,0.55
447408690,0.54,-0.61,0.55
447410693,0.54,-0.61,0.55
447412695,0.54,-0.61,0.55
447414692,0.54,-0.61,0.55
447416767,0.54,-0.61,0.55
447418698,0.54,-0.61,0.55
447420692,0.54,-0.61,0.55
447422696,0.54,-0.61,0.56
447424699,0.54,-0.61,0.56
447426690,0.54,-0.61,0.56
447428692,0.54,-0.61,0.56
447430695,0.54,-0.61,0.56
447432693,0.54,-0.61,0.56
447434698,0.54,-0.61,0.56
447436699,0.54,-0.61,0.56
447438715,0.54,-0.61,0.56
447440690,0.54,-0.61,0.56
447442751,0.54,-0.62,0.57
447444702,0.54,-0.62,0.57
447446719,0.54,-0.62,0.57
447448743,0.54,-0.62,0.57
447450717,0.54,-0.62,0.57
447452717,0.54,-0.62,0.57
447454757,0.54,-0.62,0.57
447456736,0.54,-0.62,0.57
447458716,0.54,-0.62,0.57
447460715,0.54,-0.62,0.57
447462721,0.54,-0.62,0.56
447464745,0.54,-0.62,0.56
447466821,0.54,-0.62,0.56
447468717,0.54,-0.62,0.56
447470676,0.54,-0.62,0.56
447472672,0.54,-0.62,0.56
447474692,0.55,-0.61,0.55
447476834,0.55,-0.61,0.55
447478698,0.55,-0.61,0.55
447480687,0.55,-0.61,0.55
447482679,0.55,-0.61,0.55
447484670,0.54,-0.60,0.55
447486741,0.54,-0.60,0.55
447488744,0.54,-0.60,0.55
447490730,0.54,-0.60,0.55
447492828,0.54,-0.60,0.55
447494719,0.54,-0.61,0.55
447496754,0.54,-0.61,0.55
447498726,0.54,-0.61,0.55
447500714,0.54,-0.61,0.55
447502741,0.54,-0.61,0.55
447504766,0.55,-0.61,0.55
447506730,0.55,-0.61,0.55
447508712,0.55,-0.61,0.55
447510679,0.55,-0.61,0.55
447512684,0.55,-0.61,0.55
447514739,0.55,-0.61,0.55
447516789,0.55,-0.61,0.55
447518680,0.55,-0.61,0.55
447520676,0.55,-0.61,0.55
447522678,0.55,-0.61,0.55
447524670,0.54,-0.61,0.55
447526720,0.54,-0.61,0.55
447528718,0.54,-0.61,0.55
447530718,0.54,-0.61,0.55
447532714,0.54,-0.61,0.55
447534716,0.54,-0.61,0.56
447536712,0.54,-0.61,0.56
447538789,0.54,-0.61,0.56
447540717,0.54,-0.61,0.56
447542772,0.54,-0.61,0.56
447544669,0.54,-0.61,0.56
447546680,0.54,-0.61,0.56
447548669,0.54,-0.61,0.56
447550684,0.54,-0.61,0.56
447552718,0.54,-0.61,0.56
447554673,0.54,-0.61,0.56
447556670,0.55,-0.61,0.55
447558674,0.55,-0.61,0.55
447560667,0.55,-0.61,0.55
447562667,0.55,-0.61,0.55
447564671,0.55,-0.61,0.55
447566825,0.54,-0.62,0.57
447568721,0.54,-0.62,0.57
447570714,0.54,-0.62,0.57
447572736,0.54,-0.62,0.57
447574742,0.54,-0.62,0.57
447576722,0.54,-0.61,0.56
447578716,0.54,-0.61,0.56
447580712,0.54,-0.61,0.56
447582736,0.54,-0.61,0.56
447584730,0.54,-0.61,0.56
447586709,0.54,-0.61,0.55
447588671,0.54,-0.61,0.55
447590796,0.54,-0.61,0.55
447592801,0.54,-0.61,0.55
447594671,0.54,-0.61,0.55
447596673,0.55,-0.61,0.56
447598675,0.55,-0.61,0.56
447600670,0.55,-0.61,0.56
447602674,0.55,-0.61,0.56
447604671,0.55,-0.61,0.56
447606758,0.54,-0.62,0.56
447608732,0.54,-0.62,0.56
447610715,0.54,-0.62,0.56
447612780,0.54,-0.62,0.56
447614744,0.54,-0.62,0.56
447616832,0.55,-0.61,0.55
447618719,0.55,-0.61,0.55
447620716,0.55,-0.61,0.55
447622714,0.55,-0.61,0.55
447624754,0.55,-0.61,0.55
447626707,0.54,-0.61,0.55
447628675,0.54,-0.61,0.55
447630666,0.54,-0.61,0.55
447632669,0.54,-0.61,0.55
447634666,0.54,-0.61,0.55
447636684,0.54,-0.61,0.55
447638720,0.55,-0.60,0.54
447640679,0.55,-0.60,0.54
447642772,0.55,-0.60,0.54
447644720,0.55,-0.60,0.54
447646806,0.55,-0.60,0.54
447648722,0.55,-0.62,0.56
447650718,0.55,-0.62,0.56
447652718,0.55,-0.62,0.56
447654716,0.55,-0.62,0.56
447656712,0.55,-0.62,0.56
447658711,0.55,-0.62,0.56
447660675,0.55,-0.62,0.56
447662671,0.55,-0.62,0.56
447664676,0.55,-0.62,0.56
447666773,0.55,-0.62,0.56
447668686,0.55,-0.61,0.55
447670678,0.55,-0.61,0.55
447672677,0.55,-0.61,0.55
447674675,0.55,-0.61,0.55
447676677,0.55,-0.61,0.55
447678671,0.54,-0.61,0.54
447680673,0.54,-0.61,0.54
447682671,0.54,-0.61,0.54
447684681,0.54,-0.61,0.54
447686733,0.54,-0.61,0.54
447688712,0.54,-0.62,0.55
447690719,0.54,-0.62,0.55
447692805,0.54,-0.62,0.55
447694718,0.54,-0.62,0.55
447696735,0.54,-0.62,0.55
447698754,0.55,-0.62,0.57
447700735,0.55,-0.62,0.57
447702710,0.55,-0.62,0.57
447704678,0.55,-0.62,0.57
447706673,0.55,-0.62,0.57
447708679,0.55,-0.62,0.57
447710670,0.55,-0.62,0.57
447712686,0.55,-0.62,0.57
447714748,0.55,-0.62,0.57
447716782,0.55,-0.62,0.57
447718682,0.55,-0.62,0.57
447720670,0.55,-0.62,0.57
447722671,0.55,-0.62,0.57
447724674,0.55,-0.62,0.57
447726724,0.55,-0.62,0.57
447728716,0.55,-0.62,0.57
447730719,0.55,-0.61,0.55
447732771,0.55,-0.61,0.55
447734724,0.55,-0.61,0.55
447736717,0.55,-0.61,0.55
447738715,0.55,-0.61,0.55
447740735,0.55,-0.60,0.55
447742857,0.55,-0.60,0.55
447744713,0.55,-0.60,0.55
447746706,0.55,-0.60,0.55
447748677,0.55,-0.60,0.55
447750674,0.55,-0.61,0.55
447752729,0.55,-0.61,0.55
447754712,0.55,-0.61,0.55
447756675,0.55,-0.61,0.55
447758669,0.55,-0.61,0.55
447760720,0.55,-0.61,0.55
447762675,0.55,-0.61,0.55
447764671,0.55,-0.61,0.55
447766825,0.55,-0.61,0.55
447768716,0.55,-0.61,0.55
447770715,0.55,-0.61,0.55
447772732,0.55,-0.61,0.55
447774732,0.55,-0.61,0.55
447776719,0.55,-0.61,0.55
447778713,0.55,-0.61,0.55
447780716,0.55,-0.61,0.55
447782710,0.55,-0.61,0.55
447784674,0.55,-0.61,0.55
447786719,0.55,-0.61,0.55
447788795,0.55,-0.61,0.55
447790701,0.55,-0.62,0.56
447792782,0.55,-0.62,0.56
447794670,0.55,-0.62,0.56
447796686,0.55,-0.62,0.56
447798726,0.55,-0.62,0.56
447800710,0.54,-0.62,0.57
447802669,0.54,-0.62,0.57
447804667,0.54,-0.62,0.57
447806745,0.54,-0.62,0.57
447808714,0.54,-0.62,0.57
447810718,0.54,-0.62,0.57
447812720,0.55,-0.62,0.55
447814718,0.55,-0.62,0.55
447816821,0.55,-0.62,0.55
447818717,0.55,-0.62,0.55
447820694,0.55,-0.62,0.55
447822675,0.55,-0.61,0.54
447824682,0.55,-0.61,0.54
447826770,0.55,-0.61,0.54
447828696,0.55,-0.61,0.54
447830669,0.55,-0.61,0.54
447832671,0.55,-0.61,0.55
447834666,0.55,-0.61,0.55
447836670,0.55,-0.61,0.55
447838686,0.55,-0.61,0.55
447840718,0.55,-0.61,0.55
447842771,0.55,-0.61,0.55
447844670,0.55,-0.61,0.55
447846739,0.55,-0.61,0.55
447848734,0.55,-0.61,0.55
447850715,0.55,-0.61,0.55
447852714,0.55,-0.62,0.55
447854720,0.55,-0.62,0.55
447856719,0.55,-0.62,0.55
447858770,0.55,-0.62,0.55
447860726,0.55,-0.62,0.55
447862717,0.54,-0.61,0.55
447864679,0.54,-0.61,0.55
447866784,0.54,-0.61,0.55
447868765,0.54,-0.61,0.55
447870695,0.54,-0.61,0.55
447872673,0.55,-0.61,0.55
447874690,0.55,-0.61,0.55
447876718,0.55,-0.61,0.55
447878668,0.55,-0.61,0.55
447880667,0.55,-0.61,0.55
447882671,0.55,-0.61,0.55
447884675,0.55,-0.61,0.55
447886755,0.55,-0.61,0.55
447888740,0.55,-0.61,0.55
447890720,0.55,-0.61,0.55
447892815,0.55,-0.61,0.55
447894745,0.54,-0.60,0.55
447896742,0.54,-0.60,0.55
447898722,0.54,-0.60,0.55
447900717,0.54,-0.60,0.55
447902708,0.54,-0.60,0.55
447904677,0.55,-0.60,0.55
447906670,0.55,-0.60,0.55
447908679,0.55,-0.60,0.55
447910672,0.55,-0.60,0.55
447912685,0.55,-0.60,0.55
447914745,0.55,-0.61,0.54
447916789,0.55,-0.61,0.54
447918680,0.55,-0.61,0.54
447920678,0.55,-0.61,0.54
447922677,0.55,-0.61,0.54
447924728,0.55,-0.60,0.54
447926751,0.55,-0.60,0.54
447928740,0.55,-0.60,0.54
447930718,0.55,-0.60,0.54
447932714,0.55,-0.60,0.54
447934722,0.55,-0.61,0.56
447936747,0.55,-0.61,0.56
447938720,0.55,-0.61,0.56
447940716,0.55,-0.61,0.56
447942805,0.55,-0.61,0.56
447944715,0.55,-0.63,0.58
447946744,0.55,-0.63,0.58
447948690,0.55,-0.63,0.58
447950678,0.55,-0.63,0.58
447952704,0.55,-0.63,0.58
447954712,0.55,-0.63,0.56
447956674,0.55,-0.63,0.56
447958671,0.55,-0.63,0.56
447960672,0.55,-0.63,0.56
447962670,0.55,-0.63,0.56
447964667,0.55,-0.62,0.56
447966816,0.55,-0.62,0.56
447968716,0.55,-0.62,0.56
447970717,0.55,-0.62,0.56
447972775,0.55,-0.62,0.56
447974733,0.55,-0.62,0.56
447976717,0.54,-0.61,0.56
447978720,0.54,-0.61,0.56
447980725,0.54,-0.61,0.56
447982739,0.54,-0.61,0.56
447984702,0.54,-0.61,0.56
447986709,0.55,-0.61,0.55
447988680,0.55,-0.61,0.55
447990720,0.55,-0.61,0.55
447992809,0.55,-0.61,0.55
447994675,0.55,-0.61,0.55
447996675,0.54,-0.61,0.56
447998674,0.54,-0.61,0.56
448000673,0.54,-0.61,0.56
448002669,0.54,-0.61,0.56
448004676,0.54,-0.61,0.56
448006758,0.54,-0.61,0.56
448008723,0.54,-0.61,0.56
448010718,0.54,-0.61,0.56
448012717,0.54,-0.61,0.56
448014717,0.54,-0.61,0.56
448016807,0.55,-0.62,0.55
448018765,0.55,-0.62,0.55
448020733,0.55,-0.62,0.55
448022709,0.55,-0.62,0.55
448024675,0.55,-0.62,0.55
448026679,0.55,-0.61,0.55
448028674,0.55,-0.61,0.55
448030674,0.55,-0.61,0.55
448032670,0.55,-0.61,0.55
448034688,0.55,-0.61,0.55
448036746,0.55,-0.61,0.56
448038685,0.55,-0.61,0.56
448040673,0.55,-0.61,0.56
448042780,0.55,-0.61,0.56
448044701,0.55,-0.61,0.56
448046743,0.54,-0.61,0.55
448048733,0.54,-0.61,0.55
448050718,0.54,-0.61,0.55
448052734,0.54,-0.61,0.55
448054735,0.54,-0.61,0.55
448056791,0.54,-0.61,0.55
448058724,0.55,-0.61,0.54
448060714,0.55,-0.61,0.54
448062718,0.55,-0.61,0.54
448064710,0.55,-0.61,0.54
448066773,0.55,-0.61,0.54
448068680,0.55,-0.61,0.54
448070681,0.55,-0.61,0.54
448072678,0.55,-0.61,0.54
448074677,0.55,-0.61,0.54
448076692,0.55,-0.61,0.54
448078758,0.55,-0.61,0.54
448080698,0.55,-0.61,0.54
448082679,0.55,-0.61,0.54
448084681,0.55,-0.61,0.54
448086765,0.55,-0.61,0.54
448088736,0.55,-0.61,0.55
448090723,0.55,-0.61,0.55
448092824,0.55,-0.61,0.55
448094728,0.55,-0.61,0.55
448096735,0.55,-0.61,0.55
448098721,0.55,-0.61,0.55
448100715,0.55,-0.61,0.55
448102714,0.55,-0.61,0.55
448104713,0.55,-0.61,0.55
448106676,0.55,-0.61,0.55
448108675,0.55,-0.61,0.55
448110680,0.55,-0.61,0.55
448112675,0.55,-0.61,0.55
448114685,0.55,-0.61,0.55
448116828,0.55,-0.61,0.55
448118707,0.55,-0.61,0.55
448120675,0.55,-0.61,0.55
448122675,0.55,-0.61,0.55
448124670,0.55,-0.61,0.55
448126722,0.55,-0.61,0.55
448128714,0.55,-0.61,0.55
448130714,0.55,-0.61,0.55
448132718,0.55,-0.61,0.55
448134717,0.55,-0.61,0.55
448136715,0.55,-0.61,0.55
448138695,0.55,-0.61,0.55
448140669,0.55,-0.61,0.55
448142759,0.55,-0.61,0.55
448144676,0.55,-0.61,0.55
448146671,0.55,-0.61,0.55
448148676,0.55,-0.61,0.55
448150690,0.54,-0.61,0.55
448152767,0.54,-0.61,0.55
448154717,0.54,-0.61,0.55
448156681,0.54,-0.61,0.55
448158678,0.54,-0.61,0.55
448160679,0.55,-0.61,0.55
448162671,0.55,-0.61,0.55
448164719,0.55,-0.61,0.55
448166826,0.55,-0.61,0.55
448168726,0.55,-0.61,0.55
448170713,0.55,-0.63,0.57
448172730,0.55,-0.63,0.57
448174740,0.55,-0.63,0.57
448176722,0.55,-0.63,0.57
448178716,0.55,-0.63,0.57
448180717,0.55,-0.64,0.58
448182753,0.55,-0.64,0.58
448184721,0.55,-0.64,0.58
448186712,0.55,-0.64,0.58
448188675,0.55,-0.64,0.58
448190676,0.55,-0.62,0.55
448192856,0.55,-0.62,0.55
448194699,0.55,-0.62,0.55
448196675,0.55,-0.62,0.55
448198714,0.55,-0.62,0.55
448200724,0.55,-0.61,0.55
448202674,0.55,-0.61,0.55
448204670,0.55,-0.61,0.55
448206740,0.55,-0.61,0.55
448208716,0.55,-0.61,0.55
448210715,0.55,-0.60,0.55
448212716,0.55,-0.60,0.55
448214723,0.55,-0.60,0.55
448216833,0.55,-0.60,0.55
448218733,0.55,-0.60,0.55
448220714,0.55,-0.60,0.55
448222717,0.55,-0.60,0.54
448224684,0.55,-0.60,0.54
448226771,0.55,-0.60,0.54
448228701,0.55,-0.60,0.54
448230672,0.55,-0.60,0.54
448232675,0.55,-0.59,0.53
448234719,0.55,-0.59,0.53
448236676,0.55,-0.59,0.53
448238676,0.55,-0.59,0.53
448240676,0.55,-0.59,0.53
448242779,0.55,-0.60,0.53
448244669,0.55,-0.60,0.53
448246733,0.55,-0.60,0.53
448248719,0.55,-0.60,0.53
448250715,0.55,-0.60,0.53
448252720,0.55,-0.61,0.55
448254758,0.55,-0.61,0.55
448256718,0.55,-0.61,0.55
448258717,0.55,-0.61,0.55
448260719,0.55,-0.61,0.55
448262714,0.55,-0.61,0.54
448264676,0.55,-0.61,0.54
448266777,0.55,-0.61,0.54
448268691,0.55,-0.61,0.54
448270675,0.55,-0.61,0.54
448272675,0.55,-0.60,0.54
448274675,0.55,-0.60,0.54
448276782,0.55,-0.60,0.54
448278701,0.55,-0.60,0.54
448280672,0.55,-0.60,0.54
448282670,0.55,-0.60,0.54
448284710,0.55,-0.60,0.54
448286747,0.55,-0.60,0.54
448288728,0.55,-0.60,0.54
448290720,0.55,-0.60,0.54
448292830,0.55,-0.61,0.55
448294717,0.55,-0.61,0.55
448296714,0.55,-0.61,0.55
448298715,0.55,-0.61,0.55
448300715,0.55,-0.61,0.55
448302671,0.55,-0.61,0.55
448304674,0.55,-0.61,0.55
448306678,0.55,-0.61,0.55
448308675,0.55,-0.61,0.55
448310685,0.55,-0.61,0.55
448312773,0.55,-0.61,0.55
448314698,0.55,-0.64,0.59
448316764,0.55,-0.64,0.59
448318683,0.55,-0.64,0.59
448320671,0.55,-0.64,0.59
448322727,0.55,-0.64,0.59
448324690,0.55,-0.63,0.57
448326739,0.55,-0.63,0.57
448328715,0.55,-0.63,0.57
448330717,0.55,-0.63,0.57
448332724,0.55,-0.63,0.57
448334755,0.55,-0.61,0.55
448336722,0.55,-0.61,0.55
448338716,0.55,-0.61,0.55
448340713,0.55,-0.61,0.55
448342804,0.55,-0.61,0.55
448344690,0.55,-0.61,0.54
448346750,0.55,-0.61,0.54
448348711,0.55,-0.61,0.54
448350665,0.55,-0.61,0.54
448352653,0.55,-0.61,0.54
448354654,0.55,-0.61,0.54
448356651,0.55,-0.61,0.54
448358687,0.55,-0.61,0.54
448360700,0.55,-0.61,0.54
448362682,0.55,-0.61,0.54
448364716,0.55,-0.61,0.55
448366811,0.55,-0.61,0.55
448368720,0.55,-0.61,0.55
448370702,0.55,-0.61,0.55
448372705,0.55,-0.61,0.55
448374706,0.55,-0.61,0.56
448376784,0.55,-0.61,0.56
448378718,0.55,-0.61,0.56
448380709,0.55,-0.61,0.56
448382701,0.55,-0.61,0.56
448384691,0.55,-0.61,0.55
448386780,0.55,-0.61,0.55
448388714,0.55,-0.61,0.55
448390672,0.55,-0.61,0.55
448392778,0.55,-0.61,0.55
448394713,0.55,-0.61,0.55
448396693,0.55,-0.61,0.55
448398664,0.55,-0.61,0.55
448400655,0.55,-0.61,0.55
448402662,0.55,-0.61,0.55
448404665,0.55,-0.61,0.55
448406731,0.55,-0.61,0.55
448408705,0.55,-0.61,0.55
448410709,0.55,-0.61,0.55
448412720,0.55,-0.61,0.55
448414786,0.55,-0.61,0.55
448416739,0.56,-0.60,0.54
448418709,0.56,-0.60,0.54
448420698,0.56,-0.60,0.54
448422703,0.56,-0.60,0.54
448424671,0.56,-0.60,0.54
448426663,0.55,-0.60,0.54
448428663,0.55,-0.60,0.54
448430670,0.55,-0.60,0.54
448432667,0.55,-0.60,0.54
448434666,0.55,-0.60,0.54
448436664,0.54,-0.60,0.54
448438662,0.54,-0.60,0.54
448440663,0.54,-0.60,0.54
448442680,0.54,-0.60,0.54
448444664,0.54,-0.60,0.54
448446711,0.54,-0.61,0.55
448448707,0.54,-0.61,0.55
448450697,0.54,-0.61,0.55
448452786,0.54,-0.61,0.55
448454720,0.54,-0.61,0.55
448456711,0.55,-0.62,0.56
448458707,0.55,-0.62,0.56
448460699,0.55,-0.62,0.56
448462662,0.55,-0.62,0.56
448464676,0.55,-0.62,0.56
448466750,0.55,-0.61,0.55
448468671,0.55,-0.61,0.55
448470668,0.55,-0.61,0.55
448472654,0.55,-0.61,0.55
448474729,0.55,-0.61,0.55
448476692,0.55,-0.61,0.55
448478663,0.55,-0.61,0.55
448480664,0.55,-0.61,0.55
448482665,0.55,-0.61,0.55
448484666,0.55,-0.61,0.55
448486722,0.55,-0.61,0.55
448488736,0.55,-0.61,0.54
448490708,0.55,-0.61,0.54
448492759,0.55,-0.61,0.54
448494728,0.55,-0.61,0.54
448496719,0.55,-0.61,0.54
448498702,0.55,-0.61,0.56
448500708,0.55,-0.61,0.56
448502742,0.55,-0.61,0.56
448504720,0.55,-0.61,0.56
448506696,0.55,-0.61,0.56
448508662,0.55,-0.62,0.57
448510661,0.55,-0.62,0.57
448512661,0.55,-0.62,0.57
448514653,0.55,-0.62,0.57
448516688,0.55,-0.62,0.57
448518672,0.54,-0.61,0.56
448520661,0.54,-0.61,0.56
448522653,0.54,-0.61,0.56
448524680,0.54,-0.61,0.56
448526732,0.54,-0.61,0.56
448528723,0.55,-0.62,0.56
448530705,0.55,-0.62,0.56
448532707,0.55,-0.62,0.56
448534733,0.55,-0.62,0.56
448536715,0.55,-0.62,0.56
448538707,0.54,-0.61,0.56
448540731,0.54,-0.61,0.56
448542758,0.54,-0.61,0.56
448544714,0.54,-0.61,0.56
448546703,0.54,-0.61,0.56
448548669,0.55,-0.62,0.57
448550670,0.55,-0.62,0.57
448552747,0.55,-0.62,0.57
448554695,0.55,-0.62,0.57
448556665,0.55,-0.62,0.57
448558654,0.55,-0.62,0.57
448560651,0.54,-0.61,0.56
448562662,0.54,-0.61,0.56
448564662,0.54,-0.61,0.56
448566655,0.54,-0.61,0.56
448568715,0.54,-0.61,0.56
448570706,0.54,-0.61,0.55
448572701,0.54,-0.61,0.55
448574712,0.54,-0.61,0.55
448576750,0.54,-0.61,0.55
448578728,0.54,-0.61,0.55
448580703,0.54,-0.61,0.55
448582707,0.54,-0.61,0.55
448584674,0.54,-0.61,0.55
448586730,0.54,-0.61,0.55
448588715,0.54,-0.61,0.55
448590652,0.55,-0.61,0.55
448592706,0.55,-0.61,0.55
448594696,0.55,-0.61,0.55
448596712,0.55,-0.61,0.55
448598662,0.55,-0.61,0.55
448600654,0.54,-0.61,0.55
448602653,0.54,-0.61,0.55
448604665,0.54,-0.61,0.55
448606652,0.54,-0.61,0.55
448608720,0.54,-0.61,0.55
448610705,0.55,-0.62,0.55
448612766,0.55,-0.62,0.55
448614725,0.55,-0.62,0.55
448616752,0.55,-0.62,0.55
448618714,0.55,-0.62,0.55
448620708,0.54,-0.61,0.56
448622701,0.54,-0.61,0.56
448624730,0.54,-0.61,0.56
448626710,0.54,-0.61,0.56
448628664,0.54,-0.61,0.56
448630664,0.54,-0.61,0.56
448632652,0.54,-0.61,0.56
448634716,0.54,-0.61,0.56
448636666,0.54,-0.61,0.56
448638655,0.54,-0.61,0.56
448640667,0.54,-0.61,0.56
448642692,0.54,-0.61,0.55
448644667,0.54,-0.61,0.55
448646653,0.54,-0.61,0.55
448648728,0.54,-0.61,0.55
448650714,0.54,-0.61,0.55
448652704,0.54,-0.61,0.55
448654698,0.54,-0.61,0.55
448656707,0.54,-0.61,0.55
448658698,0.54,-0.61,0.55
448660711,0.54,-0.61,0.55
448662765,0.55,-0.62,0.56
448664686,0.55,-0.62,0.56
448666686,0.55,-0.62,0.56
448668667,0.55,-0.62,0.56
448670684,0.55,-0.62,0.56
448672703,0.55,-0.62,0.57
448674671,0.55,-0.62,0.57
448676669,0.55,-0.62,0.57
448678714,0.55,-0.62,0.57
448680664,0.55,-0.62,0.57
448682664,0.55,-0.61,0.56
448684651,0.55,-0.61,0.56
448686685,0.55,-0.61,0.56
448688747,0.55,-0.61,0.56
448690722,0.55,-0.61,0.56
448692731,0.55,-0.60,0.56
448694711,0.55,-0.60,0.56
448696711,0.55,-0.60,0.56
448698711,0.55,-0.60,0.56
448700703,0.55,-0.60,0.56
448702689,0.55,-0.61,0.55
448704664,0.55,-0.61,0.55
448706746,0.55,-0.61,0.55
448708692,0.55,-0.61,0.55
448710653,0.55,-0.61,0.55
448712667,0.55,-0.61,0.56
448714653,0.55,-0.61,0.56
448716684,0.55,-0.61,0.56
448718666,0.55,-0.61,0.56
448720653,0.55,-0.61,0.56
448722723,0.55,-0.61,0.56
448724681,0.55,-0.60,0.54
448726676,0.55,-0.60,0.54
448728724,0.55,-0.60,0.54
448730708,0.55,-0.60,0.54
448732706,0.55,-0.60,0.54
448734706,0.54,-0.59,0.54
448736709,0.54,-0.59,0.54
448738777,0.54,-0.59,0.54
448740712,0.54,-0.59,0.54
448742724,0.54,-0.59,0.54
448744701,0.55,-0.60,0.54
448746675,0.55,-0.60,0.54
448748740,0.55,-0.60,0.54
448750675,0.55,-0.60,0.54
448752654,0.55,-0.60,0.54
448754663,0.54,-0.60,0.55
448756661,0.54,-0.60,0.55
448758654,0.54,-0.60,0.55
448760654,0.54,-0.60,0.55
448762652,0.54,-0.60,0.55
448764662,0.55,-0.62,0.56
448766684,0.55,-0.62,0.56
448768717,0.55,-0.62,0.56
448770725,0.55,-0.62,0.56
448772712,0.55,-0.62,0.56
448774769,0.55,-0.62,0.55
448776715,0.55,-0.62,0.55
448778704,0.55,-0.62,0.55
448780703,0.55,-0.62,0.55
448782748,0.55,-0.62,0.55
448784718,0.55,-0.61,0.56
448786710,0.55,-0.61,0.56
448788694,0.55,-0.61,0.56
448790729,0.55,-0.61,0.56
448792734,0.55,-0.61,0.56
448794664,0.55,-0.61,0.56
448796653,0.55,-0.61,0.56
448798665,0.55,-0.61,0.56
448800716,0.55,-0.61,0.56
448802661,0.55,-0.61,0.56
448804652,0.55,-0.61,0.56
448806652,0.55,-0.62,0.55
448808728,0.55,-0.62,0.55
448810710,0.55,-0.62,0.55
448812713,0.55,-0.62,0.55
448814721,0.55,-0.62,0.55
448816749,0.55,-0.62,0.56
448818711,0.55,-0.62,0.56
448820705,0.55,-0.62,0.56
448822703,0.55,-0.62,0.56
448824713,0.55,-0.62,0.56
448826751,0.55,-0.62,0.56
448828685,0.55,-0.62,0.56
448830653,0.55,-0.62,0.56
448832651,0.55,-0.62,0.56
448834670,0.55,-0.62,0.56
448836709,0.55,-0.61,0.55
448838667,0.55,-0.61,0.55
448840650,0.55,-0.61,0.55
448842692,0.55,-0.61,0.55
448844662,0.55,-0.61,0.55
448846650,0.55,-0.61,0.55
448848728,0.55,-0.61,0.55
448850708,0.55,-0.61,0.55
448852703,0.55,-0.61,0.55
448854707,0.55,-0.61,0.55
448856710,0.55,-0.61,0.55
448858705,0.55,-0.61,0.55
448860702,0.55,-0.61,0.55
448862665,0.55,-0.61,0.55
448864663,0.55,-0.61,0.55
448866683,0.55,-0.61,0.54
448868716,0.55,-0.61,0.54
448870718,0.55,-0.61,0.54
448872698,0.55,-0.61,0.54
448874653,0.55,-0.61,0.54
448876652,0.55,-0.61,0.54
448878655,0.55,-0.61,0.54
448880713,0.55,-0.61,0.54
448882688,0.55,-0.61,0.54
448884654,0.55,-0.61,0.54
448886674,0.55,-0.61,0.54
448888739,0.55,-0.61,0.55
448890722,0.55,-0.61,0.55
448892734,0.55,-0.61,0.55
448894708,0.55,-0.61,0.55
448896751,0.55,-0.61,0.55
448898724,0.55,-0.61,0.56
448900706,0.55,-0.61,0.56
448902701,0.55,-0.61,0.56
448904705,0.55,-0.61,0.56
448906737,0.55,-0.61,0.56
448908679,0.55,-0.60,0.54
448910661,0.55,-0.60,0.54
448912661,0.55,-0.60,0.54
448914666,0.55,-0.60,0.54
448916654,0.55,-0.60,0.54
448918667,0.55,-0.61,0.54
448920663,0.55,-0.61,0.54
448922670,0.55,-0.61,0.54
448924712,0.55,-0.61,0.54
448926707,0.55,-0.61,0.54
448928723,0.55,-0.61,0.56
448930711,0.55,-0.61,0.56
448932707,0.55,-0.61,0.56
448934704,0.55,-0.61,0.56
448936705,0.55,-0.61,0.56
448938733,0.55,-0.62,0.55
448940714,0.55,-0.62,0.55
448942734,0.55,-0.62,0.55
448944691,0.55,-0.62,0.55
448946676,0.55,-0.62,0.55
448948743,0.55,-0.62,0.57
448950693,0.55,-0.62,0.57
448952665,0.55,-0.62,0.57
448954653,0.55,-0.62,0.57
448956652,0.55,-0.62,0.57
448958653,0.54,-0.62,0.57
448960661,0.54,-0.62,0.57
448962652,0.54,-0.62,0.57
448964652,0.54,-0.62,0.57
448966686,0.54,-0.62,0.57
448968715,0.54,-0.61,0.57
448970707,0.54,-0.61,0.57
448972710,0.54,-0.61,0.57
448974710,0.54,-0.61,0.57
448976715,0.54,-0.61,0.57
448978736,0.54,-0.61,0.57
448980717,0.55,-0.61,0.55
448982714,0.55,-0.61,0.55
448984671,0.55,-0.61,0.55
448986688,0.55,-0.61,0.55
448988701,0.55,-0.61,0.55
448990704,0.55,-0.61,0.55
448992829,0.55,-0.61,0.55
448994696,0.55,-0.61,0.55
448996669,0.55,-0.61,0.55
448998666,0.55,-0.61,0.55
449000717,0.55,-0.62,0.57
449002676,0.55,-0.62,0.57
449004665,0.55,-0.62,0.57
449006674,0.55,-0.62,0.57
449008727,0.55,-0.62,0.57
449010706,0.55,-0.61,0.55
449012702,0.55,-0.61,0.55
449014705,0.55,-0.61,0.55
449016735,0.55,-0.61,0.55
449018707,0.55,-0.61,0.55
449020702,0.55,-0.61,0.54
449022671,0.55,-0.61,0.54
449024676,0.55,-0.61,0.54
449026675,0.55,-0.61,0.54
449028674,0.55,-0.61,0.54
449030673,0.55,-0.60,0.54
449032676,0.55,-0.60,0.54
449034675,0.55,-0.60,0.54
449036672,0.55,-0.60,0.54
449038678,0.55,-0.60,0.54
449040672,0.55,-0.61,0.54
449042682,0.55,-0.61,0.54
449044670,0.55,-0.61,0.54
449046675,0.55,-0.61,0.54
449048707,0.55,-0.61,0.54
449050706,0.55,-0.60,0.54
449052729,0.55,-0.60,0.54
449054817,0.55,-0.60,0.54
449056726,0.55,-0.60,0.54
449058714,0.55,-0.60,0.54
449060710,0.55,-0.60,0.54
449062703,0.55,-0.61,0.56
449064670,0.55,-0.61,0.56
449066709,0.55,-0.61,0.56
449068696,0.55,-0.61,0.56
449070733,0.55,-0.61,0.56
449072689,0.55,-0.65,0.60
449074668,0.55,-0.65,0.60
449076674,0.55,-0.65,0.60
449078704,0.55,-0.65,0.60
449080683,0.55,-0.65,0.60
449082714,0.56,-0.64,0.59
449084674,0.56,-0.64,0.59
449086684,0.56,-0.64,0.59
449088748,0.56,-0.64,0.59
449090724,0.56,-0.64,0.59
449092733,0.55,-0.62,0.56
449094711,0.55,-0.62,0.56
449096715,0.55,-0.62,0.56
449098735,0.55,-0.62,0.56
449100719,0.55,-0.62,0.56
449102706,0.56,-0.60,0.53
449104713,0.56,-0.60,0.53
449106675,0.56,-0.60,0.53
449108681,0.56,-0.60,0.53
449110752,0.56,-0.60,0.53
449112689,0.55,-0.59,0.52
449114665,0.55,-0.59,0.52
449116762,0.55,-0.59,0.52
449118688,0.55,-0.59,0.52
449120713,0.55,-0.59,0.52
449122667,0.56,-0.59,0.54
449124664,0.56,-0.59,0.54
449126665,0.56,-0.59,0.54
449128726,0.56,-0.59,0.54
449130709,0.56,-0.59,0.54
449132711,0.55,-0.60,0.54
449134707,0.55,-0.60,0.54
449136713,0.55,-0.60,0.54
449138750,0.55,-0.60,0.54
449140720,0.55,-0.60,0.54
449142727,0.55,-0.60,0.54
449144714,0.56,-0.60,0.53
449146671,0.56,-0.60,0.53
449148803,0.56,-0.60,0.53
449150698,0.56,-0.60,0.53
449152673,0.56,-0.60,0.53
449154670,0.56,-0.59,0.53
449156666,0.56,-0.59,0.53
449158674,0.56,-0.59,0.53
449160677,0.56,-0.59,0.53
449162668,0.56,-0.59,0.53
449164667,0.56,-0.59,0.53
449166775,0.56,-0.59,0.53
449168725,0.56,-0.59,0.53
449170703,0.56,-0.59,0.53
449172712,0.56,-0.59,0.53
449174713,0.56,-0.59,0.53
449176769,0.56,-0.59,0.53
449178735,0.56,-0.59,0.53
449180716,0.56,-0.59,0.53
449182705,0.56,-0.59,0.53
449184719,0.56,-0.60,0.53
449186732,0.56,-0.60,0.53
449188715,0.56,-0.60,0.53
449190672,0.56,-0.60,0.53
449192703,0.56,-0.60,0.53
449194691,0.55,-0.60,0.55
449196713,0.55,-0.60,0.55
449198678,0.55,-0.60,0.55
449200672,0.55,-0.60,0.55
449202672,0.55,-0.60,0.55
449204666,0.56,-0.61,0.55
449206666,0.56,-0.61,0.55
449208730,0.56,-0.61,0.55
449210715,0.56,-0.61,0.55
449212708,0.56,-0.61,0.55
449214726,0.56,-0.61,0.55
449216753,0.56,-0.61,0.55
449218718,0.56,-0.61,0.55
449220706,0.56,-0.61,0.55
449222704,0.56,-0.61,0.55
449224712,0.56,-0.61,0.55
449226759,0.56,-0.62,0.56
449228692,0.56,-0.62,0.56
449230675,0.56,-0.62,0.56
449232675,0.56,-0.62,0.56
449234676,0.56,-0.62,0.56
449236711,0.55,-0.61,0.55
449238678,0.55,-0.61,0.55
449240667,0.55,-0.61,0.55
449242703,0.55,-0.61,0.55
449244676,0.55,-0.61,0.55
449246678,0.56,-0.61,0.55
449248721,0.56,-0.61,0.55
449250704,0.56,-0.61,0.55
449252705,0.56,-0.61,0.55
449254718,0.56,-0.61,0.55
449256729,0.55,-0.61,0.54
449258719,0.55,-0.61,0.54
449260707,0.55,-0.61,0.54
449262702,0.55,-0.61,0.54
449264710,0.55,-0.61,0.54
449266704,0.55,-0.62,0.55
449268676,0.55,-0.62,0.55
449270674,0.55,-0.62,0.55
449272677,0.55,-0.62,0.55
449274682,0.55,-0.62,0.55
449276739,0.55,-0.61,0.55
449278682,0.55,-0.61,0.55
449280671,0.55,-0.61,0.55
449282682,0.55,-0.61,0.55
449284704,0.55,-0.61,0.55
449286683,0.55,-0.61,0.55
449288737,0.55,-0.61,0.55
449290715,0.55,-0.61,0.55
449292732,0.55,-0.61,0.55
449294709,0.55,-0.61,0.55
449296821,0.55,-0.61,0.54
449298724,0.55,-0.61,0.54
449300705,0.55,-0.61,0.54
449302703,0.55,-0.61,0.54
449304710,0.55,-0.61,0.54
449306729,0.55,-0.61,0.54
449308685,0.55,-0.61,0.54
449310678,0.55,-0.61,0.54
449312670,0.55,-0.61,0.54
449314672,0.55,-0.61,0.54
449316708,0.55,-0.61,0.54
449318730,0.55,-0.61,0.54
449320691,0.55,-0.61,0.54
449322671,0.55,-0.61,0.54
449324673,0.55,-0.61,0.54
449326673,0.55,-0.61,0.54
449328732,0.56,-0.61,0.54
449330710,0.56,-0.61,0.54
449332713,0.56,-0.61,0.54
449334705,0.56,-0.61,0.54
449336713,0.56,-0.61,0.54
449338726,0.55,-0.61,0.54
449340725,0.55,-0.61,0.54
449342733,0.55,-0.61,0.54
449344701,0.55,-0.61,0.54
449346673,0.55,-0.61,0.54
449348670,0.54,-0.62,0.55
449350676,0.54,-0.62,0.55
449352670,0.54,-0.62,0.55
449354672,0.54,-0.62,0.55
449356672,0.54,-0.62,0.55
449358679,0.55,-0.64,0.57
449360680,0.55,-0.64,0.57
449362670,0.55,-0.64,0.57
449364672,0.55,-0.64,0.57
449366677,0.55,-0.64,0.57
449368705,0.55,-0.62,0.56
449370710,0.55,-0.62,0.56
449372712,0.55,-0.62,0.56
449374708,0.55,-0.62,0.56
449376741,0.55,-0.62,0.56
449378732,0.54,-0.61,0.55
449380712,0.54,-0.61,0.55
449382706,0.54,-0.61,0.55
449384679,0.54,-0.61,0.55
449386717,0.54,-0.61,0.55
449388707,0.54,-0.61,0.55
449390728,0.55,-0.62,0.56
449392717,0.55,-0.62,0.56
449394673,0.55,-0.62,0.56
449396723,0.55,-0.62,0.56
449398726,0.55,-0.62,0.56
449400663,0.55,-0.62,0.57
449402661,0.55,-0.62,0.57
449404664,0.55,-0.62,0.57
449406654,0.55,-0.62,0.57
449408723,0.55,-0.62,0.57
449410709,0.55,-0.61,0.56
449412713,0.55,-0.61,0.56
449414715,0.55,-0.61,0.56
449416744,0.55,-0.61,0.56
449418714,0.55,-0.61,0.56
449420711,0.55,-0.62,0.55
449422714,0.55,-0.62,0.55
449424708,0.55,-0.62,0.55
449426655,0.55,-0.62,0.55
449428719,0.55,-0.62,0.55
449430715,0.55,-0.62,0.55
449432669,0.55,-0.62,0.55
449434654,0.55,-0.62,0.55
449436662,0.55,-0.62,0.55
449438667,0.55,-0.62,0.55
449440714,0.55,-0.62,0.56
449442694,0.55,-0.62,0.56
449444663,0.55,-0.62,0.56
449446666,0.55,-0.62,0.56
449448730,0.55,-0.62,0.56
449450712,0.55,-0.61,0.55
449452703,0.55,-0.61,0.55
449454703,0.55,-0.61,0.55
449456706,0.55,-0.61,0.55
449458707,0.55,-0.61,0.55
449460708,0.55,-0.61,0.55
449462667,0.55,-0.61,0.55
449464665,0.55,-0.61,0.55
449466679,0.55,-0.61,0.55
449468793,0.55,-0.61,0.55
449470695,0.55,-0.61,0.55
449472665,0.54,-0.61,0.55
449474663,0.54,-0.61,0.55
449476672,0.54,-0.61,0.55
449478671,0.54,-0.61,0.55
449480655,0.54,-0.61,0.55
449482654,0.55,-0.62,0.55
449484672,0.55,-0.62,0.55
449486714,0.55,-0.62,0.55
449488747,0.55,-0.62,0.55
449490733,0.55,-0.62,0.55
449492742,0.55,-0.61,0.56
449494703,0.55,-0.61,0.56
449496715,0.55,-0.61,0.56
449498733,0.55,-0.61,0.56
449500719,0.55,-0.61,0.56
449502702,0.55,-0.61,0.55
449504700,0.55,-0.61,0.55
449506738,0.55,-0.61,0.55
449508714,0.55,-0.61,0.55
449510666,0.55,-0.61,0.55
449512669,0.55,-0.61,0.54
449514661,0.55,-0.61,0.54
449516832,0.55,-0.61,0.54
449518679,0.55,-0.61,0.54
449520669,0.55,-0.61,0.54
449522708,0.55,-0.61,0.54
449524705,0.55,-0.61,0.54
449526662,0.55,-0.61,0.54
449528723,0.55,-0.61,0.54
449530708,0.55,-0.61,0.54
449532708,0.55,-0.62,0.55
449534703,0.55,-0.62,0.55
449536703,0.55,-0.62,0.55
449538704,0.55,-0.62,0.55
449540706,0.55,-0.62,0.55
449542699,0.54,-0.62,0.55
449544667,0.54,-0.62,0.55
449546671,0.54,-0.62,0.55
449548758,0.54,-0.62,0.55
449550691,0.54,-0.62,0.55
449552666,0.54,-0.62,0.55
449554663,0.55,-0.61,0.55
449556663,0.55,-0.61,0.55
449558675,0.55,-0.61,0.55
449560706,0.55,-0.61,0.55
449562653,0.55,-0.61,0.55
449564661,0.55,-0.61,0.54
449566759,0.55,-0.61,0.54
449568742,0.55,-0.61,0.54
449570709,0.55,-0.61,0.54
449572704,0.55,-0.61,0.54
449574711,0.55,-0.61,0.56
449576741,0.55,-0.61,0.56
449578716,0.55,-0.61,0.56
449580708,0.55,-0.61,0.56
449582707,0.55,-0.61,0.56
449584741,0.55,-0.62,0.56
449586707,0.55,-0.62,0.56
449588704,0.55,-0.62,0.56
449590708,0.55,-0.62,0.56
449592701,0.55,-0.62,0.56
449594655,0.55,-0.61,0.55
449596662,0.55,-0.61,0.55
449598662,0.55,-0.61,0.55
449600654,0.55,-0.61,0.55
449602653,0.55,-0.61,0.55
449604669,0.55,-0.61,0.55
449606664,0.55,-0.61,0.55
449608738,0.55,-0.61,0.55
449610730,0.55,-0.61,0.55
449612782,0.55,-0.61,0.55
449614706,0.55,-0.61,0.55
449616730,0.55,-0.61,0.55
449618708,0.55,-0.61,0.55
449620707,0.55,-0.61,0.55
449622705,0.55,-0.61,0.55
449624672,0.55,-0.62,0.55
449626662,0.55,-0.62,0.55
449628661,0.55,-0.62,0.55
449630664,0.55,-0.62,0.55
449632664,0.55,-0.62,0.55
449634667,0.55,-0.62,0.55
449636662,0.54,-0.62,0.56
449638675,0.54,-0.62,0.56
449640737,0.54,-0.62,0.56
449642715,0.54,-0.62,0.56
449644666,0.54,-0.62,0.56
449646662,0.55,-0.63,0.56
449648714,0.55,-0.63,0.56
449650708,0.55,-0.63,0.56
449652707,0.55,-0.63,0.56
449654708,0.55,-0.63,0.56
449656698,0.55,-0.61,0.54
449658705,0.55,-0.61,0.54
449660670,0.55,-0.61,0.54
449662772,0.55,-0.61,0.54
449664687,0.55,-0.61,0.54
449666653,0.55,-0.61,0.54
449668663,0.55,-0.61,0.54
449670654,0.55,-0.61,0.54
449672667,0.55,-0.61,0.54
449674710,0.55,-0.61,0.54
449676664,0.55,-0.61,0.56
449678665,0.55,-0.61,0.56
449680661,0.55,-0.61,0.56
449682662,0.55,-0.61,0.56
449684667,0.55,-0.61,0.56
449686679,0.55,-0.61,0.55
449688729,0.55,-0.61,0.55
449690740,0.55,-0.61,0.55
449692728,0.55,-0.61,0.55
449694709,0.55,-0.61,0.55
449696702,0.55,-0.62,0.55
449698702,0.55,-0.62,0.55
449700704,0.55,-0.62,0.55
449702742,0.55,-0.62,0.55
449704732,0.55,-0.62,0.55
449706707,0.55,-0.62,0.55
449708677,0.55,-0.62,0.55
449710672,0.55,-0.62,0.55
449712669,0.55,-0.62,0.55
449714747,0.55,-0.62,0.55
449716692,0.55,-0.62,0.55
449718666,0.55,-0.62,0.55
449720678,0.55,-0.62,0.55
449722712,0.55,-0.62,0.55
449724652,0.55,-0.62,0.55
449726666,0.55,-0.62,0.55
449728723,0.55,-0.62,0.55
449730709,0.55,-0.62,0.55
449732706,0.55,-0.62,0.55
449734706,0.55,-0.62,0.55
449736708,0.55,-0.62,0.55
449738711,0.55,-0.61,0.55
449740707,0.55,-0.61,0.55
449742762,0.55,-0.61,0.55
449744704,0.55,-0.61,0.55
449746662,0.55,-0.61,0.55
449748654,0.55,-0.62,0.55
449750654,0.55,-0.62,0.55
449752663,0.55,-0.62,0.55
449754652,0.55,-0.62,0.55
449756652,0.55,-0.62,0.55
449758653,0.55,-0.62,0.56
449760650,0.55,-0.62,0.56
449762653,0.55,-0.62,0.56
449764651,0.55,-0.62,0.56
449766676,0.55,-0.62,0.56
449768726,0.55,-0.61,0.55
449770705,0.55,-0.61,0.55
449772707,0.55,-0.61,0.55
449774737,0.55,-0.61,0.55
449776729,0.55,-0.61,0.55
449778716,0.55,-0.61,0.55
449780702,0.55,-0.61,0.55
449782702,0.55,-0.61,0.55
449784664,0.55,-0.61,0.55
449786710,0.55,-0.61,0.55
449788731,0.54,-0.61,0.55
449790713,0.54,-0.61,0.55
449792701,0.54,-0.61,0.55
449794675,0.54,-0.61,0.55
449796703,0.54,-0.61,0.55
449798726,0.55,-0.61,0.54
449800686,0.55,-0.61,0.54
449802666,0.55,-0.61,0.54
449804662,0.55,-0.61,0.54
449806654,0.55,-0.61,0.54
449808732,0.55,-0.61,0.54
449810711,0.55,-0.61,0.54
449812712,0.55,-0.61,0.54
449814727,0.55,-0.61,0.54
449816737,0.55,-0.61,0.54
449818715,0.55,-0.61,0.54
449820713,0.55,-0.62,0.55
449822704,0.55,-0.62,0.55
449824763,0.55,-0.62,0.55
449826716,0.55,-0.62,0.55
449828661,0.55,-0.62,0.55
449830664,0.55,-0.61,0.54
449832665,0.55,-0.61,0.54
449834665,0.55,-0.61,0.54
449836654,0.55,-0.61,0.54
449838653,0.55,-0.61,0.54
449840680,0.55,-0.61,0.53
449842766,0.55,-0.61,0.53
449844664,0.55,-0.61,0.53
449846670,0.55,-0.61,0.53
449848715,0.55,-0.61,0.53
449850758,0.55,-0.62,0.55
449852723,0.55,-0.62,0.55
449854706,0.55,-0.62,0.55
449856709,0.55,-0.62,0.55
449858729,0.55,-0.62,0.55
449860711,0.55,-0.62,0.55
449862707,0.55,-0.62,0.55
449864707,0.55,-0.62,0.55
449866744,0.55,-0.62,0.55
449868702,0.55,-0.62,0.55
449870666,0.55,-0.61,0.53
449872652,0.55,-0.61,0.53
449874663,0.55,-0.61,0.53
449876711,0.55,-0.61,0.53
449878661,0.55,-0.61,0.53
449880662,0.55,-0.61,0.54
449882664,0.55,-0.61,0.54
449884665,0.55,-0.61,0.54
449886680,0.55,-0.61,0.54
449888721,0.55,-0.61,0.54
449890733,0.55,-0.61,0.54
449892729,0.55,-0.62,0.55
449894709,0.55,-0.62,0.55
449896731,0.55,-0.62,0.55
449898703,0.55,-0.62,0.55
449900706,0.55,-0.62,0.55
449902717,0.55,-0.62,0.55
449904790,0.55,-0.62,0.55
449906696,0.55,-0.62,0.55
449908664,0.55,-0.62,0.55
449910661,0.55,-0.62,0.55
449912662,0.56,-0.62,0.55
449914652,0.56,-0.62,0.55
449916765,0.56,-0.62,0.55
449918678,0.56,-0.62,0.55
449920652,0.56,-0.62,0.55
449922651,0.55,-0.61,0.54
449924655,0.55,-0.61,0.54
449926653,0.55,-0.61,0.54
449928714,0.55,-0.61,0.54
449930707,0.55,-0.61,0.54
449932716,0.55,-0.61,0.54
449934708,0.55,-0.61,0.54
449936709,0.55,-0.61,0.54
449938770,0.55,-0.61,0.54
449940716,0.55,-0.61,0.54
449942724,0.55,-0.62,0.54
449944664,0.55,-0.62,0.54
449946669,0.55,-0.62,0.54
449948666,0.55,-0.62,0.54
449950663,0.55,-0.62,0.54
449952662,0.55,-0.62,0.54
449954733,0.55,-0.62,0.54
449956687,0.55,-0.62,0.54
449958654,0.55,-0.62,0.54
449960674,0.55,-0.62,0.54
449962714,0.55,-0.62,0.55
449964667,0.55,-0.62,0.55
449966762,0.55,-0.62,0.55
449968737,0.55,-0.62,0.55
449970717,0.55,-0.62,0.55
449972706,0.55,-0.62,0.55
449974708,0.55,-0.62,0.54
449976707,0.55,-0.62,0.54
449978706,0.55,-0.62,0.54
449980712,0.55,-0.62,0.54
449982671,0.55,-0.62,0.54
449984671,0.55,-0.61,0.54
449986706,0.55,-0.61,0.54
449988779,0.55,-0.61,0.54
449990714,0.55,-0.61,0.54
449992702,0.55,-0.61,0.54
449994662,0.55,-0.61,0.54
449996668,0.55,-0.61,0.54
449998700,0.55,-0.61,0.54
450000684,0.55,-0.61,0.54
450002713,0.55,-0.61,0.54
450004665,0.55,-0.61,0.54
450006651,0.55,-0.61,0.54
450008742,0.55,-0.61,0.54
450010716,0.55,-0.61,0.54
450012710,0.55,-0.61,0.54
450014704,0.55,-0.62,0.54
450016778,0.55,-0.62,0.54
450018721,0.55,-0.62,0.54
450020705,0.55,-0.62,0.54
450022706,0.55,-0.62,0.54
450024707,0.56,-0.62,0.54
450026671,0.56,-0.62,0.54
450028677,0.56,-0.62,0.54
450030741,0.56,-0.62,0.54
450032674,0.56,-0.62,0.54
450034663,0.55,-0.61,0.55
450036686,0.55,-0.61,0.55
450038673,0.55,-0.61,0.55
450040716,0.55,-0.61,0.55
450042691,0.55,-0.61,0.55
450044662,0.55,-0.61,0.55
450046653,0.55,-0.61,0.55
450048726,0.55,-0.61,0.55
450050706,0.55,-0.61,0.55
450052708,0.55,-0.61,0.55
450054701,0.55,-0.61,0.55
450056703,0.55,-0.62,0.55
450058705,0.55,-0.62,0.55
450060705,0.55,-0.62,0.55
450062666,0.55,-0.62,0.55
450064669,0.55,-0.62,0.55
450066678,0.55,-0.61,0.54
450068671,0.55,-0.61,0.54
450070673,0.55,-0.61,0.54
450072764,0.55,-0.61,0.54
450074684,0.55,-0.61,0.54
450076662,0.55,-0.61,0.54
450078652,0.55,-0.61,0.54
450080655,0.55,-0.61,0.54
450082652,0.55,-0.61,0.54
450084655,0.55,-0.61,0.54
450086679,0.55,-0.62,0.55
450088718,0.55,-0.62,0.55
450090727,0.55,-0.62,0.55
450092775,0.55,-0.62,0.55
450094726,0.55,-0.62,0.55
450096706,0.55,-0.63,0.57
450098702,0.55,-0.63,0.57
450100736,0.55,-0.63,0.57
450102772,0.55,-0.63,0.57
450104723,0.55,-0.63,0.57
450106705,0.55,-0.62,0.55
450108700,0.55,-0.62,0.55
450110720,0.55,-0.62,0.55
450112704,0.55,-0.62,0.55
450114665,0.55,-0.62,0.55
450116654,0.54,-0.61,0.54
450118683,0.54,-0.61,0.54
450120710,0.54,-0.61,0.54
450122662,0.54,-0.61,0.54
450124663,0.54,-0.61,0.54
450126662,0.55,-0.62,0.54
450128732,0.55,-0.62,0.54
450130711,0.55,-0.62,0.54
450132704,0.55,-0.62,0.54
450134723,0.55,-0.62,0.54
450136726,0.55,-0.62,0.54
450138724,0.55,-0.62,0.54
450140706,0.55,-0.62,0.54
450142725,0.55,-0.62,0.54
450144708,0.55,-0.62,0.54
450146772,0.55,-0.62,0.54
450148693,0.55,-0.62,0.54
450150664,0.55,-0.62,0.54
450152654,0.55,-0.62,0.54
450154710,0.55,-0.62,0.54
450156693,0.55,-0.62,0.54
450158666,0.54,-0.62,0.54
450160666,0.54,-0.62,0.54
450162663,0.54,-0.62,0.54
450164653,0.54,-0.62,0.54
450166684,0.54,-0.62,0.54
450168726,0.55,-0.62,0.55
450170711,0.55,-0.62,0.55
450172708,0.55,-0.62,0.55
450174707,0.55,-0.62,0.55
450176703,0.55,-0.62,0.55
450178793,0.55,-0.62,0.55
450180722,0.55,-0.62,0.55
450182707,0.55,-0.62,0.55
450184706,0.55,-0.62,0.55
450186683,0.55,-0.62,0.55
450188677,0.54,-0.61,0.55
450190732,0.54,-0.61,0.55
450192727,0.54,-0.61,0.55
450194666,0.54,-0.61,0.55
450196679,0.54,-0.61,0.55
450198713,0.54,-0.61,0.55
450200666,0.54,-0.61,0.55
450202702,0.54,-0.61,0.55
450204667,0.54,-0.61,0.55
450206670,0.54,-0.61,0.55
450208729,0.55,-0.61,0.55
450210709,0.55,-0.61,0.55
450212704,0.55,-0.61,0.55
450214704,0.55,-0.61,0.55
450216728,0.55,-0.61,0.55
450218703,0.55,-0.61,0.55
450220706,0.54,-0.62,0.55
450222667,0.54,-0.62,0.55
450224669,0.54,-0.62,0.55
450226671,0.54,-0.62,0.55
450228665,0.54,-0.62,0.55
450230664,0.55,-0.62,0.55
450232675,0.55,-0.62,0.55
450234673,0.55,-0.62,0.55
450236665,0.55,-0.62,0.55
450238663,0.55,-0.62,0.55
450240665,0.54,-0.62,0.55
450242683,0.54,-0.62,0.55
450244670,0.54,-0.62,0.55
450246662,0.54,-0.62,0.55
450248705,0.54,-0.62,0.55
450250702,0.54,-0.62,0.55
450252701,0.54,-0.62,0.55
450254702,0.54,-0.62,0.55
450256696,0.54,-0.62,0.55
450258713,0.54,-0.62,0.55
450260812,0.54,-0.61,0.54
450262693,0.54,-0.61,0.54
450264663,0.54,-0.61,0.54
450266652,0.54,-0.61,0.54
450268665,0.54,-0.61,0.54
450270655,0.54,-0.62,0.55
450272662,0.54,-0.62,0.55
450274695,0.54,-0.62,0.55
450276711,0.54,-0.62,0.55
450278662,0.54,-0.62,0.55
450280665,0.54,-0.62,0.55
450282654,0.54,-0.62,0.55
450284651,0.54,-0.62,0.55
450286681,0.54,-0.62,0.55
450288725,0.54,-0.62,0.55
450290711,0.54,-0.61,0.55
450292753,0.54,-0.61,0.55
450294707,0.54,-0.61,0.55
450296712,0.54,-0.61,0.55
450298749,0.54,-0.61,0.55
450300719,0.54,-0.61,0.55
450302707,0.54,-0.62,0.56
450304704,0.54,-0.62,0.56
450306671,0.54,-0.62,0.56
450308670,0.54,-0.62,0.56
450310665,0.54,-0.62,0.56
450312662,0.54,-0.61,0.55
450314667,0.54,-0.61,0.55
450316829,0.54,-0.61,0.55
450318707,0.54,-0.61,0.55
450320654,0.54,-0.61,0.55
450322654,0.54,-0.62,0.54
450324674,0.54,-0.62,0.54
450326715,0.54,-0.62,0.54
450328726,0.54,-0.62,0.54
450330710,0.54,-0.62,0.54
450332708,0.54,-0.62,0.57
450334737,0.54,-0.62,0.57
450336737,0.54,-0.62,0.57
450338711,0.54,-0.62,0.57
450340711,0.54,-0.62,0.57
450342733,0.54,-0.62,0.56
450344729,0.54,-0.62,0.56
450346711,0.54,-0.62,0.56
450348662,0.54,-0.62,0.56
450350663,0.54,-0.62,0.56
450352731,0.55,-0.62,0.54
450354704,0.55,-0.62,0.54
450356665,0.55,-0.62,0.54
450358665,0.55,-0.62,0.54
450360664,0.55,-0.62,0.54
450362664,0.54,-0.61,0.54
450364671,0.54,-0.61,0.54
450366763,0.54,-0.61,0.54
450368729,0.54,-0.61,0.54
450370700,0.54,-0.61,0.54
450372731,0.54,-0.62,0.55
450374727,0.54,-0.62,0.55
450376710,0.54,-0.62,0.55
450378715,0.54,-0.62,0.55
450380742,0.54,-0.62,0.55
450382718,0.54,-0.62,0.56
450384709,0.54,-0.62,0.56
450386708,0.54,-0.62,0.56
450388720,0.54,-0.62,0.56
450390712,0.54,-0.62,0.56
450392727,0.54,-0.62,0.56
450394668,0.54,-0.61,0.55
450396664,0.54,-0.61,0.55
450398679,0.54,-0.61,0.55
450400710,0.54,-0.61,0.55
450402654,0.54,-0.61,0.55
450404654,0.54,-0.61,0.54
450406698,0.54,-0.61,0.54
450408740,0.54,-0.61,0.54
450410733,0.54,-0.61,0.54
450412706,0.54,-0.61,0.54
450414707,0.54,-0.61,0.54
450416729,0.54,-0.61,0.54
450418713,0.54,-0.61,0.54
450420737,0.54,-0.61,0.54
450422726,0.54,-0.61,0.54
450424710,0.54,-0.62,0.55
450426671,0.54,-0.62,0.55
450428681,0.54,-0.62,0.55
450430734,0.54,-0.62,0.55
450432678,0.54,-0.62,0.55
450434665,0.54,-0.62,0.55
450436675,0.54,-0.62,0.55
450438712,0.54,-0.62,0.55
450440667,0.54,-0.62,0.55
450442691,0.54,-0.62,0.55
450444665,0.54,-0.62,0.55
450446654,0.54,-0.62,0.55
450448727,0.54,-0.62,0.55
450450715,0.54,-0.62,0.55
450452708,0.54,-0.62,0.55
450454726,0.55,-0.62,0.55
450456728,0.55,-0.62,0.55
450458718,0.55,-0.62,0.55
450460702,0.55,-0.62,0.55
450462706,0.55,-0.62,0.55
450464702,0.54,-0.62,0.55
450466684,0.54,-0.62,0.55
450468666,0.54,-0.62,0.55
450470668,0.54,-0.62,0.55
450472664,0.54,-0.62,0.55
450474663,0.54,-0.62,0.55
450476681,0.54,-0.62,0.55
450478756,0.54,-0.62,0.55
450480685,0.54,-0.62,0.55
450482661,0.54,-0.62,0.55
450484652,0.54,-0.62,0.55
450486707,0.55,-0.62,0.55
450488745,0.55,-0.62,0.55
450490734,0.55,-0.62,0.55
450492754,0.55,-0.62,0.55
450494710,0.55,-0.62,0.55
450496708,0.54,-0.62,0.55
450498704,0.54,-0.62,0.55
450500710,0.54,-0.62,0.55
450502781,0.54,-0.62,0.55
450504740,0.54,-0.62,0.55
450506702,0.54,-0.62,0.57
450508654,0.54,-0.62,0.57
450510667,0.54,-0.62,0.57
450512713,0.54,-0.62,0.57
450514666,0.54,-0.62,0.57
450516729,0.54,-0.62,0.56
450518727,0.54,-0.62,0.56
450520671,0.54,-0.62,0.56
450522654,0.54,-0.62,0.56
450524670,0.54,-0.62,0.56
450526666,0.54,-0.61,0.55
450528728,0.54,-0.61,0.55
450530755,0.54,-0.61,0.55
450532732,0.54,-0.61,0.55
450534711,0.54,-0.61,0.55
450536721,0.54,-0.61,0.54
450538729,0.54,-0.61,0.54
450540718,0.54,-0.61,0.54
450542728,0.54,-0.61,0.54
450544708,0.54,-0.61,0.54
450546699,0.54,-0.62,0.55
450548661,0.54,-0.62,0.55
450550666,0.54,-0.62,0.55
450552653,0.54,-0.62,0.55
450554665,0.54,-0.62,0.55
450556665,0.54,-0.62,0.55
450558715,0.54,-0.62,0.55
450560729,0.54,-0.62,0.55
450562664,0.54,-0.62,0.55
450564654,0.54,-0.62,0.55
450566654,0.54,-0.62,0.55
450568722,0.54,-0.61,0.55
450570725,0.54,-0.61,0.55
450572722,0.54,-0.61,0.55
450574705,0.54,-0.61,0.55
450576708,0.54,-0.61,0.55
450578704,0.54,-0.62,0.55
450580705,0.54,-0.62,0.55
450582701,0.54,-0.62,0.55
450584654,0.54,-0.62,0.55
450586714,0.54,-0.62,0.55
450588760,0.54,-0.61,0.55
450590686,0.54,-0.61,0.55
450592730,0.54,-0.61,0.55
450594662,0.54,-0.61,0.55
450596662,0.54,-0.61,0.55
450598667,0.54,-0.61,0.55
450600715,0.54,-0.61,0.55
450602664,0.54,-0.61,0.55
450604654,0.54,-0.61,0.55
450606664,0.54,-0.61,0.55
450608725,0.54,-0.62,0.55
450610703,0.54,-0.62,0.55
450612799,0.54,-0.62,0.55
450614708,0.54,-0.62,0.55
450616734,0.54,-0.62,0.55
450618772,0.54,-0.62,0.54
450620722,0.54,-0.62,0.54
450622700,0.54,-0.62,0.54
450624709,0.54,-0.62,0.54
450626670,0.54,-0.62,0.54
450628653,0.54,-0.64,0.57
450630666,0.54,-0.64,0.57
450632664,0.54,-0.64,0.57
450634697,0.54,-0.64,0.57
450636733,0.54,-0.64,0.57
450638679,0.54,-0.64,0.57
450640667,0.54,-0.64,0.58
450642696,0.54,-0.64,0.58
450644728,0.54,-0.64,0.58
450646692,0.54,-0.64,0.58
450648730,0.54,-0.64,0.58
450650709,0.54,-0.62,0.56
450652707,0.54,-0.62,0.56
450654702,0.54,-0.62,0.56
450656703,0.54,-0.62,0.56
450658709,0.54,-0.62,0.56
450660707,0.54,-0.62,0.56
450662662,0.54,-0.62,0.56
450664667,0.54,-0.62,0.56
450666685,0.54,-0.62,0.56
450668749,0.54,-0.62,0.56
450670689,0.54,-0.62,0.55
450672664,0.54,-0.62,0.55
450674667,0.54,-0.62,0.55
450676654,0.54,-0.62,0.55
450678655,0.54,-0.62,0.55
450680650,0.54,-0.62,0.55
450682710,0.54,-0.62,0.55
450684653,0.54,-0.62,0.55
450686677,0.54,-0.62,0.55
450688729,0.54,-0.62,0.55
450690711,0.54,-0.62,0.55
450692758,0.54,-0.62,0.55
450694733,0.54,-0.62,0.55
450696729,0.54,-0.62,0.55
450698711,0.54,-0.62,0.55
450700709,0.54,-0.62,0.56
450702706,0.54,-0.62,0.56
450704707,0.54,-0.62,0.56
450706670,0.54,-0.62,0.56
450708671,0.54,-0.62,0.56
450710667,0.54,-0.61,0.55
450712665,0.54,-0.61,0.55
450714704,0.54,-0.61,0.55
450716824,0.54,-0.61,0.55
450718711,0.54,-0.61,0.55
450720666,0.54,-0.61,0.55
450722654,0.54,-0.62,0.55
450724666,0.54,-0.62,0.55
450726705,0.54,-0.62,0.55
450728747,0.54,-0.62,0.55
450730724,0.54,-0.62,0.55
450732712,0.54,-0.61,0.55
450734709,0.54,-0.61,0.55
450736730,0.54,-0.61,0.55
450738732,0.54,-0.61,0.55
450740706,0.54,-0.61,0.55
450742721,0.54,-0.62,0.56
450744705,0.54,-0.62,0.56
450746730,0.54,-0.62,0.56
450748687,0.54,-0.62,0.56
450750653,0.54,-0.62,0.56
450752664,0.54,-0.62,0.55
450754712,0.54,-0.62,0.55
450756708,0.54,-0.62,0.55
450758671,0.54,-0.62,0.55
450760670,0.54,-0.62,0.55
450762663,0.54,-0.62,0.55
450764654,0.54,-0.62,0.55
450766762,0.54,-0.62,0.55
450768743,0.54,-0.62,0.55
450770713,0.54,-0.62,0.55
450772706,0.54,-0.64,0.57
450774714,0.54,-0.64,0.57
450776734,0.54,-0.64,0.57
450778719,0.54,-0.64,0.57
450780704,0.54,-0.64,0.57
450782714,0.54,-0.63,0.57
450784747,0.54,-0.63,0.57
450786734,0.54,-0.63,0.57
450788696,0.54,-0.63,0.57
450790668,0.54,-0.63,0.57
450792722,0.54,-0.62,0.55
450794663,0.54,-0.62,0.55
450796663,0.54,-0.62,0.55
450798653,0.54,-0.62,0.55
450800741,0.54,-0.62,0.55
450802691,0.54,-0.62,0.55
450804661,0.54,-0.62,0.55
450806650,0.54,-0.62,0.55
450808732,0.54,-0.62,0.55
450810705,0.54,-0.62,0.55
450812712,0.54,-0.62,0.55
450814705,0.53,-0.62,0.56
450816738,0.53,-0.62,0.56
450818727,0.53,-0.62,0.56
450820708,0.53,-0.62,0.56
450822672,0.53,-0.62,0.56
450824664,0.53,-0.62,0.56
450826669,0.53,-0.62,0.56
450828670,0.53,-0.62,0.56
450830667,0.53,-0.62,0.56
450832665,0.53,-0.62,0.56
450834663,0.54,-0.62,0.56
450836665,0.54,-0.62,0.56
450838721,0.54,-0.62,0.56
450840713,0.54,-0.62,0.56
450842701,0.54,-0.62,0.56
450844666,0.54,-0.62,0.56
450846665,0.54,-0.62,0.56
450848723,0.54,-0.62,0.56
450850746,0.54,-0.62,0.56
450852732,0.54,-0.62,0.56
450854713,0.54,-0.62,0.57
450856704,0.54,-0.62,0.57
450858707,0.54,-0.62,0.57
450860702,0.54,-0.62,0.57
450862706,0.54,-0.62,0.57
450864654,0.54,-0.62,0.56
450866693,0.54,-0.62,0.56
450868670,0.54,-0.62,0.56
450870655,0.54,-0.62,0.56
450872665,0.54,-0.62,0.56
450874666,0.53,-0.61,0.55
450876667,0.53,-0.61,0.55
450878665,0.53,-0.61,0.55
450880665,0.53,-0.61,0.55
450882654,0.53,-0.61,0.55
450884665,0.53,-0.61,0.55
450886682,0.54,-0.61,0.55
450888735,0.54,-0.61,0.55
450890717,0.54,-0.61,0.55
450892754,0.54,-0.61,0.55
450894707,0.54,-0.61,0.55
450896710,0.53,-0.61,0.55
450898731,0.53,-0.61,0.55
450900725,0.53,-0.61,0.55
450902710,0.53,-0.61,0.55
450904706,0.53,-0.61,0.55
450906665,0.54,-0.61,0.55
450908664,0.54,-0.61,0.55
450910664,0.54,-0.61,0.55
450912668,0.54,-0.61,0.55
450914733,0.54,-0.61,0.55
450916720,0.54,-0.62,0.55
450918691,0.54,-0.62,0.55
450920705,0.54,-0.62,0.55
450922654,0.54,-0.62,0.55
450924669,0.54,-0.62,0.55
450926712,0.54,-0.62,0.55
450928722,0.54,-0.62,0.55
450930705,0.54,-0.62,0.55
450932704,0.54,-0.62,0.55
450934732,0.54,-0.62,0.55
450936725,0.53,-0.62,0.55
450938713,0.53,-0.62,0.55
450940707,0.53,-0.62,0.55
450942720,0.53,-0.62,0.55
450944697,0.53,-0.62,0.55
450946654,0.54,-0.62,0.56
450948654,0.54,-0.62,0.56
450950655,0.54,-0.62,0.56
450952663,0.54,-0.62,0.56
450954665,0.54,-0.62,0.56
450956654,0.54,-0.62,0.56
450958653,0.54,-0.62,0.56
450960664,0.54,-0.62,0.56
450962664,0.54,-0.62,0.56
450964666,0.54,-0.62,0.56
450966673,0.54,-0.62,0.56
450968715,0.54,-0.62,0.56
450970749,0.54,-0.62,0.56
450972719,0.54,-0.62,0.56
450974705,0.54,-0.62,0.56
450976706,0.54,-0.62,0.56
450978711,0.53,-0.62,0.56
450980746,0.53,-0.62,0.56
450982742,0.53,-0.62,0.56
450984718,0.53,-0.62,0.56
450986710,0.53,-0.62,0.56
450988666,0.53,-0.62,0.56
450990672,0.53,-0.62,0.56
450992769,0.53,-0.62,0.56
450994723,0.53,-0.62,0.56
450996675,0.53,-0.62,0.56
450998684,0.53,-0.63,0.57
451000678,0.53,-0.63,0.57
451002672,0.53,-0.63,0.57
451004680,0.53,-0.63,0.57
451006676,0.53,-0.63,0.57
451008735,0.54,-0.62,0.56
451010731,0.54,-0.62,0.56
451012733,0.54,-0.62,0.56
451014710,0.54,-0.62,0.56
451016746,0.54,-0.62,0.56
451018811,0.54,-0.62,0.55
451020724,0.54,-0.62,0.55
451022705,0.54,-0.62,0.55
451024710,0.54,-0.62,0.55
451026709,0.54,-0.62,0.55
451028677,0.53,-0.62,0.56
451030683,0.53,-0.62,0.56
451032731,0.53,-0.62,0.56
451034683,0.53,-0.62,0.56
451036679,0.53,-0.62,0.56
451038671,0.53,-0.61,0.55
451040672,0.53,-0.61,0.55
451042752,0.53,-0.61,0.55
451044696,0.53,-0.61,0.55
451046678,0.53,-0.61,0.55
451048729,0.54,-0.61,0.55
451050709,0.54,-0.61,0.55
451052712,0.54,-0.61,0.55
451054709,0.54,-0.61,0.55
451056709,0.54,-0.61,0.55
451058702,0.54,-0.61,0.55
451060705,0.53,-0.61,0.55
451062698,0.53,-0.61,0.55
451064764,0.53,-0.61,0.55
451066718,0.53,-0.61,0.55
451068670,0.53,-0.61,0.55
451070666,0.54,-0.62,0.55
451072671,0.54,-0.62,0.55
451074669,0.54,-0.62,0.55
451076718,0.54,-0.62,0.55
451078686,0.54,-0.62,0.55
451080671,0.54,-0.62,0.55
451082674,0.54,-0.62,0.55
451084686,0.54,-0.62,0.55
451086679,0.54,-0.62,0.55
451088726,0.54,-0.62,0.55
451090713,0.53,-0.62,0.55
451092731,0.53,-0.62,0.55
451094705,0.53,-0.62,0.55
451096743,0.53,-0.62,0.55
451098725,0.53,-0.62,0.55
451100712,0.53,-0.62,0.56
451102713,0.53,-0.62,0.56
451104712,0.53,-0.62,0.56
451106681,0.53,-0.62,0.56
451108728,0.53,-0.62,0.56
451110692,0.53,-0.62,0.56
451112671,0.53,-0.62,0.56
451114672,0.53,-0.62,0.56
451116689,0.53,-0.62,0.56
451118670,0.53,-0.62,0.56
451120680,0.53,-0.62,0.57
451122675,0.53,-0.62,0.57
451124711,0.53,-0.62,0.57
451126675,0.53,-0.62,0.57
451128715,0.53,-0.62,0.57
451130707,0.54,-0.62,0.56
451132705,0.54,-0.62,0.56
451134713,0.54,-0.62,0.56
451136714,0.54,-0.62,0.56
451138714,0.54,-0.62,0.56
451140710,0.54,-0.62,0.56
451142699,0.53,-0.62,0.57
451144679,0.53,-0.62,0.57
451146679,0.53,-0.62,0.57
451148676,0.53,-0.62,0.57
451150681,0.53,-0.62,0.57
451152678,0.53,-0.62,0.57
451154667,0.53,-0.62,0.57
451156676,0.53,-0.62,0.57
451158775,0.53,-0.62,0.57
451160697,0.53,-0.62,0.57
451162672,0.54,-0.62,0.56
451164676,0.54,-0.62,0.56
451166700,0.54,-0.62,0.56
451168757,0.54,-0.62,0.56
451170734,0.54,-0.62,0.56
451172728,0.54,-0.62,0.55
451174714,0.54,-0.62,0.55
451176732,0.54,-0.62,0.55
451178727,0.54,-0.62,0.55
451180730,0.54,-0.62,0.55
451182710,0.53,-0.61,0.55
451184712,0.53,-0.61,0.55
451186712,0.53,-0.61,0.55
451188770,0.53,-0.61,0.55
451190692,0.53,-0.61,0.55
451192708,0.54,-0.62,0.55
451194717,0.54,-0.62,0.55
451196691,0.54,-0.62,0.55
451198708,0.54,-0.62,0.55
451200663,0.54,-0.62,0.55
451202664,0.54,-0.61,0.55
451204670,0.54,-0.61,0.55
451206716,0.54,-0.61,0.55
451208768,0.54,-0.61,0.55
451210715,0.54,-0.61,0.55
451212706,0.54,-0.62,0.55
451214705,0.54,-0.62,0.55
451216737,0.54,-0.62,0.55
451218765,0.54,-0.62,0.55
451220718,0.54,-0.62,0.55
451222704,0.54,-0.62,0.55
451224709,0.53,-0.61,0.56
451226708,0.53,-0.61,0.56
451228678,0.53,-0.61,0.56
451230738,0.53,-0.61,0.56
451232676,0.53,-0.61,0.56
451234666,0.53,-0.62,0.56
451236661,0.53,-0.62,0.56
451238701,0.53,-0.62,0.56
451240701,0.53,-0.62,0.56
451242699,0.53,-0.62,0.56
451244664,0.54,-0.62,0.55
451246654,0.54,-0.62,0.55
451248723,0.54,-0.62,0.55
451250709,0.54,-0.62,0.55
451252709,0.54,-0.62,0.55
451254703,0.53,-0.62,0.56
451256707,0.53,-0.62,0.56
451258707,0.53,-0.62,0.56
451260710,0.53,-0.62,0.56
451262667,0.53,-0.62,0.56
451264662,0.53,-0.62,0.57
451266687,0.53,-0.62,0.57
451268696,0.53,-0.62,0.57
451270763,0.53,-0.62,0.57
451272690,0.53,-0.62,0.57
451274650,0.52,-0.62,0.57
451276665,0.52,-0.62,0.57
451278666,0.52,-0.62,0.57
451280713,0.52,-0.62,0.57
451282693,0.52,-0.62,0.57
451284653,0.53,-0.62,0.56
451286681,0.53,-0.62,0.56
451288723,0.53,-0.62,0.56
451290715,0.53,-0.62,0.56
451292737,0.53,-0.62,0.56
451294718,0.53,-0.62,0.55
451296761,0.53,-0.62,0.55
451298741,0.53,-0.62,0.55
451300714,0.53,-0.62,0.55
451302709,0.53,-0.62,0.55
451304712,0.53,-0.62,0.55
451306708,0.53,-0.63,0.56
451308727,0.53,-0.63,0.56
451310687,0.53,-0.63,0.56
451312655,0.53,-0.63,0.56
451314664,0.53,-0.63,0.56
451316654,0.53,-0.62,0.56
451318727,0.53,-0.62,0.56
451320691,0.53,-0.62,0.56
451322652,0.53,-0.62,0.56
451324661,0.53,-0.62,0.56
451326662,0.53,-0.61,0.55
451328728,0.53,-0.61,0.55
451330739,0.53,-0.61,0.55
451332714,0.53,-0.61,0.55
451334725,0.53,-0.61,0.55
451336740,0.53,-0.62,0.56
451338725,0.53,-0.62,0.56
451340701,0.53,-0.62,0.56
451342728,0.53,-0.62,0.56
451344804,0.53,-0.62,0.56
451346728,0.53,-0.62,0.56
451348708,0.53,-0.62,0.56
451350663,0.53,-0.62,0.56
451352667,0.53,-0.62,0.56
451354664,0.53,-0.62,0.56
451356664,0.53,-0.62,0.57
451358667,0.53,-0.62,0.57
451360664,0.53,-0.62,0.57
451362731,0.53,-0.62,0.57
451364699,0.53,-0.62,0.57
451366687,0.52,-0.62,0.56
451368715,0.52,-0.62,0.56
451370727,0.52,-0.62,0.56
451372732,0.52,-0.62,0.56
451374711,0.52,-0.62,0.56
451376704,0.53,-0.62,0.57
451378728,0.53,-0.62,0.57
451380724,0.53,-0.62,0.57
451382734,0.53,-0.62,0.57
451384717,0.53,-0.62,0.57
451386701,0.53,-0.62,0.57
451388725,0.53,-0.62,0.56
451390711,0.53,-0.62,0.56
451392707,0.53,-0.62,0.56
451394670,0.53,-0.62,0.56
451396665,0.53,-0.62,0.56
451398725,0.53,-0.62,0.56
451400653,0.53,-0.62,0.56
451402663,0.53,-0.62,0.56
451404665,0.53,-0.62,0.56
451406664,0.53,-0.62,0.56
451408723,0.52,-0.62,0.56
451410712,0.52,-0.62,0.56
451412718,0.52,-0.62,0.56
451414705,0.52,-0.62,0.56
451416734,0.52,-0.62,0.56
451418707,0.52,-0.62,0.57
451420706,0.52,-0.62,0.57
451422670,0.52,-0.62,0.57
451424669,0.52,-0.62,0.57
451426654,0.52,-0.62,0.57
451428661,0.53,-0.62,0.56
451430662,0.53,-0.62,0.56
451432669,0.53,-0.62,0.56
451434665,0.53,-0.62,0.56
451436663,0.53,-0.62,0.56
451438665,0.53,-0.62,0.56
451440667,0.53,-0.62,0.56
451442682,0.53,-0.62,0.56
451444666,0.53,-0.62,0.56
451446663,0.53,-0.62,0.56
451448711,0.53,-0.62,0.56
451450707,0.53,-0.62,0.56
451452701,0.53,-0.62,0.56
451454706,0.53,-0.62,0.56
451456710,0.53,-0.62,0.56
451458795,0.52,-0.62,0.56
451460722,0.52,-0.62,0.56
451462702,0.52,-0.62,0.56
451464665,0.52,-0.62,0.56
451466688,0.52,-0.62,0.56
451468670,0.52,-0.62,0.56
451470661,0.52,-0.62,0.55
451472732,0.52,-0.62,0.55
451474707,0.52,-0.62,0.55
451476675,0.52,-0.62,0.55
451478664,0.52,-0.62,0.55
451480731,0.53,-0.62,0.57
451482681,0.53,-0.62,0.57
451484667,0.53,-0.62,0.57
451486683,0.53,-0.62,0.57
451488720,0.53,-0.62,0.57
451490716,0.52,-0.63,0.58
451492731,0.52,-0.63,0.58
451494714,0.52,-0.63,0.58
451496738,0.52,-0.63,0.58
451498736,0.52,-0.63,0.58
451500709,0.52,-0.62,0.56
451502716,0.52,-0.62,0.56
451504716,0.52,-0.62,0.56
451506671,0.52,-0.62,0.56
451508663,0.52,-0.62,0.56
451510662,0.52,-0.62,0.57
451512663,0.52,-0.62,0.57
451514664,0.52,-0.62,0.57
451516700,0.52,-0.62,0.57
451518670,0.52,-0.62,0.57
451520665,0.52,-0.62,0.57
451522664,0.52,-0.62,0.57
451524666,0.52,-0.62,0.57
451526665,0.52,-0.62,0.57
451528710,0.52,-0.62,0.57
451530708,0.52,-0.62,0.57
451532707,0.52,-0.62,0.57
451534709,0.52,-0.62,0.57
451536718,0.52,-0.62,0.57
451538824,0.52,-0.62,0.57
451540718,0.52,-0.62,0.57
451542807,0.52,-0.62,0.57
451544674,0.52,-0.62,0.57
451546665,0.52,-0.62,0.57
451548663,0.52,-0.62,0.57
451550737,0.52,-0.62,0.57
451552703,0.52,-0.61,0.56
451554655,0.52,-0.61,0.56
451556663,0.52,-0.61,0.56
451558652,0.52,-0.61,0.56
451560665,0.52,-0.61,0.56
451562661,0.53,-0.61,0.56
451564654,0.53,-0.61,0.56
451566751,0.53,-0.61,0.56
451568727,0.53,-0.61,0.56
451570716,0.53,-0.61,0.56
451572738,0.52,-0.62,0.56
451574735,0.52,-0.62,0.56
451576712,0.52,-0.62,0.56
451578714,0.52,-0.62,0.56
451580726,0.52,-0.62,0.56
451582715,0.52,-0.62,0.57
451584711,0.52,-0.62,0.57
451586708,0.52,-0.62,0.57
451588732,0.52,-0.62,0.57
451590689,0.52,-0.62,0.57
451592772,0.53,-0.61,0.56
451594696,0.53,-0.61,0.56
451596716,0.53,-0.61,0.56
451598702,0.53,-0.61,0.56
451600653,0.53,-0.61,0.56
451602650,0.52,-0.62,0.57
451604655,0.52,-0.62,0.57
451606664,0.52,-0.62,0.57
451608732,0.52,-0.62,0.57
451610709,0.52,-0.62,0.57
451612775,0.52,-0.62,0.57
451614703,0.52,-0.62,0.57
451616812,0.52,-0.62,0.57
451618708,0.52,-0.62,0.57
451620709,0.52,-0.62,0.57
451622704,0.52,-0.62,0.57
451624782,0.52,-0.62,0.57
451626698,0.52,-0.62,0.57
451628651,0.52,-0.62,0.57
451630665,0.52,-0.62,0.57
451632664,0.52,-0.62,0.57
451634655,0.52,-0.62,0.57
451636713,0.52,-0.62,0.57
451638666,0.52,-0.62,0.57
451640651,0.52,-0.62,0.57
451642766,0.52,-0.62,0.57
451644662,0.52,-0.62,0.57
451646654,0.52,-0.62,0.57
451648724,0.52,-0.62,0.57
451650708,0.52,-0.62,0.57
451652710,0.52,-0.62,0.57
451654729,0.52,-0.62,0.57
451656722,0.52,-0.62,0.57
451658714,0.52,-0.62,0.57
451660702,0.52,-0.62,0.57
451662697,0.52,-0.62,0.57
451664702,0.52,-0.63,0.58
451666782,0.52,-0.63,0.58
451668743,0.52,-0.63,0.58
451670691,0.52,-0.63,0.58
451672661,0.52,-0.63,0.58
451674666,0.52,-0.63,0.58
451676705,0.52,-0.63,0.58
451678712,0.52,-0.63,0.58
451680666,0.52,-0.63,0.58
451682663,0.52,-0.63,0.58
451684664,0.52,-0.64,0.60
451686682,0.52,-0.64,0.60
451688724,0.52,-0.64,0.60
451690710,0.52,-0.64,0.60
451692812,0.52,-0.64,0.60
451694709,0.52,-0.62,0.57
451696705,0.52,-0.62,0.57
451698724,0.52,-0.62,0.57
451700807,0.52,-0.62,0.57
451702723,0.52,-0.62,0.57
451704705,0.52,-0.62,0.58
451706666,0.52,-0.62,0.58
451708655,0.52,-0.62,0.58
451710670,0.52,-0.62,0.58
451712662,0.52,-0.62,0.58
451714665,0.52,-0.62,0.58
451716764,0.52,-0.62,0.57
451718675,0.52,-0.62,0.57
451720667,0.52,-0.62,0.57
451722663,0.52,-0.62,0.57
451724664,0.52,-0.62,0.57
451726681,0.52,-0.62,0.57
451728715,0.52,-0.62,0.57
451730714,0.52,-0.62,0.57
451732713,0.52,-0.62,0.57
451734707,0.52,-0.62,0.57
451736707,0.52,-0.62,0.56
451738721,0.52,-0.62,0.56
451740736,0.52,-0.62,0.56
451742911,0.52,-0.62,0.56
451744693,0.52,-0.62,0.56
451746664,0.52,-0.62,0.56
451748665,0.52,-0.62,0.56
451750662,0.52,-0.62,0.56
451752662,0.52,-0.62,0.56
451754652,0.52,-0.62,0.56
451756662,0.51,-0.62,0.57
451758664,0.51,-0.62,0.57
451760665,0.51,-0.62,0.57
451762711,0.51,-0.62,0.57
451764663,0.51,-0.62,0.57
451766750,0.52,-0.62,0.56
451768736,0.52,-0.62,0.56
451770714,0.52,-0.62,0.56
451772709,0.52,-0.62,0.56
451774708,0.52,-0.62,0.56
451776702,0.52,-0.62,0.57
451778703,0.52,-0.62,0.57
451780708,0.52,-0.62,0.57
451782672,0.52,-0.62,0.57
451784693,0.52,-0.62,0.57
451786766,0.52,-0.63,0.58
451788690,0.52,-0.63,0.58
451790664,0.52,-0.63,0.58
451792783,0.52,-0.63,0.58
451794670,0.52,-0.63,0.58
451796672,0.52,-0.63,0.58
451798724,0.52,-0.62,0.57
451800664,0.52,-0.62,0.57
451802666,0.52,-0.62,0.57
451804653,0.52,-0.62,0.57
451806663,0.52,-0.62,0.57
451808729,0.52,-0.62,0.57
451810713,0.52,-0.62,0.57
451812722,0.52,-0.62,0.57
451814710,0.52,-0.62,0.57
451816811,0.52,-0.62,0.57
451818716,0.52,-0.62,0.58
451820800,0.52,-0.62,0.58
451822724,0.52,-0.62,0.58
451824709,0.52,-0.62,0.58
451826662,0.52,-0.62,0.58
451828664,0.51,-0.62,0.57
451830678,0.51,-0.62,0.57
451832738,0.51,-0.62,0.57
451834670,0.51,-0.62,0.57
451836661,0.51,-0.62,0.57
451838663,0.52,-0.62,0.56
451840703,0.52,-0.62,0.56
451842801,0.52,-0.62,0.56
451844678,0.52,-0.62,0.56
451846715,0.52,-0.62,0.56
451848763,0.52,-0.62,0.57
451850711,0.52,-0.62,0.57
451852713,0.52,-0.62,0.57
451854714,0.52,-0.62,0.57
451856713,0.52,-0.62,0.57
451858708,0.52,-0.62,0.57
451860705,0.52,-0.62,0.57
451862703,0.52,-0.62,0.57
451864666,0.52,-0.62,0.57
451866761,0.52,-0.62,0.57
451868680,0.51,-0.62,0.57
451870653,0.51,-0.62,0.57
451872666,0.51,-0.62,0.57
451874691,0.51,-0.62,0.57
451876775,0.51,-0.62,0.57
451878689,0.51,-0.62,0.57
451880665,0.52,-0.62,0.56
451882665,0.52,-0.62,0.56
451884663,0.52,-0.62,0.56
451886725,0.52,-0.62,0.56
451888777,0.52,-0.62,0.56
451890722,0.51,-0.62,0.57
451892812,0.51,-0.62,0.57
451894708,0.51,-0.62,0.57
451896744,0.51,-0.62,0.57
451898728,0.51,-0.62,0.57
451900702,0.52,-0.62,0.56
451902702,0.52,-0.62,0.56
451904736,0.52,-0.62,0.56
451906732,0.52,-0.62,0.56
451908707,0.52,-0.62,0.56
451910670,0.52,-0.62,0.56
451912674,0.52,-0.62,0.56
451914731,0.52,-0.62,0.56
451916772,0.52,-0.62,0.56
451918671,0.52,-0.62,0.56
451920666,0.51,-0.62,0.56
451922662,0.51,-0.62,0.56
451924661,0.51,-0.62,0.56
451926663,0.51,-0.62,0.56
451928718,0.51,-0.62,0.56
451930704,0.52,-0.62,0.57
451932715,0.52,-0.62,0.57
451934751,0.52,-0.62,0.57
451936728,0.52,-0.62,0.57
451938701,0.52,-0.62,0.57
451940704,0.51,-0.63,0.58
451942807,0.51,-0.63,0.58
451944731,0.51,-0.63,0.58
451946707,0.51,-0.63,0.58
451948664,0.51,-0.63,0.58
451950665,0.51,-0.63,0.59
451952661,0.51,-0.63,0.59
451954714,0.51,-0.63,0.59
451956653,0.51,-0.63,0.59
451958655,0.51,-0.63,0.59
451960665,0.51,-0.63,0.58
451962655,0.51,-0.63,0.58
451964652,0.51,-0.63,0.58
451966649,0.51,-0.63,0.58
451968729,0.51,-0.63,0.58
451970721,0.51,-0.63,0.58
451972713,0.51,-0.62,0.58
451974705,0.51,-0.62,0.58
451976714,0.51,-0.62,0.58
451978712,0.51,-0.62,0.58
451980708,0.51,-0.62,0.58
451982694,0.51,-0.63,0.58
451984686,0.51,-0.63,0.58
451986749,0.51,-0.63,0.58
451988697,0.51,-0.63,0.58
451990667,0.51,-0.63,0.58
451992774,0.51,-0.63,0.58
451994669,0.51,-0.63,0.58
451996655,0.51,-0.63,0.58
451998702,0.51,-0.63,0.58
452000715,0.51,-0.63,0.58
452002666,0.51,-0.63,0.58
452004663,0.51,-0.63,0.58
452006653,0.51,-0.63,0.58
452008723,0.51,-0.63,0.58
452010711,0.51,-0.63,0.58
452012707,0.51,-0.63,0.57
452014702,0.51,-0.63,0.57
452016809,0.51,-0.63,0.57
452018708,0.51,-0.63,0.57
452020705,0.51,-0.63,0.57
452022667,0.51,-0.62,0.56
452024667,0.51,-0.62,0.56
452026666,0.51,-0.62,0.56
452028662,0.51,-0.62,0.56
452030667,0.51,-0.62,0.56
452032665,0.51,-0.62,0.57
452034662,0.51,-0.62,0.57
452036662,0.51,-0.62,0.57
452038666,0.51,-0.62,0.57
452040653,0.51,-0.62,0.57
452042752,0.51,-0.62,0.57
452044683,0.51,-0.62,0.57
452046711,0.51,-0.62,0.57
452048701,0.51,-0.62,0.57
452050727,0.51,-0.62,0.57
452052777,0.51,-0.62,0.57
452054717,0.51,-0.63,0.57
452056703,0.51,-0.63,0.57
452058713,0.51,-0.63,0.57
452060710,0.51,-0.63,0.57
452062708,0.51,-0.63,0.57
452064728,0.51,-0.62,0.56
452066808,0.51,-0.62,0.56
452068676,0.51,-0.62,0.56
452070666,0.51,-0.62,0.56
452072663,0.51,-0.62,0.56
452074688,0.51,-0.62,0.56
452076718,0.51,-0.62,0.56
452078664,0.51,-0.62,0.56
452080663,0.51,-0.62,0.56
452082653,0.51,-0.62,0.56
452084666,0.52,-0.63,0.57
452086679,0.52,-0.63,0.57
452088722,0.52,-0.63,0.57
452090709,0.52,-0.63,0.57
452092812,0.52,-0.63,0.57
452094706,0.51,-0.63,0.58
452096711,0.51,-0.63,0.58
452098757,0.51,-0.63,0.58
452100737,0.51,-0.63,0.58
452102705,0.51,-0.63,0.58
452104704,0.51,-0.63,0.57
452106690,0.51,-0.63,0.57
452108731,0.51,-0.63,0.57
452110685,0.51,-0.63,0.57
452112662,0.51,-0.63,0.57
452114651,0.52,-0.62,0.57
452116808,0.52,-0.62,0.57
452118708,0.52,-0.62,0.57
452120667,0.52,-0.62,0.57
452122662,0.52,-0.62,0.57
452124663,0.51,-0.62,0.57
452126665,0.51,-0.62,0.57
452128724,0.51,-0.62,0.57
452130711,0.51,-0.62,0.57
452132708,0.51,-0.62,0.57
452134707,0.51,-0.62,0.57
452136735,0.51,-0.63,0.56
452138735,0.51,-0.63,0.56
452140706,0.51,-0.63,0.56
452142815,0.51,-0.63,0.56
452144711,0.51,-0.63,0.56
452146666,0.52,-0.62,0.57
452148702,0.52,-0.62,0.57
452150695,0.52,-0.62,0.57
452152730,0.52,-0.62,0.57
452154685,0.52,-0.62,0.57
452156664,0.52,-0.62,0.57
452158664,0.52,-0.62,0.57
452160664,0.52,-0.62,0.57
452162652,0.52,-0.62,0.57
452164654,0.52,-0.62,0.57
452166765,0.52,-0.62,0.57
452168733,0.52,-0.62,0.57
452170713,0.52,-0.62,0.57
452172705,0.52,-0.62,0.57
452174702,0.52,-0.62,0.57
452176704,0.52,-0.62,0.57
452178705,0.52,-0.62,0.57
452180711,0.52,-0.62,0.57
452182665,0.52,-0.62,0.57
452184668,0.52,-0.62,0.57
452186687,0.51,-0.62,0.56
452188776,0.51,-0.62,0.56
452190693,0.51,-0.62,0.56
452192780,0.51,-0.62,0.56
452194669,0.51,-0.62,0.56
452196665,0.52,-0.62,0.57
452198714,0.52,-0.62,0.57
452200714,0.52,-0.62,0.57
452202666,0.52,-0.62,0.57
452204669,0.52,-0.62,0.57
452206666,0.51,-0.62,0.57
452208730,0.51,-0.62,0.57
452210719,0.51,-0.62,0.57
452212713,0.51,-0.62,0.57
452214725,0.51,-0.62,0.57
452216824,0.51,-0.62,0.57
452218712,0.52,-0.63,0.57
452220711,0.52,-0.63,0.57
452222715,0.52,-0.63,0.57
452224727,0.52,-0.63,0.57
452226728,0.52,-0.63,0.57
452228708,0.52,-0.62,0.57
452230671,0.52,-0.62,0.57
452232668,0.52,-0.62,0.57
452234669,0.52,-0.62,0.57
452236667,0.52,-0.62,0.57
452238723,0.52,-0.63,0.57
452240721,0.52,-0.63,0.57
452242776,0.52,-0.63,0.57
452244666,0.52,-0.63,0.57
452246662,0.52,-0.63,0.57
452248721,0.52,-0.62,0.57
452250735,0.52,-0.62,0.57
452252736,0.52,-0.62,0.57
452254721,0.52,-0.62,0.57
452256704,0.52,-0.62,0.57
452258730,0.51,-0.62,0.56
452260745,0.51,-0.62,0.56
452262729,0.51,-0.62,0.56
452264714,0.51,-0.62,0.56
452266808,0.51,-0.62,0.56
452268711,0.51,-0.62,0.56
452270727,0.51,-0.62,0.56
452272681,0.51,-0.62,0.56
452274653,0.51,-0.62,0.56
452276665,0.51,-0.62,0.56
452278653,0.51,-0.63,0.57
452280661,0.51,-0.63,0.57
452282730,0.51,-0.63,0.57
452284686,0.51,-0.63,0.57
452286679,0.51,-0.63,0.57
452288732,0.51,-0.63,0.57
452290718,0.51,-0.63,0.57
452292820,0.51,-0.63,0.57
452294738,0.51,-0.63,0.57
452296720,0.51,-0.63,0.57
452298713,0.51,-0.63,0.57
452300726,0.51,-0.62,0.56
452302706,0.51,-0.62,0.56
452304726,0.51,-0.62,0.56
452306792,0.51,-0.62,0.56
452308684,0.51,-0.62,0.56
452310664,0.52,-0.62,0.57
452312651,0.52,-0.62,0.57
452314652,0.52,-0.62,0.57
452316651,0.52,-0.62,0.57
452318676,0.52,-0.62,0.57
452320663,0.51,-0.62,0.57
452322661,0.51,-0.62,0.57
452324652,0.51,-0.62,0.57
452326663,0.51,-0.62,0.57
452328715,0.51,-0.62,0.57
452330706,0.52,-0.62,0.57
452332704,0.52,-0.62,0.57
452334713,0.52,-0.62,0.57
452336709,0.52,-0.62,0.57
452338709,0.52,-0.62,0.57
452340702,0.51,-0.62,0.58
452342747,0.51,-0.62,0.58
452344665,0.51,-0.62,0.58
452346662,0.51,-0.62,0.58
452348661,0.51,-0.62,0.58
452350662,0.51,-0.63,0.57
452352696,0.51,-0.63,0.57
452354706,0.51,-0.63,0.57
452356666,0.51,-0.63,0.57
452358668,0.51,-0.63,0.57
452360665,0.52,-0.63,0.57
452362662,0.52,-0.63,0.57
452364664,0.52,-0.63,0.57
452366739,0.52,-0.63,0.57
452368716,0.52,-0.63,0.57
452370714,0.51,-0.63,0.57
452372794,0.51,-0.63,0.57
452374732,0.51,-0.63,0.57
452376711,0.51,-0.63,0.57
452378713,0.51,-0.63,0.57
452380705,0.51,-0.63,0.57
452382710,0.51,-0.62,0.57
452384679,0.51,-0.62,0.57
452386733,0.51,-0.62,0.57
452388692,0.51,-0.62,0.57
452390668,0.51,-0.62,0.57
452392773,0.51,-0.62,0.57
452394667,0.51,-0.62,0.57
452396715,0.51,-0.62,0.57
452398669,0.51,-0.62,0.57
452400699,0.51,-0.62,0.57
452402661,0.52,-0.62,0.57
452404664,0.52,-0.62,0.57
452406664,0.52,-0.62,0.57
452408731,0.52,-0.62,0.57
452410709,0.52,-0.62,0.57
452412708,0.52,-0.62,0.57
452414707,0.52,-0.62,0.57
452416810,0.52,-0.62,0.57
452418711,0.52,-0.62,0.57
452420711,0.52,-0.62,0.57
452422670,0.52,-0.63,0.57
452424699,0.52,-0.63,0.57
452426781,0.52,-0.63,0.57
452428693,0.52,-0.63,0.57
452430666,0.52,-0.63,0.57
452432653,0.51,-0.63,0.58
452434653,0.51,-0.63,0.58
452436711,0.51,-0.63,0.58
452438698,0.51,-0.63,0.58
452440664,0.51,-0.63,0.58
452442774,0.51,-0.62,0.57
452444667,0.51,-0.62,0.57
452446663,0.51,-0.62,0.57
452448731,0.51,-0.62,0.57
452450712,0.51,-0.62,0.57
452452712,0.51,-0.62,0.56
452454715,0.51,-0.62,0.56
452456703,0.51,-0.62,0.56
452458702,0.51,-0.62,0.56
452460713,0.51,-0.62,0.56
452462663,0.51,-0.62,0.56
452464653,0.51,-0.62,0.57
452466751,0.51,-0.62,0.57
452468669,0.51,-0.62,0.57
452470664,0.51,-0.62,0.57
452472733,0.51,-0.62,0.57
452474714,0.51,-0.63,0.57
452476681,0.51,-0.63,0.57
452478666,0.51,-0.63,0.57
452480663,0.51,-0.63,0.57
452482653,0.51,-0.63,0.57
452484715,0.52,-0.63,0.57
452486681,0.52,-0.63,0.57
452488721,0.52,-0.63,0.57
452490706,0.52,-0.63,0.57
452492809,0.52,-0.63,0.57
452494721,0.51,-0.62,0.57
452496732,0.51,-0.62,0.57
452498717,0.51,-0.62,0.57
452500722,0.51,-0.62,0.57
452502706,0.51,-0.62,0.57
452504794,0.52,-0.62,0.56
452506719,0.52,-0.62,0.56
452508708,0.52,-0.62,0.56
452510670,0.52,-0.62,0.56
452512678,0.52,-0.62,0.56
452514741,0.52,-0.62,0.57
452516779,0.52,-0.62,0.57
452518674,0.52,-0.62,0.57
452520665,0.52,-0.62,0.57
452522661,0.52,-0.62,0.57
452524661,0.51,-0.62,0.57
452526664,0.51,-0.62,0.57
452528718,0.51,-0.62,0.57
452530786,0.51,-0.62,0.57
452532730,0.51,-0.62,0.57
452534709,0.51,-0.62,0.57
452536734,0.51,-0.62,0.57
452538727,0.51,-0.62,0.57
452540722,0.51,-0.62,0.57
452542814,0.51,-0.62,0.57
452544710,0.51,-0.62,0.57
452546712,0.52,-0.63,0.58
452548669,0.52,-0.63,0.58
452550668,0.52,-0.63,0.58
452552670,0.52,-0.63,0.58
452554665,0.52,-0.63,0.58
452556675,0.51,-0.62,0.57
452558719,0.51,-0.62,0.57
452560735,0.51,-0.62,0.57
452562684,0.51,-0.62,0.57
452564670,0.51,-0.62,0.57
452566758,0.52,-0.62,0.57
452568753,0.52,-0.62,0.57
452570724,0.52,-0.62,0.57
452572718,0.52,-0.62,0.57
452574713,0.52,-0.62,0.57
452576735,0.52,-0.62,0.57
452578746,0.52,-0.62,0.57
452580714,0.52,-0.62,0.57
452582708,0.52,-0.62,0.57
452584727,0.52,-0.62,0.57
452586745,0.51,-0.62,0.57
452588731,0.51,-0.62,0.57
452590708,0.51,-0.62,0.57
452592783,0.51,-0.62,0.57
452594695,0.51,-0.62,0.57
452596738,0.51,-0.62,0.57
452598682,0.51,-0.62,0.57
452600700,0.51,-0.62,0.57
452602661,0.51,-0.62,0.57
452604664,0.51,-0.62,0.57
452606674,0.51,-0.63,0.57
452608736,0.51,-0.63,0.57
452610734,0.51,-0.63,0.57
452612773,0.51,-0.63,0.57
452614714,0.51,-0.63,0.57
452616826,0.52,-0.63,0.58
452618738,0.52,-0.63,0.58
452620720,0.52,-0.63,0.58
452622710,0.52,-0.63,0.58
452624704,0.52,-0.63,0.58
452626705,0.51,-0.63,0.58
452628725,0.51,-0.63,0.58
452630703,0.51,-0.63,0.58
452632654,0.51,-0.63,0.58
452634664,0.51,-0.63,0.58
452636661,0.51,-0.63,0.58
452638721,0.50,-0.63,0.57
452640688,0.50,-0.63,0.57
452642770,0.50,-0.63,0.57
452644654,0.50,-0.63,0.57
452646651,0.50,-0.63,0.57
452648725,0.51,-0.62,0.57
452650708,0.51,-0.62,0.57
452652705,0.51,-0.62,0.57
452654703,0.51,-0.62,0.57
452656710,0.51,-0.62,0.57
452658727,0.51,-0.62,0.57
452660738,0.51,-0.62,0.57
452662704,0.51,-0.62,0.57
452664710,0.51,-0.62,0.57
452666771,0.51,-0.62,0.57
452668741,0.51,-0.62,0.57
452670700,0.51,-0.62,0.57
452672654,0.51,-0.62,0.57
452674661,0.51,-0.62,0.57
452676669,0.51,-0.62,0.57
452678712,0.51,-0.62,0.57
452680661,0.51,-0.62,0.57
452682662,0.51,-0.62,0.57
452684652,0.51,-0.62,0.57
452686676,0.51,-0.62,0.57
452688735,0.52,-0.63,0.57
452690714,0.52,-0.63,0.57
452692821,0.52,-0.63,0.57
452694714,0.52,-0.63,0.57
452696760,0.52,-0.63,0.57
452698730,0.52,-0.64,0.60
452700728,0.52,-0.64,0.60
452702710,0.52,-0.64,0.60
452704710,0.52,-0.64,0.60
452706712,0.52,-0.64,0.60
452708663,0.52,-0.64,0.60
452710665,0.52,-0.63,0.58
452712669,0.52,-0.63,0.58
452714670,0.52,-0.63,0.58
452716768,0.52,-0.63,0.58
452718679,0.52,-0.63,0.58
452720764,0.52,-0.63,0.57
452722699,0.52,-0.63,0.57
452724677,0.52,-0.63,0.57
452726678,0.52,-0.63,0.57
452728716,0.52,-0.63,0.57
452730709,0.52,-0.62,0.56
452732707,0.52,-0.62,0.56
452734706,0.52,-0.62,0.56
452736710,0.52,-0.62,0.56
452738705,0.52,-0.62,0.56
452740669,0.52,-0.60,0.55
452742775,0.52,-0.60,0.55
452744748,0.52,-0.60,0.55
452746694,0.52,-0.60,0.55
452748663,0.52,-0.60,0.55
452750662,0.52,-0.62,0.55
452752663,0.52,-0.62,0.55
452754662,0.52,-0.62,0.55
452756664,0.52,-0.62,0.55
452758662,0.52,-0.62,0.55
452760661,0.51,-0.61,0.55
452762665,0.51,-0.61,0.55
452764666,0.51,-0.61,0.55
452766756,0.51,-0.61,0.55
452768732,0.51,-0.61,0.55
452770710,0.51,-0.61,0.56
452772711,0.51,-0.61,0.56
452774710,0.51,-0.61,0.56
452776708,0.51,-0.61,0.56
452778699,0.51,-0.61,0.56
452780700,0.52,-0.62,0.56
452782664,0.52,-0.62,0.56
452784737,0.52,-0.62,0.56
452786704,0.52,-0.62,0.56
452788679,0.52,-0.62,0.56
452790653,0.52,-0.62,0.55
452792776,0.52,-0.62,0.55
452794665,0.52,-0.62,0.55
452796650,0.52,-0.62,0.55
452798667,0.52,-0.62,0.55
452800707,0.52,-0.62,0.55
452802668,0.51,-0.62,0.57
452804669,0.51,-0.62,0.57
452806655,0.51,-0.62,0.57
452808715,0.51,-0.62,0.57
452810711,0.51,-0.62,0.57
452812717,0.52,-0.63,0.59
452814706,0.52,-0.63,0.59
452816791,0.52,-0.63,0.59
452818717,0.52,-0.63,0.59
452820709,0.52,-0.63,0.59
452822674,0.52,-0.62,0.58
452824670,0.52,-0.62,0.58
452826667,0.52,-0.62,0.58
452828676,0.52,-0.62,0.58
452830782,0.52,-0.62,0.58
452832693,0.51,-0.62,0.57
452834654,0.51,-0.62,0.57
452836664,0.51,-0.62,0.57
452838663,0.51,-0.62,0.57
452840712,0.51,-0.62,0.57
452842798,0.51,-0.63,0.58
452844655,0.51,-0.63,0.58
452846664,0.51,-0.63,0.58
452848728,0.51,-0.63,0.58
452850710,0.51,-0.63,0.58
452852705,0.52,-0.63,0.57
452854721,0.52,-0.63,0.57
452856717,0.52,-0.63,0.57
452858806,0.52,-0.63,0.57
452860719,0.52,-0.63,0.57
452862705,0.51,-0.62,0.57
452864705,0.51,-0.62,0.57
452866810,0.51,-0.62,0.57
452868675,0.51,-0.62,0.57
452870734,0.51,-0.62,0.57
452872674,0.51,-0.63,0.58
452874661,0.51,-0.63,0.58
452876662,0.51,-0.63,0.58
452878654,0.51,-0.63,0.58
452880663,0.51,-0.63,0.58
452882727,0.51,-0.63,0.58
452884682,0.51,-0.64,0.58
452886680,0.51,-0.64,0.58
452888723,0.51,-0.64,0.58
452890706,0.51,-0.64,0.58
452892809,0.51,-0.64,0.58
452894716,0.51,-0.63,0.58
452896720,0.51,-0.63,0.58
452898724,0.51,-0.63,0.58
452900717,0.51,-0.63,0.58
452902705,0.51,-0.63,0.58
452904733,0.51,-0.62,0.57
452906735,0.51,-0.62,0.57
452908696,0.51,-0.62,0.57
452910663,0.51,-0.62,0.57
452912654,0.51,-0.62,0.57
452914665,0.51,-0.62,0.57
452916761,0.51,-0.62,0.57
452918674,0.51,-0.62,0.57
452920667,0.51,-0.62,0.57
452922662,0.51,-0.62,0.57
452924662,0.51,-0.63,0.57
452926663,0.51,-0.63,0.57
452928713,0.51,-0.63,0.57
452930701,0.51,-0.63,0.57
452932733,0.51,-0.63,0.57
452934730,0.51,-0.63,0.58
452936714,0.51,-0.63,0.58
452938711,0.51,-0.63,0.58
452940713,0.51,-0.63,0.58
452942808,0.51,-0.63,0.58
452944667,0.51,-0.62,0.58
452946663,0.51,-0.62,0.58
452948655,0.51,-0.62,0.58
452950661,0.51,-0.62,0.58
452952665,0.51,-0.62,0.58
452954670,0.50,-0.62,0.57
452956661,0.50,-0.62,0.57
452958653,0.50,-0.62,0.57
452960655,0.50,-0.62,0.57
452962653,0.50,-0.62,0.57
452964654,0.50,-0.62,0.57
452966755,0.50,-0.62,0.57
452968731,0.50,-0.62,0.57
452970742,0.50,-0.62,0.57
452972714,0.50,-0.62,0.57
452974705,0.50,-0.62,0.57
452976718,0.52,-0.62,0.57
452978711,0.52,-0.62,0.57
452980745,0.52,-0.62,0.57
452982723,0.52,-0.62,0.57
452984713,0.52,-0.62,0.57
452986710,0.51,-0.62,0.57
452988662,0.51,-0.62,0.57
452990676,0.51,-0.62,0.57
452992853,0.51,-0.62,0.57
452994710,0.51,-0.62,0.57
452996667,0.51,-0.62,0.58
452998668,0.51,-0.62,0.58
453000709,0.51,-0.62,0.58
453002703,0.51,-0.62,0.58
453004710,0.51,-0.62,0.58
453006676,0.51,-0.62,0.57
453008729,0.51,-0.62,0.57
453010710,0.51,-0.62,0.57
453012714,0.51,-0.62,0.57
453014715,0.51,-0.62,0.57
453016827,0.51,-0.62,0.57
453018736,0.51,-0.62,0.57
453020713,0.51,-0.62,0.57
453022710,0.51,-0.62,0.57
453024717,0.51,-0.62,0.57
453026732,0.51,-0.62,0.58
453028692,0.51,-0.62,0.58
453030675,0.51,-0.62,0.58
453032675,0.51,-0.62,0.58
453034681,0.51,-0.62,0.58
453036710,0.51,-0.63,0.57
453038675,0.51,-0.63,0.57
453040667,0.51,-0.63,0.57
453042780,0.51,-0.63,0.57
453044665,0.51,-0.63,0.57
453046677,0.51,-0.63,0.57
453048718,0.51,-0.62,0.56
453050713,0.51,-0.62,0.56
453052712,0.51,-0.62,0.56
453054712,0.51,-0.62,0.56
453056705,0.51,-0.62,0.56
453058704,0.51,-0.62,0.55
453060705,0.51,-0.62,0.55
453062685,0.51,-0.62,0.55
453064674,0.51,-0.62,0.55
453066770,0.51,-0.62,0.55
453068677,0.51,-0.62,0.58
453070674,0.51,-0.62,0.58
453072741,0.51,-0.62,0.58
453074705,0.51,-0.62,0.58
453076672,0.51,-0.62,0.58
453078678,0.51,-0.62,0.57
453080671,0.51,-0.62,0.57
453082680,0.51,-0.62,0.57
453084719,0.51,-0.62,0.57
453086686,0.51,-0.62,0.57
453088725,0.51,-0.63,0.58
453090713,0.51,-0.63,0.58
453092822,0.51,-0.63,0.58
453094733,0.51,-0.63,0.58
453096738,0.51,-0.63,0.58
453098733,0.51,-0.62,0.57
453100727,0.51,-0.62,0.57
453102714,0.51,-0.62,0.57
453104734,0.51,-0.62,0.57
453106720,0.51,-0.62,0.57
453108717,0.51,-0.63,0.57
453110693,0.51,-0.63,0.57
453112679,0.51,-0.63,0.57
453114675,0.51,-0.63,0.57
453116782,0.51,-0.63,0.57
453118718,0.51,-0.63,0.58
453120736,0.51,-0.63,0.58
453122678,0.51,-0.63,0.58
453124675,0.51,-0.63,0.58
453126668,0.51,-0.63,0.58
453128723,0.51,-0.63,0.58
453130733,0.51,-0.63,0.57
453132720,0.51,-0.63,0.57
453134714,0.51,-0.63,0.57
453136710,0.51,-0.63,0.57
453138706,0.51,-0.63,0.57
453140712,0.51,-0.62,0.57
453142841,0.51,-0.62,0.57
453144719,0.51,-0.62,0.57
453146705,0.51,-0.62,0.57
453148673,0.51,-0.62,0.57
453150680,0.51,-0.62,0.57
453152686,0.51,-0.62,0.57
453154735,0.51,-0.62,0.57
453156685,0.51,-0.62,0.57
453158667,0.51,-0.62,0.57
453160678,0.51,-0.62,0.57
453162680,0.51,-0.62,0.57
453164716,0.51,-0.62,0.57
453166764,0.51,-0.62,0.57
453168750,0.51,-0.62,0.57
453170713,0.51,-0.62,0.57
453172736,0.51,-0.62,0.57
453174707,0.51,-0.62,0.57
453176728,0.51,-0.62,0.57
453178730,0.51,-0.62,0.57
453180724,0.51,-0.62,0.57
453182708,0.51,-0.62,0.57
453184711,0.51,-0.62,0.57
453186736,0.51,-0.62,0.57
453188733,0.51,-0.62,0.57
453190693,0.50,-0.63,0.57
453192787,0.50,-0.63,0.57
453194695,0.50,-0.63,0.57
453196735,0.50,-0.63,0.57
453198685,0.50,-0.63,0.57
453200706,0.51,-0.63,0.58
453202665,0.51,-0.63,0.58
453204654,0.51,-0.63,0.58
453206666,0.51,-0.63,0.58
453208730,0.51,-0.63,0.58
453210717,0.51,-0.63,0.58
453212710,0.51,-0.63,0.58
453214710,0.51,-0.63,0.58
453216815,0.51,-0.63,0.58
453218711,0.51,-0.63,0.58
453220708,0.51,-0.63,0.58
453222699,0.50,-0.63,0.57
453224665,0.50,-0.63,0.57
453226680,0.50,-0.63,0.57
453228664,0.50,-0.63,0.57
453230663,0.50,-0.63,0.57
453232666,0.51,-0.63,0.57
453234670,0.51,-0.63,0.57
453236678,0.51,-0.63,0.57
453238782,0.51,-0.63,0.57
453240683,0.51,-0.63,0.57
453242769,0.51,-0.62,0.58
453244664,0.51,-0.62,0.58
453246663,0.51,-0.62,0.58
453248715,0.51,-0.62,0.58
453250703,0.51,-0.62,0.58
453252699,0.51,-0.62,0.57
453254704,0.51,-0.62,0.57
453256711,0.51,-0.62,0.57
453258736,0.51,-0.62,0.57
453260724,0.51,-0.62,0.57
453262710,0.50,-0.62,0.58
453264671,0.50,-0.62,0.58
453266761,0.50,-0.62,0.58
453268683,0.50,-0.62,0.58
453270777,0.50,-0.62,0.58
453272694,0.50,-0.63,0.58
453274664,0.50,-0.63,0.58
453276701,0.50,-0.63,0.58
453278697,0.50,-0.63,0.58
453280716,0.50,-0.63,0.58
453282654,0.51,-0.63,0.57
453284652,0.51,-0.63,0.57
453286682,0.51,-0.63,0.57
453288736,0.51,-0.63,0.57
453290717,0.51,-0.63,0.57
453292818,0.51,-0.63,0.58
453294730,0.51,-0.63,0.58
453296738,0.51,-0.63,0.58
453298719,0.51,-0.63,0.58
453300737,0.51,-0.63,0.58
453302706,0.51,-0.63,0.58
453304704,0.51,-0.62,0.57
453306701,0.51,-0.62,0.57
453308670,0.51,-0.62,0.57
453310670,0.51,-0.62,0.57
453312666,0.51,-0.62,0.57
453314667,0.51,-0.62,0.57
453316763,0.51,-0.62,0.57
453318670,0.51,-0.62,0.57
453320665,0.51,-0.62,0.57
453322653,0.51,-0.62,0.57
453324665,0.52,-0.62,0.57
453326664,0.52,-0.62,0.57
453328712,0.52,-0.62,0.57
453330703,0.52,-0.62,0.57
453332701,0.52,-0.62,0.57
453334704,0.51,-0.62,0.57
453336805,0.51,-0.62,0.57
453338720,0.51,-0.62,0.57
453340714,0.51,-0.62,0.57
453342809,0.51,-0.62,0.57
453344666,0.51,-0.62,0.57
453346661,0.51,-0.62,0.57
453348654,0.51,-0.62,0.57
453350654,0.51,-0.62,0.57
453352669,0.51,-0.62,0.57
453354667,0.51,-0.62,0.58
453356661,0.51,-0.62,0.58
453358653,0.51,-0.62,0.58
453360662,0.51,-0.62,0.58
453362653,0.51,-0.62,0.58
453364662,0.50,-0.62,0.58
453366654,0.50,-0.62,0.58
453368800,0.50,-0.62,0.58
453370734,0.50,-0.62,0.58
453372711,0.50,-0.62,0.58
453374714,0.50,-0.62,0.58
453376715,0.50,-0.62,0.57
453378734,0.50,-0.62,0.57
453380727,0.50,-0.62,0.57
453382713,0.50,-0.62,0.57
453384718,0.50,-0.62,0.57
453386717,0.51,-0.62,0.57
453388807,0.51,-0.62,0.57
453390715,0.51,-0.62,0.57
453392784,0.51,-0.62,0.57
453394669,0.51,-0.62,0.57
453396703,0.51,-0.62,0.58
453398734,0.51,-0.62,0.58
453400707,0.51,-0.62,0.58
453402661,0.51,-0.62,0.58
453404710,0.51,-0.62,0.58
453406700,0.51,-0.63,0.59
453408661,0.51,-0.63,0.59
453410731,0.51,-0.63,0.59
453412715,0.51,-0.63,0.59
453414708,0.51,-0.63,0.59
453416816,0.50,-0.62,0.58
453418717,0.50,-0.62,0.58
453420748,0.50,-0.62,0.58
453422727,0.50,-0.62,0.58
453424714,0.50,-0.62,0.58
453426708,0.50,-0.62,0.57
453428686,0.50,-0.62,0.57
453430652,0.50,-0.62,0.57
453432664,0.50,-0.62,0.57
453434662,0.50,-0.62,0.57
453436662,0.50,-0.63,0.58
453438662,0.50,-0.63,0.58
453440667,0.50,-0.63,0.58
453442829,0.50,-0.63,0.58
453444712,0.50,-0.63,0.58
453446666,0.50,-0.64,0.59
453448664,0.50,-0.64,0.59
453450714,0.50,-0.64,0.59
453452716,0.50,-0.64,0.59
453454730,0.50,-0.64,0.59
453456724,0.50,-0.64,0.59
453458707,0.50,-0.63,0.59
453460711,0.50,-0.63,0.59
453462733,0.50,-0.63,0.59
453464713,0.50,-0.63,0.59
453466808,0.50,-0.63,0.59
453468666,0.51,-0.62,0.57
453470787,0.51,-0.62,0.57
453472690,0.51,-0.62,0.57
453474664,0.51,-0.62,0.57
453476677,0.51,-0.62,0.57
453478671,0.50,-0.62,0.57
453480717,0.50,-0.62,0.57
453482664,0.50,-0.62,0.57
453484664,0.50,-0.62,0.57
453486683,0.50,-0.62,0.57
453488664,0.50,-0.62,0.57
453490830,0.50,-0.62,0.57
453492818,0.50,-0.62,0.57
453494705,0.50,-0.62,0.57
453496712,0.50,-0.62,0.57
453498753,0.50,-0.62,0.58
453500741,0.50,-0.62,0.58
453502713,0.50,-0.62,0.58
453504717,0.50,-0.62,0.58
453506720,0.50,-0.62,0.58
453508732,0.50,-0.62,0.57
453510712,0.50,-0.62,0.57
453512669,0.50,-0.62,0.57
453514666,0.50,-0.62,0.57
453516758,0.50,-0.62,0.57
453518679,0.51,-0.62,0.57
453520673,0.51,-0.62,0.57
453522742,0.51,-0.62,0.57
453524694,0.51,-0.62,0.57
453526662,0.51,-0.62,0.57
453528654,0.51,-0.63,0.58
453530716,0.51,-0.63,0.58
453532713,0.51,-0.63,0.58
453534713,0.51,-0.63,0.58
453536737,0.51,-0.63,0.58
453538724,0.51,-0.63,0.58
453540728,0.50,-0.62,0.58
453542810,0.50,-0.62,0.58
453544714,0.50,-0.62,0.58
453546691,0.50,-0.62,0.58
453548666,0.50,-0.62,0.58
453550666,0.50,-0.62,0.58
453552667,0.50,-0.62,0.58
453554653,0.50,-0.62,0.58
453556676,0.50,-0.62,0.58
453558767,0.50,-0.62,0.58
453560689,0.51,-0.62,0.57
453562661,0.51,-0.62,0.57
453564662,0.51,-0.62,0.57
453566757,0.51,-0.62,0.57
453568664,0.51,-0.62,0.57
453570748,0.50,-0.62,0.57
453572725,0.50,-0.62,0.57
453574724,0.50,-0.62,0.57
453576710,0.50,-0.62,0.57
453578704,0.50,-0.62,0.57
453580732,0.51,-0.64,0.58
453582740,0.51,-0.64,0.58
453584713,0.51,-0.64,0.58
453586718,0.51,-0.64,0.58
453588733,0.51,-0.64,0.58
453590725,0.50,-0.63,0.58
453592789,0.50,-0.63,0.58
453594654,0.50,-0.63,0.58
453596664,0.50,-0.63,0.58
453598654,0.50,-0.63,0.58
453600704,0.51,-0.62,0.57
453602667,0.51,-0.62,0.57
453604662,0.51,-0.62,0.57
453606662,0.51,-0.62,0.57
453608671,0.51,-0.62,0.57
453610716,0.51,-0.63,0.57
453612838,0.51,-0.63,0.57
453614722,0.51,-0.63,0.57
453616808,0.51,-0.63,0.57
453618716,0.51,-0.63,0.57
453620734,0.51,-0.63,0.57
453622714,0.50,-0.62,0.57
453624703,0.50,-0.62,0.57
453626701,0.50,-0.62,0.57
453628702,0.50,-0.62,0.57
453630664,0.50,-0.62,0.57
453632669,0.50,-0.62,0.57
453634662,0.50,-0.62,0.57
453636661,0.50,-0.62,0.57
453638662,0.50,-0.62,0.57
453640670,0.50,-0.62,0.57
453642830,0.50,-0.62,0.57
453644714,0.50,-0.62,0.57
453646667,0.50,-0.62,0.57
453648667,0.50,-0.62,0.57
453650713,0.50,-0.62,0.57
453652751,0.50,-0.62,0.58
453654713,0.50,-0.62,0.58
453656710,0.50,-0.62,0.58
453658712,0.50,-0.62,0.58
453660708,0.50,-0.62,0.58
453662709,0.51,-0.63,0.57
453664705,0.51,-0.63,0.57
453666761,0.51,-0.63,0.57
453668678,0.51,-0.63,0.57
453670667,0.51,-0.63,0.57
453672663,0.50,-0.62,0.57
453674666,0.50,-0.62,0.57
453676655,0.50,-0.62,0.57
453678665,0.50,-0.62,0.57
453680681,0.50,-0.62,0.57
453682757,0.51,-0.62,0.57
453684707,0.51,-0.62,0.57
453686681,0.51,-0.62,0.57
453688664,0.51,-0.62,0.57
453690729,0.51,-0.62,0.57
453692816,0.51,-0.63,0.57
453694715,0.51,-0.63,0.57
453696708,0.51,-0.63,0.57
453698707,0.51,-0.63,0.57
453700727,0.51,-0.63,0.57
453702748,0.51,-0.63,0.59
453704720,0.51,-0.63,0.59
453706713,0.51,-0.63,0.59
453708668,0.51,-0.63,0.59
453710665,0.51,-0.63,0.59
453712728,0.51,-0.63,0.59
453714705,0.51,-0.62,0.57
453716761,0.51,-0.62,0.57
453718675,0.51,-0.62,0.57
453720689,0.51,-0.62,0.57
453722715,0.51,-0.62,0.57
453724665,0.51,-0.62,0.57
453726670,0.51,-0.62,0.57
453728662,0.51,-0.62,0.57
453730726,0.51,-0.62,0.57
453732710,0.51,-0.62,0.57
453734702,0.51,-0.63,0.57
453736703,0.51,-0.63,0.57
453738704,0.51,-0.63,0.57
453740711,0.51,-0.63,0.57
453742803,0.51,-0.63,0.57
453744696,0.50,-0.62,0.57
453746781,0.50,-0.62,0.57
453748687,0.50,-0.62,0.57
453750663,0.50,-0.62,0.57
453752661,0.50,-0.62,0.57
453754651,0.51,-0.62,0.57
453756724,0.51,-0.62,0.57
453758664,0.51,-0.62,0.57
453760663,0.51,-0.62,0.57
453762655,0.51,-0.62,0.57
453764662,0.51,-0.62,0.57
453766654,0.51,-0.62,0.57
453768677,0.51,-0.62,0.57
453770733,0.51,-0.62,0.57
453772711,0.51,-0.62,0.57
453774704,0.50,-0.63,0.58
453776712,0.50,-0.63,0.58
453778747,0.50,-0.63,0.58
453780747,0.50,-0.63,0.58
453782710,0.50,-0.63,0.58
453784717,0.50,-0.63,0.58
453786723,0.50,-0.63,0.57
453788712,0.50,-0.63,0.57
453790666,0.50,-0.63,0.57
453792782,0.50,-0.63,0.57
453794669,0.50,-0.63,0.57
453796665,0.50,-0.62,0.57
453798703,0.50,-0.62,0.57
453800741,0.50,-0.62,0.57
453802711,0.50,-0.62,0.57
453804670,0.50,-0.62,0.57
453806663,0.50,-0.62,0.57
453808651,0.50,-0.62,0.57
453810719,0.50,-0.62,0.57
453812711,0.50,-0.62,0.57
453814710,0.50,-0.62,0.57
453816811,0.50,-0.62,0.58
453818726,0.50,-0.62,0.58
453820712,0.50,-0.62,0.58
453822713,0.50,-0.62,0.58
453824671,0.50,-0.62,0.58
453826665,0.51,-0.63,0.57
453828666,0.51,-0.63,0.57
453830668,0.51,-0.63,0.57
453832662,0.51,-0.63,0.57
453834664,0.51,-0.63,0.57
453836654,0.50,-0.62,0.58
453838662,0.50,-0.62,0.58
453840654,0.50,-0.62,0.58
453842745,0.50,-0.62,0.58
453844653,0.50,-0.62,0.58
453846684,0.51,-0.64,0.59
453848791,0.51,-0.64,0.59
453850735,0.51,-0.64,0.59
453852712,0.51,-0.64,0.59
453854706,0.51,-0.64,0.59
453856712,0.50,-0.62,0.57
453858734,0.50,-0.62,0.57
453860729,0.50,-0.62,0.57
453862725,0.50,-0.62,0.57
453864713,0.50,-0.62,0.57
453866800,0.50,-0.62,0.58
453868696,0.50,-0.62,0.58
453870747,0.50,-0.62,0.58
453872690,0.50,-0.62,0.58
453874664,0.50,-0.62,0.58
453876665,0.50,-0.62,0.58
453878663,0.50,-0.62,0.57
453880662,0.50,-0.62,0.57
453882666,0.50,-0.62,0.57
453884663,0.50,-0.62,0.57
453886712,0.50,-0.62,0.57
453888707,0.50,-0.62,0.58
453890737,0.50,-0.62,0.58
453892835,0.50,-0.62,0.58
453894706,0.50,-0.62,0.58
453896708,0.50,-0.62,0.58
453898736,0.51,-0.62,0.58
453900732,0.51,-0.62,0.58
453902732,0.51,-0.62,0.58
453904724,0.51,-0.62,0.58
453906723,0.51,-0.62,0.58
453908753,0.51,-0.62,0.57
453910730,0.51,-0.62,0.57
453912713,0.51,-0.62,0.57
453914669,0.51,-0.62,0.57
453916821,0.51,-0.62,0.57
453918685,0.50,-0.63,0.59
453920662,0.50,-0.63,0.59
453922670,0.50,-0.63,0.59
453924714,0.50,-0.63,0.59
453926666,0.50,-0.63,0.59
453928665,0.50,-0.62,0.58
453930730,0.50,-0.62,0.58
453932714,0.50,-0.62,0.58
453934714,0.50,-0.62,0.58
453936714,0.50,-0.62,0.58
453938734,0.50,-0.62,0.58
453940725,0.50,-0.62,0.58
453942809,0.50,-0.62,0.58
453944710,0.50,-0.62,0.58
453946717,0.50,-0.62,0.58
453948773,0.50,-0.63,0.59
453950694,0.50,-0.63,0.59
453952651,0.50,-0.63,0.59
453954652,0.50,-0.63,0.59
453956650,0.50,-0.63,0.59
453958650,0.50,-0.63,0.59
453960655,0.51,-0.63,0.58
453962654,0.51,-0.63,0.58
453964650,0.51,-0.63,0.58
453966757,0.51,-0.63,0.58
453968677,0.51,-0.63,0.58
453970763,0.50,-0.62,0.58
453972732,0.50,-0.62,0.58
453974719,0.50,-0.62,0.58
453976711,0.50,-0.62,0.58
453978710,0.50,-0.62,0.58
453980710,0.51,-0.62,0.57
453982709,0.51,-0.62,0.57
453984714,0.51,-0.62,0.57
453986689,0.51,-0.62,0.57
453988664,0.51,-0.62,0.57
453990674,0.50,-0.63,0.57
453992831,0.50,-0.63,0.57
453994738,0.50,-0.63,0.57
453996703,0.50,-0.63,0.57
453998655,0.50,-0.63,0.57
454000651,0.50,-0.62,0.59
454002702,0.50,-0.62,0.59
454004654,0.50,-0.62,0.59
454006682,0.50,-0.62,0.59
454008711,0.50,-0.62,0.59
454010725,0.50,-0.62,0.57
454012712,0.50,-0.62,0.57
454014703,0.50,-0.62,0.57
454016803,0.50,-0.62,0.57
454018759,0.50,-0.62,0.57
454020726,0.50,-0.62,0.57
454022710,0.50,-0.62,0.57
454024712,0.50,-0.62,0.57
454026712,0.50,-0.62,0.57
454028663,0.50,-0.62,0.57
454030737,0.50,-0.62,0.59
454032684,0.50,-0.62,0.59
454034662,0.50,-0.62,0.59
454036662,0.50,-0.62,0.59
454038669,0.50,-0.62,0.59
454040713,0.50,-0.62,0.59
454042766,0.50,-0.63,0.59
454044665,0.50,-0.63,0.59
454046654,0.50,-0.63,0.59
454048663,0.50,-0.63,0.59
454050735,0.50,-0.63,0.59
454052715,0.50,-0.62,0.58
454054709,0.50,-0.62,0.58
454056712,0.50,-0.62,0.58
454058731,0.50,-0.62,0.58
454060723,0.50,-0.62,0.58
454062709,0.50,-0.62,0.59
454064712,0.50,-0.62,0.59
454066807,0.50,-0.62,0.59
454068675,0.50,-0.62,0.59
454070663,0.50,-0.62,0.59
454072653,0.50,-0.63,0.59
454074666,0.50,-0.63,0.59
454076661,0.50,-0.63,0.59
454078664,0.50,-0.63,0.59
454080667,0.50,-0.63,0.59
454082665,0.50,-0.62,0.59
454084654,0.50,-0.62,0.59
454086677,0.50,-0.62,0.59
454088665,0.50,-0.62,0.59
454090708,0.50,-0.62,0.59
454092796,0.50,-0.62,0.58
454094714,0.50,-0.62,0.58
454096753,0.50,-0.62,0.58
454098739,0.50,-0.62,0.58
454100714,0.50,-0.62,0.58
454102726,0.50,-0.63,0.57
454104711,0.50,-0.63,0.57
454106711,0.50,-0.63,0.57
454108664,0.50,-0.63,0.57
454110662,0.50,-0.63,0.57
454112662,0.50,-0.63,0.59
454114662,0.50,-0.63,0.59
454116760,0.50,-0.63,0.59
454118670,0.50,-0.63,0.59
454120664,0.50,-0.63,0.59
454122663,0.50,-0.63,0.59
454124655,0.50,-0.62,0.58
454126652,0.50,-0.62,0.58
454128662,0.50,-0.62,0.58
454130714,0.50,-0.62,0.58
454132712,0.50,-0.62,0.58
454134707,0.51,-0.62,0.57
454136706,0.51,-0.62,0.57
454138701,0.51,-0.62,0.57
454140711,0.51,-0.62,0.57
454142772,0.51,-0.62,0.57
454144670,0.50,-0.62,0.58
454146661,0.50,-0.62,0.58
454148662,0.50,-0.62,0.58
454150664,0.50,-0.62,0.58
454152665,0.50,-0.62,0.58
454154654,0.50,-0.62,0.57
454156655,0.50,-0.62,0.57
454158654,0.50,-0.62,0.57
454160654,0.50,-0.62,0.57
454162661,0.50,-0.62,0.57
454164755,0.51,-0.63,0.57
454166796,0.51,-0.63,0.57
454168664,0.51,-0.63,0.57
454170723,0.51,-0.63,0.57
454172704,0.51,-0.63,0.57
454174711,0.50,-0.63,0.58
454176713,0.50,-0.63,0.58
454178727,0.50,-0.63,0.58
454180740,0.50,-0.63,0.58
454182713,0.50,-0.63,0.58
454184708,0.50,-0.64,0.59
454186680,0.50,-0.64,0.59
454188664,0.50,-0.64,0.59
454190676,0.50,-0.64,0.59
454192850,0.50,-0.64,0.59
454194692,0.50,-0.63,0.59
454196696,0.50,-0.63,0.59
454198666,0.50,-0.63,0.59
454200653,0.50,-0.63,0.59
454202702,0.50,-0.63,0.59
454204664,0.50,-0.63,0.59
454206662,0.50,-0.62,0.58
454208664,0.50,-0.62,0.58
454210720,0.50,-0.62,0.58
454212735,0.50,-0.62,0.58
454214715,0.50,-0.62,0.58
454216805,0.50,-0.63,0.58
454218736,0.50,-0.63,0.58
454220771,0.50,-0.63,0.58
454222723,0.50,-0.63,0.58
454224707,0.50,-0.63,0.58
454226717,0.50,-0.62,0.59
454228715,0.50,-0.62,0.59
454230728,0.50,-0.62,0.59
454232681,0.50,-0.62,0.59
454234653,0.50,-0.62,0.59
454236651,0.51,-0.62,0.57
454238673,0.51,-0.62,0.57
454240708,0.51,-0.62,0.57
454242771,0.51,-0.62,0.57
454244665,0.51,-0.62,0.57
454246665,0.50,-0.62,0.57
454248664,0.50,-0.62,0.57
454250727,0.50,-0.62,0.57
454252710,0.50,-0.62,0.57
454254707,0.50,-0.62,0.57
454256712,0.50,-0.63,0.59
454258713,0.50,-0.63,0.59
454260703,0.50,-0.63,0.59
454262703,0.50,-0.63,0.59
454264664,0.50,-0.63,0.59
454266751,0.50,-0.63,0.58
454268673,0.50,-0.63,0.58
454270695,0.50,-0.63,0.58
454272748,0.50,-0.63,0.58
454274688,0.50,-0.63,0.58
454276661,0.50,-0.62,0.57
454278663,0.50,-0.62,0.57
454280663,0.50,-0.62,0.57
454282662,0.50,-0.62,0.57
454284713,0.50,-0.62,0.57
454286695,0.50,-0.62,0.57
454288665,0.50,-0.63,0.57
454290732,0.50,-0.63,0.57
454292807,0.50,-0.63,0.57
454294712,0.50,-0.63,0.57
454296708,0.50,-0.63,0.57
454298726,0.50,-0.63,0.59
454300738,0.50,-0.63,0.59
454302739,0.50,-0.63,0.59
454304711,0.50,-0.63,0.59
454306706,0.50,-0.63,0.59
454308703,0.50,-0.62,0.58
454310662,0.50,-0.62,0.58
454312666,0.50,-0.62,0.58
454314691,0.50,-0.62,0.58
454316824,0.50,-0.62,0.58
454318684,0.50,-0.62,0.58
454320661,0.50,-0.62,0.58
454322663,0.50,-0.62,0.58
454324722,0.50,-0.62,0.58
454326694,0.50,-0.62,0.58
454328662,0.50,-0.62,0.58
454330729,0.50,-0.62,0.58
454332707,0.50,-0.62,0.58
454334707,0.50,-0.62,0.58
454336741,0.50,-0.62,0.58
454338736,0.50,-0.63,0.58
454340713,0.50,-0.63,0.58
454342811,0.50,-0.63,0.58
454344712,0.50,-0.63,0.58
454346776,0.50,-0.63,0.58
454348731,0.51,-0.64,0.59
454350708,0.51,-0.64,0.59
454352662,0.51,-0.64,0.59
454354668,0.51,-0.64,0.59
454356738,0.51,-0.64,0.59
454358666,0.50,-0.63,0.58
454360663,0.50,-0.63,0.58
454362670,0.50,-0.63,0.58
454364655,0.50,-0.63,0.58
454366759,0.50,-0.63,0.58
454368664,0.50,-0.63,0.58
454370722,0.50,-0.63,0.58
454372744,0.50,-0.63,0.58
454374735,0.50,-0.63,0.58
454376712,0.50,-0.63,0.58
454378708,0.50,-0.63,0.58
454380714,0.50,-0.63,0.59
454382727,0.50,-0.63,0.59
454384715,0.50,-0.63,0.59
454386713,0.50,-0.63,0.59
454388701,0.50,-0.63,0.59
454390664,0.50,-0.62,0.57
454392773,0.50,-0.62,0.57
454394671,0.50,-0.62,0.57
454396663,0.50,-0.62,0.57
454398668,0.50,-0.62,0.57
454400707,0.51,-0.62,0.57
454402716,0.51,-0.62,0.57
454404675,0.51,-0.62,0.57
454406761,0.51,-0.62,0.57
454408692,0.51,-0.62,0.57
454410715,0.50,-0.62,0.57
454412707,0.50,-0.62,0.57
454414704,0.50,-0.62,0.57
454416813,0.50,-0.62,0.57
454418716,0.50,-0.62,0.57
454420709,0.50,-0.62,0.57
454422710,0.50,-0.62,0.57
454424665,0.50,-0.62,0.57
454426687,0.50,-0.62,0.57
454428666,0.50,-0.62,0.57
454430663,0.50,-0.63,0.57
454432654,0.50,-0.63,0.57
454434663,0.50,-0.63,0.57
454436671,0.50,-0.63,0.57
454438759,0.50,-0.63,0.57
454440686,0.51,-0.63,0.58
454442768,0.51,-0.63,0.58
454444666,0.51,-0.63,0.58
454446654,0.51,-0.63,0.58
454448661,0.51,-0.63,0.58
454450720,0.51,-0.63,0.58
454452712,0.50,-0.62,0.58
454454708,0.50,-0.62,0.58
454456713,0.50,-0.62,0.58
454458707,0.50,-0.62,0.58
454460704,0.50,-0.62,0.58
454462696,0.50,-0.63,0.58
454464661,0.50,-0.63,0.58
454466756,0.50,-0.63,0.58
454468834,0.50,-0.63,0.58
454470690,0.50,-0.63,0.58
454472655,0.50,-0.63,0.59
454474663,0.50,-0.63,0.59
454476678,0.50,-0.63,0.59
454478654,0.50,-0.63,0.59
454480653,0.50,-0.63,0.59
454482669,0.50,-0.63,0.58
454484718,0.50,-0.63,0.58
454486683,0.50,-0.63,0.58
454488652,0.50,-0.63,0.58
454490718,0.50,-0.63,0.58
454492826,0.50,-0.63,0.58
454494713,0.50,-0.63,0.58
454496719,0.50,-0.63,0.58
454498735,0.50,-0.63,0.58
454500716,0.50,-0.63,0.58
454502729,0.50,-0.63,0.58
454504717,0.50,-0.63,0.58
454506736,0.50,-0.63,0.58
454508736,0.50,-0.63,0.58
454510716,0.50,-0.63,0.58
454512702,0.50,-0.63,0.58
454514661,0.50,-0.63,0.58
454516759,0.50,-0.63,0.58
454518672,0.50,-0.63,0.58
454520669,0.50,-0.63,0.58
454522666,0.50,-0.62,0.57
454524677,0.50,-0.62,0.57
454526744,0.50,-0.62,0.57
454528692,0.50,-0.62,0.57
454530716,0.50,-0.62,0.57
454532712,0.50,-0.62,0.57
454534726,0.50,-0.62,0.57
454536717,0.50,-0.62,0.57
454538703,0.50,-0.62,0.57
454540704,0.50,-0.62,0.57
454542814,0.50,-0.62,0.57
454544713,0.50,-0.62,0.57
454546729,0.50,-0.62,0.57
454548680,0.50,-0.62,0.57
454550667,0.50,-0.62,0.57
454552661,0.50,-0.62,0.57
454554651,0.50,-0.62,0.57
454556661,0.50,-0.62,0.57
454558680,0.50,-0.62,0.57
454560654,0.50,-0.62,0.57
454562653,0.50,-0.62,0.57
454564655,0.50,-0.62,0.57
454566779,0.50,-0.62,0.57
454568718,0.50,-0.62,0.57
454570732,0.50,-0.62,0.57
454572720,0.50,-0.62,0.57
454574705,0.50,-0.62,0.57
454576712,0.50,-0.62,0.57
454578737,0.50,-0.62,0.57
454580711,0.50,-0.62,0.57
454582705,0.50,-0.62,0.57
454584716,0.50,-0.62,0.58
454586713,0.50,-0.62,0.58
454588665,0.50,-0.62,0.58
454590670,0.50,-0.62,0.58
454592777,0.50,-0.62,0.58
454594654,0.50,-0.63,0.58
454596663,0.50,-0.63,0.58
454598664,0.50,-0.63,0.58
454600665,0.50,-0.63,0.58
454602742,0.50,-0.63,0.58
454604718,0.50,-0.63,0.59
454606706,0.50,-0.63,0.59
454608662,0.50,-0.63,0.59
454610734,0.50,-0.63,0.59
454612770,0.50,-0.63,0.59
454614752,0.50,-0.64,0.59
454616821,0.50,-0.64,0.59
454618717,0.50,-0.64,0.59
454620714,0.50,-0.64,0.59
454622718,0.50,-0.64,0.59
454624796,0.50,-0.64,0.59
454626720,0.50,-0.62,0.57
454628705,0.50,-0.62,0.57
454630669,0.50,-0.62,0.57
454632664,0.50,-0.62,0.57
454634663,0.50,-0.62,0.57
454636651,0.50,-0.62,0.58
454638663,0.50,-0.62,0.58
454640655,0.50,-0.62,0.58
454642834,0.50,-0.62,0.58
454644703,0.50,-0.62,0.58
454646664,0.50,-0.63,0.59
454648655,0.50,-0.63,0.59
454650747,0.50,-0.63,0.59
454652761,0.50,-0.63,0.59
454654725,0.50,-0.63,0.59
454656701,0.50,-0.62,0.58
454658709,0.50,-0.62,0.58
454660734,0.50,-0.62,0.58
454662718,0.50,-0.62,0.58
454664715,0.50,-0.62,0.58
454666812,0.50,-0.62,0.57
454668734,0.50,-0.62,0.57
454670704,0.50,-0.62,0.57
454672666,0.50,-0.62,0.57
454674662,0.50,-0.62,0.57
454676669,0.50,-0.62,0.58
454678717,0.50,-0.62,0.58
454680667,0.50,-0.62,0.58
454682663,0.50,-0.62,0.58
454684664,0.50,-0.62,0.58
454686675,0.50,-0.63,0.59
454688667,0.50,-0.63,0.59
454690728,0.50,-0.63,0.59
454692823,0.50,-0.63,0.59
454694713,0.50,-0.63,0.59
454696716,0.50,-0.63,0.59
454698722,0.50,-0.63,0.58
454700734,0.50,-0.63,0.58
454702731,0.50,-0.63,0.58
454704707,0.50,-0.63,0.58
454706701,0.50,-0.63,0.58
454708732,0.50,-0.62,0.57
454710709,0.50,-0.62,0.57
454712666,0.50,-0.62,0.57
454714664,0.50,-0.62,0.57
454716654,0.50,-0.62,0.57
454718672,0.50,-0.63,0.58
454720670,0.50,-0.63,0.58
454722673,0.50,-0.63,0.58
454724729,0.50,-0.63,0.58
454726673,0.50,-0.63,0.58
454728654,0.50,-0.63,0.58
454730716,0.50,-0.63,0.58
454732706,0.50,-0.63,0.58
454734707,0.50,-0.63,0.58
454736709,0.50,-0.63,0.58
454738743,0.50,-0.63,0.59
454740719,0.50,-0.63,0.59
454742806,0.50,-0.63,0.59
454744713,0.50,-0.63,0.59
454746661,0.50,-0.63,0.59
454748670,0.50,-0.63,0.59
454750654,0.50,-0.63,0.59
454752664,0.50,-0.63,0.59
454754671,0.50,-0.63,0.59
454756771,0.50,-0.63,0.59
454758685,0.50,-0.63,0.58
454760667,0.50,-0.63,0.58
454762652,0.50,-0.63,0.58
454764677,0.50,-0.63,0.58
454766814,0.50,-0.63,0.58
454768667,0.50,-0.62,0.58
454770731,0.50,-0.62,0.58
454772707,0.50,-0.62,0.58
454774710,0.50,-0.62,0.58
454776722,0.50,-0.62,0.58
454778723,0.50,-0.62,0.58
454780710,0.50,-0.63,0.57
454782707,0.50,-0.63,0.57
454784718,0.50,-0.63,0.57
454786708,0.50,-0.63,0.57
454788804,0.50,-0.63,0.57
454790704,0.50,-0.62,0.58
454792775,0.50,-0.62,0.58
454794665,0.50,-0.62,0.58
454796664,0.50,-0.62,0.58
454798654,0.50,-0.62,0.58
454800668,0.50,-0.63,0.58
454802706,0.50,-0.63,0.58
454804687,0.50,-0.63,0.58
454806714,0.50,-0.63,0.58
454808665,0.50,-0.63,0.58
454810739,0.50,-0.63,0.58
454812713,0.50,-0.63,0.58
454814710,0.50,-0.63,0.58
454816817,0.50,-0.63,0.58
454818713,0.50,-0.63,0.58
454820715,0.50,-0.62,0.58
454822818,0.50,-0.62,0.58
454824727,0.50,-0.62,0.58
454826712,0.50,-0.62,0.58
454828707,0.50,-0.62,0.58
454830678,0.50,-0.62,0.57
454832733,0.50,-0.62,0.57
454834678,0.50,-0.62,0.57
454836663,0.50,-0.62,0.57
454838690,0.50,-0.62,0.57
454840707,0.50,-0.62,0.58
454842775,0.50,-0.62,0.58
454844662,0.50,-0.62,0.58
454846652,0.50,-0.62,0.58
454848663,0.50,-0.62,0.58
454850725,0.50,-0.63,0.58
454852708,0.50,-0.63,0.58
454854703,0.50,-0.63,0.58
454856712,0.50,-0.63,0.58
454858708,0.50,-0.63,0.58
454860712,0.50,-0.63,0.58
454862714,0.50,-0.63,0.59
454864679,0.50,-0.63,0.59
454866751,0.50,-0.63,0.59
454868667,0.50,-0.63,0.59
454870665,0.50,-0.63,0.59
454872731,0.50,-0.62,0.57
454874707,0.50,-0.62,0.57
454876664,0.50,-0.62,0.57
454878652,0.50,-0.62,0.57
454880664,0.50,-0.62,0.57
454882653,0.50,-0.63,0.59
454884718,0.50,-0.63,0.59
454886680,0.50,-0.63,0.59
454888662,0.50,-0.63,0.59
454890725,0.50,-0.63,0.59
454892812,0.50,-0.62,0.57
454894711,0.50,-0.62,0.57
454896719,0.50,-0.62,0.57
454898733,0.50,-0.62,0.57
454900726,0.50,-0.62,0.57
454902735,0.50,-0.63,0.58
454904716,0.50,-0.63,0.58
454906802,0.50,-0.63,0.58
454908718,0.50,-0.63,0.58
454910707,0.50,-0.63,0.58
454912698,0.50,-0.63,0.58
454914704,0.50,-0.63,0.58
454916823,0.50,-0.63,0.58
454918698,0.50,-0.63,0.58
454920662,0.50,-0.63,0.58
454922674,0.50,-0.63,0.58
454924713,0.50,-0.63,0.58
454926666,0.50,-0.63,0.58
454928665,0.50,-0.63,0.58
454930729,0.50,-0.63,0.58
454932712,0.50,-0.63,0.58
454934703,0.50,-0.63,0.58
454936708,0.50,-0.63,0.58
454938708,0.50,-0.63,0.58
454940699,0.50,-0.63,0.58
454942806,0.50,-0.63,0.58
454944673,0.50,-0.63,0.58
454946779,0.50,-0.63,0.58
454948689,0.50,-0.63,0.58
454950662,0.50,-0.63,0.58
454952667,0.50,-0.63,0.58
454954666,0.50,-0.63,0.58
454956669,0.50,-0.63,0.58
454958714,0.50,-0.63,0.58
454960662,0.50,-0.63,0.58
454962663,0.50,-0.63,0.58
454964655,0.50,-0.63,0.59
454966755,0.50,-0.63,0.59
454968667,0.50,-0.63,0.59
454970731,0.50,-0.63,0.59
454972709,0.50,-0.63,0.59
454974710,0.50,-0.63,0.59
454976713,0.50,-0.63,0.59
454978707,0.50,-0.63,0.59
454980783,0.50,-0.63,0.59
454982722,0.50,-0.63,0.59
454984705,0.50,-0.62,0.58
454986713,0.50,-0.62,0.58
454988662,0.50,-0.62,0.58
454990666,0.50,-0.62,0.58
454992801,0.50,-0.62,0.58
454994680,0.50,-0.62,0.58
454996668,0.50,-0.62,0.58
454998671,0.50,-0.62,0.58
455000677,0.50,-0.62,0.58
455002704,0.50,-0.62,0.58
455004685,0.50,-0.62,0.57
455006785,0.50,-0.62,0.57
455008696,0.50,-0.62,0.57
455010717,0.50,-0.62,0.57
455012712,0.50,-0.62,0.57
455014715,0.50,-0.62,0.58
455016827,0.50,-0.62,0.58
455018715,0.50,-0.62,0.58
455020714,0.50,-0.62,0.58
455022714,0.50,-0.62,0.58
455024709,0.50,-0.62,0.57
455026670,0.50,-0.62,0.57
455028667,0.50,-0.62,0.57
455030675,0.50,-0.62,0.57
455032678,0.50,-0.62,0.57
455034676,0.50,-0.62,0.57
455036679,0.50,-0.62,0.58
455038731,0.50,-0.62,0.58
455040710,0.50,-0.62,0.58
455042771,0.50,-0.62,0.58
455044672,0.50,-0.62,0.58
455046666,0.50,-0.63,0.59
455048670,0.50,-0.63,0.59
455050714,0.50,-0.63,0.59
455052712,0.50,-0.63,0.59
455054715,0.50,-0.63,0.59
455056711,0.50,-0.62,0.58
455058716,0.50,-0.62,0.58
455060788,0.50,-0.62,0.58
455062740,0.50,-0.62,0.58
455064714,0.50,-0.62,0.58
455066803,0.50,-0.63,0.58
455068677,0.50,-0.63,0.58
455070703,0.50,-0.63,0.58
455072737,0.50,-0.63,0.58
455074686,0.50,-0.63,0.58
455076668,0.50,-0.63,0.59
455078665,0.50,-0.63,0.59
455080715,0.50,-0.63,0.59
455082675,0.50,-0.63,0.59
455084675,0.50,-0.63,0.59
455086684,0.50,-0.62,0.59
455088667,0.50,-0.62,0.59
455090730,0.50,-0.62,0.59
455092825,0.50,-0.62,0.59
455094715,0.50,-0.62,0.59
455096714,0.50,-0.63,0.59
455098705,0.50,-0.63,0.59
455100710,0.50,-0.63,0.59
455102725,0.50,-0.63,0.59
455104716,0.50,-0.63,0.59
455106747,0.50,-0.63,0.59
455108694,0.50,-0.63,0.59
455110672,0.50,-0.63,0.59
455112675,0.50,-0.63,0.59
455114677,0.50,-0.63,0.59
455116783,0.50,-0.63,0.59
455118716,0.50,-0.63,0.60
455120718,0.50,-0.63,0.60
455122675,0.50,-0.63,0.60
455124672,0.50,-0.63,0.60
455126666,0.50,-0.63,0.60
455128668,0.50,-0.62,0.58
455130732,0.50,-0.62,0.58
455132719,0.50,-0.62,0.58
455134706,0.50,-0.62,0.58
455136718,0.50,-0.62,0.58
455138754,0.50,-0.62,0.58
455140721,0.50,-0.62,0.58
455142803,0.50,-0.62,0.58
455144712,0.50,-0.62,0.58
455146725,0.50,-0.62,0.58
455148726,0.50,-0.62,0.58
455150685,0.50,-0.62,0.58
455152668,0.50,-0.62,0.58
455154675,0.50,-0.62,0.58
455156678,0.50,-0.62,0.58
455158670,0.50,-0.62,0.58
455160670,0.50,-0.62,0.58
455162671,0.50,-0.62,0.58
455164676,0.50,-0.62,0.58
455166759,0.50,-0.62,0.58
455168677,0.50,-0.62,0.58
455170738,0.50,-0.62,0.58
455172728,0.50,-0.62,0.58
455174714,0.50,-0.62,0.58
455176705,0.50,-0.62,0.58
455178730,0.50,-0.63,0.58
455180736,0.50,-0.63,0.58
455182712,0.50,-0.63,0.58
455184716,0.50,-0.63,0.58
455186713,0.50,-0.63,0.58
455188714,0.50,-0.63,0.58
455190674,0.50,-0.63,0.58
455192779,0.50,-0.63,0.58
455194717,0.50,-0.63,0.58
455196687,0.50,-0.63,0.58
455198654,0.50,-0.63,0.58
455200744,0.50,-0.63,0.57
455202712,0.50,-0.63,0.57
455204667,0.50,-0.63,0.57
455206665,0.50,-0.63,0.57
455208665,0.50,-0.63,0.57
455210727,0.50,-0.63,0.58
455212733,0.50,-0.63,0.58
455214728,0.50,-0.63,0.58
455216822,0.50,-0.63,0.58
455218709,0.50,-0.63,0.58
455220718,0.50,-0.62,0.58
455222717,0.50,-0.62,0.58
455224742,0.50,-0.62,0.58
455226724,0.50,-0.62,0.58
455228706,0.50,-0.62,0.58
455230705,0.50,-0.63,0.58
455232715,0.50,-0.63,0.58
455234714,0.50,-0.63,0.58
455236665,0.50,-0.63,0.58
455238665,0.50,-0.63,0.58
455240675,0.49,-0.63,0.59
455242811,0.49,-0.63,0.59
455244664,0.49,-0.63,0.59
455246670,0.49,-0.63,0.59
455248669,0.49,-0.63,0.59
455250722,0.50,-0.62,0.59
455252708,0.50,-0.62,0.59
455254713,0.50,-0.62,0.59
455256729,0.50,-0.62,0.59
455258745,0.50,-0.62,0.59
455260716,0.50,-0.63,0.58
455262706,0.50,-0.63,0.58
455264705,0.50,-0.63,0.58
455266827,0.50,-0.63,0.58
455268726,0.50,-0.63,0.58
455270692,0.50,-0.62,0.59
455272663,0.50,-0.62,0.59
455274665,0.50,-0.62,0.59
455276664,0.50,-0.62,0.59
455278674,0.50,-0.62,0.59
455280666,0.50,-0.62,0.59
455282721,0.50,-0.62,0.58
455284712,0.50,-0.62,0.58
455286685,0.50,-0.62,0.58
455288666,0.50,-0.62,0.58
455290744,0.50,-0.62,0.58
455292834,0.50,-0.63,0.58
455294717,0.50,-0.63,0.58
455296710,0.50,-0.63,0.58
455298729,0.50,-0.63,0.58
455300737,0.50,-0.63,0.58
455302735,0.50,-0.64,0.59
455304710,0.50,-0.64,0.59
455306708,0.50,-0.64,0.59
455308712,0.50,-0.64,0.59
455310692,0.50,-0.64,0.59
455312665,0.50,-0.62,0.57
455314662,0.50,-0.62,0.57
455316757,0.50,-0.62,0.57
455318677,0.50,-0.62,0.57
455320667,0.50,-0.62,0.57
455322706,0.50,-0.63,0.57
455324650,0.50,-0.63,0.57
455326650,0.50,-0.63,0.57
455328663,0.50,-0.63,0.57
455330717,0.50,-0.63,0.57
455332700,0.50,-0.63,0.57
455334707,0.50,-0.63,0.57
455336709,0.50,-0.63,0.57
455338715,0.50,-0.63,0.57
455340705,0.50,-0.63,0.57
455342779,0.50,-0.62,0.57
455344679,0.50,-0.62,0.57
455346665,0.50,-0.62,0.57
455348653,0.50,-0.62,0.57
455350664,0.50,-0.62,0.57
455352666,0.50,-0.63,0.58
455354663,0.50,-0.63,0.58
455356662,0.50,-0.63,0.58
455358665,0.50,-0.63,0.58
455360665,0.50,-0.63,0.58
455362661,0.50,-0.63,0.58
455364662,0.50,-0.63,0.59
455366726,0.50,-0.63,0.59
455368665,0.50,-0.63,0.59
455370708,0.50,-0.63,0.59
455372716,0.50,-0.63,0.59
455374745,0.50,-0.63,0.59
455376735,0.50,-0.63,0.59
455378714,0.50,-0.63,0.59
455380704,0.50,-0.63,0.59
455382698,0.50,-0.63,0.59
455384714,0.50,-0.63,0.58
455386676,0.50,-0.63,0.58
455388664,0.50,-0.63,0.58
455390728,0.50,-0.63,0.58
455392790,0.50,-0.63,0.58
455394666,0.50,-0.63,0.58
455396652,0.50,-0.63,0.58
455398664,0.50,-0.63,0.58
455400655,0.50,-0.63,0.58
455402706,0.50,-0.63,0.58
455404718,0.50,-0.63,0.57
455406665,0.50,-0.63,0.57
455408661,0.50,-0.63,0.57
455410732,0.50,-0.63,0.57
455412710,0.50,-0.63,0.57
455414706,0.50,-0.64,0.59
455416811,0.50,-0.64,0.59
455418745,0.50,-0.64,0.59
455420735,0.50,-0.64,0.59
455422713,0.50,-0.64,0.59
455424704,0.50,-0.64,0.60
455426708,0.50,-0.64,0.60
455428702,0.50,-0.64,0.60
455430742,0.50,-0.64,0.60
455432699,0.50,-0.64,0.60
455434667,0.50,-0.62,0.57
455436662,0.50,-0.62,0.57
455438680,0.50,-0.62,0.57
455440714,0.50,-0.62,0.57
455442772,0.50,-0.62,0.57
455444652,0.50,-0.62,0.57
455446653,0.50,-0.62,0.56
455448662,0.50,-0.62,0.56
455450725,0.50,-0.62,0.56
455452705,0.50,-0.62,0.56
455454705,0.50,-0.62,0.56
455456705,0.50,-0.62,0.57
455458703,0.50,-0.62,0.57
455460702,0.50,-0.62,0.57
455462703,0.50,-0.62,0.57
455464663,0.50,-0.62,0.57
455466750,0.50,-0.63,0.58
455468670,0.50,-0.63,0.58
455470666,0.50,-0.63,0.58
455472663,0.50,-0.63,0.58
455474687,0.50,-0.63,0.58
455476748,0.50,-0.63,0.58
455478692,0.50,-0.63,0.58
455480663,0.50,-0.63,0.58
455482654,0.50,-0.63,0.58
455484655,0.50,-0.63,0.58
455486688,0.50,-0.62,0.57
455488711,0.50,-0.62,0.57
455490738,0.50,-0.62,0.57
455492827,0.50,-0.62,0.57
455494706,0.50,-0.62,0.57
455496699,0.50,-0.63,0.59
455498784,0.50,-0.63,0.59
455500722,0.50,-0.63,0.59
455502730,0.50,-0.63,0.59
455504709,0.50,-0.63,0.59
455506741,0.50,-0.64,0.59
455508732,0.50,-0.64,0.59
455510714,0.50,-0.64,0.59
455512671,0.50,-0.64,0.59
455514665,0.50,-0.64,0.59
455516781,0.50,-0.62,0.58
455518744,0.50,-0.62,0.58
455520690,0.50,-0.62,0.58
455522662,0.50,-0.62,0.58
455524662,0.50,-0.62,0.58
455526689,0.50,-0.62,0.58
455528702,0.50,-0.62,0.58
455530727,0.50,-0.62,0.58
455532707,0.50,-0.62,0.58
455534697,0.50,-0.62,0.58
455536705,0.50,-0.62,0.58
455538801,0.50,-0.63,0.58
455540731,0.50,-0.63,0.58
455542806,0.50,-0.63,0.58
455544712,0.50,-0.63,0.58
455546740,0.50,-0.63,0.58
455548733,0.50,-0.64,0.59
455550684,0.50,-0.64,0.59
455552663,0.50,-0.64,0.59
455554664,0.50,-0.64,0.59
455556719,0.50,-0.64,0.59
455558663,0.50,-0.63,0.59
455560662,0.50,-0.63,0.59
455562663,0.50,-0.63,0.59
455564665,0.50,-0.63,0.59
455566761,0.50,-0.63,0.59
455568676,0.50,-0.63,0.58
455570731,0.50,-0.63,0.58
455572709,0.50,-0.63,0.58
455574703,0.50,-0.63,0.58
455576714,0.50,-0.63,0.58
455578716,0.50,-0.62,0.58
455580752,0.50,-0.62,0.58
455582719,0.50,-0.62,0.58
455584709,0.50,-0.62,0.58
455586714,0.50,-0.62,0.58
455588678,0.50,-0.62,0.58
455590734,0.50,-0.62,0.58
455592782,0.50,-0.62,0.58
455594665,0.50,-0.62,0.58
455596695,0.50,-0.62,0.58
455598711,0.50,-0.63,0.58
455600674,0.50,-0.63,0.58
455602703,0.50,-0.63,0.58
455604654,0.50,-0.63,0.58
455606680,0.50,-0.63,0.58
455608662,0.50,-0.63,0.58
455610726,0.50,-0.63,0.58
455612777,0.50,-0.63,0.58
455614712,0.50,-0.63,0.58
455616824,0.50,-0.63,0.58
455618712,0.50,-0.63,0.58
455620704,0.50,-0.63,0.58
455622702,0.50,-0.63,0.58
455624707,0.50,-0.63,0.58
455626673,0.50,-0.63,0.58
455628668,0.50,-0.63,0.58
455630712,0.50,-0.62,0.57
455632654,0.50,-0.62,0.57
455634664,0.50,-0.62,0.57
455636667,0.50,-0.62,0.57
455638662,0.50,-0.62,0.57
455640654,0.50,-0.62,0.57
455642759,0.50,-0.62,0.57
455644662,0.50,-0.62,0.57
455646667,0.50,-0.62,0.57
455648701,0.50,-0.62,0.57
455650757,0.50,-0.63,0.58
455652731,0.50,-0.63,0.58
455654707,0.50,-0.63,0.58
455656712,0.50,-0.63,0.58
455658705,0.50,-0.63,0.58
455660729,0.50,-0.62,0.59
455662733,0.50,-0.62,0.59
455664717,0.50,-0.62,0.59
455666816,0.50,-0.62,0.59
455668714,0.50,-0.62,0.59
455670663,0.49,-0.62,0.57
455672671,0.49,-0.62,0.57
455674665,0.49,-0.62,0.57
455676672,0.49,-0.62,0.57
455678671,0.49,-0.62,0.57
455680663,0.50,-0.63,0.59
455682666,0.50,-0.63,0.59
455684669,0.50,-0.63,0.59
455686740,0.50,-0.63,0.59
455688702,0.50,-0.63,0.59
455690667,0.50,-0.63,0.59
455652731,0.50,-0.63,0.58
455654707,0.50,-0.63,0.58
455656712,0.50,-0.63,0.58
455658705,0.50,-0.63,0.58
455660729,0.50,-0.62,0.59
455662733,0.50,-0.62,0.59
455664717,0.50,-0.62,0.59
455666816,0.50,-0.62,0.59
455668714,0.50,-0.62,0.59
455670663,0.49,-0.62,0.57
455672671,0.49,-0.62,0.57
455674665,0.49,-0.62,0.57
455676672,0.49,-0.62,0.57
