timestamp,accX,accY,accZ
27657743,0.05,-0.29,0.96
27659686,0.05,-0.29,0.96
27661686,0.05,-0.29,0.96
27663686,0.05,-0.29,0.96
27665685,0.05,-0.29,0.96
27667763,0.05,-0.29,0.96
27669682,0.05,-0.28,0.95
27671684,0.05,-0.28,0.95
27673687,0.05,-0.28,0.95
27675683,0.05,-0.28,0.95
27677688,0.05,-0.28,0.95
27679684,0.06,-0.26,0.94
27681685,0.06,-0.26,0.94
27683690,0.06,-0.26,0.94
27685688,0.06,-0.26,0.94
27687693,0.06,-0.26,0.94
27689685,0.05,-0.30,0.95
27691754,0.05,-0.30,0.95
27693680,0.05,-0.30,0.95
27695680,0.05,-0.30,0.95
27697780,0.05,-0.30,0.95
27699719,0.06,-0.29,0.95
27701714,0.06,-0.29,0.95
27703736,0.06,-0.29,0.95
27705717,0.06,-0.29,0.95
27707724,0.06,-0.29,0.95
27709767,0.06,-0.28,0.96
27711720,0.06,-0.28,0.96
27713717,0.06,-0.28,0.96
27715715,0.06,-0.28,0.96
27717789,0.06,-0.28,0.96
27719688,0.05,-0.29,0.94
27721800,0.05,-0.29,0.94
27723696,0.05,-0.29,0.94
27725683,0.05,-0.29,0.94
27727700,0.05,-0.29,0.94
27729721,0.06,-0.28,0.95
27731687,0.06,-0.28,0.95
27733683,0.06,-0.28,0.95
27735681,0.06,-0.28,0.95
27737744,0.06,-0.28,0.95
27739717,0.05,-0.28,0.95
27741816,0.05,-0.28,0.95
27743767,0.05,-0.28,0.95
27745735,0.05,-0.28,0.95
27747732,0.05,-0.28,0.95
27749720,0.06,-0.28,0.95
27751718,0.06,-0.28,0.95
27753715,0.06,-0.28,0.95
27755688,0.06,-0.28,0.95
27757686,0.06,-0.28,0.95
27759688,0.06,-0.28,0.95
27761686,0.06,-0.27,0.95
27763690,0.06,-0.27,0.95
27765738,0.06,-0.27,0.95
27767840,0.06,-0.27,0.95
27769684,0.06,-0.27,0.95
27771683,0.06,-0.27,0.95
27773693,0.06,-0.27,0.95
27775674,0.06,-0.27,0.95
27777726,0.06,-0.27,0.95
27779716,0.06,-0.27,0.95
27781773,0.06,-0.27,0.95
27783735,0.06,-0.27,0.95
27785715,0.06,-0.27,0.95
27787716,0.06,-0.27,0.95
27789719,0.06,-0.27,0.95
27791817,0.05,-0.28,0.96
27793682,0.05,-0.28,0.96
27795678,0.05,-0.28,0.96
27797676,0.05,-0.28,0.96
27799676,0.05,-0.28,0.96
27801681,0.05,-0.27,0.95
27803714,0.05,-0.27,0.95
27805681,0.05,-0.27,0.95
27807675,0.05,-0.27,0.95
27809679,0.05,-0.27,0.95
27811676,0.05,-0.27,0.96
27813697,0.05,-0.27,0.96
27815671,0.05,-0.27,0.96
27817808,0.05,-0.27,0.96
27819715,0.05,-0.27,0.96
27821715,0.05,-0.27,0.95
27823718,0.05,-0.27,0.95
27825715,0.05,-0.27,0.95
27827715,0.05,-0.27,0.95
27829681,0.05,-0.27,0.95
27831682,0.05,-0.28,0.96
27833672,0.05,-0.28,0.96
27835680,0.05,-0.28,0.96
27837683,0.05,-0.28,0.96
27839679,0.05,-0.28,0.96
27841752,0.05,-0.28,0.96
27843682,0.05,-0.27,0.96
27845682,0.05,-0.27,0.96
27847709,0.05,-0.27,0.96
27849674,0.05,-0.27,0.96
27851673,0.05,-0.27,0.96
27853693,0.05,-0.27,0.95
27855815,0.05,-0.27,0.95
27857736,0.05,-0.27,0.95
27859717,0.05,-0.27,0.95
27861716,0.05,-0.27,0.95
27863716,0.05,-0.27,0.95
27865716,0.05,-0.27,0.95
27867826,0.05,-0.27,0.95
27869715,0.05,-0.27,0.95
27871679,0.05,-0.27,0.95
27873681,0.05,-0.27,0.96
27875683,0.05,-0.27,0.96
27877675,0.05,-0.27,0.96
27879671,0.05,-0.27,0.96
27881678,0.05,-0.27,0.96
27883681,0.05,-0.28,0.96
27885682,0.05,-0.28,0.96
27887695,0.05,-0.28,0.96
27889755,0.05,-0.28,0.96
27891812,0.05,-0.28,0.96
27893680,0.05,-0.27,0.96
27895669,0.05,-0.27,0.96
27897732,0.05,-0.27,0.96
27899722,0.05,-0.27,0.96
27901752,0.05,-0.27,0.96
27903724,0.05,-0.27,0.96
27905721,0.05,-0.27,0.96
27907734,0.05,-0.27,0.96
27909742,0.05,-0.27,0.96
27911741,0.05,-0.27,0.96
27913716,0.05,-0.27,0.95
27915715,0.05,-0.27,0.95
27917782,0.05,-0.27,0.95
27919762,0.05,-0.27,0.95
27921707,0.05,-0.27,0.95
27923674,0.05,-0.27,0.95
27925669,0.05,-0.27,0.95
27927716,0.05,-0.27,0.95
27929676,0.05,-0.27,0.95
27931675,0.05,-0.27,0.95
27933679,0.05,-0.27,0.95
27935674,0.05,-0.27,0.96
27937739,0.05,-0.27,0.96
27939718,0.05,-0.27,0.96
27941819,0.05,-0.27,0.96
27943718,0.05,-0.27,0.96
27945743,0.05,-0.27,0.96
27947734,0.05,-0.27,0.96
27949726,0.05,-0.27,0.96
27951722,0.05,-0.27,0.96
27953713,0.05,-0.27,0.96
27955684,0.05,-0.25,0.95
27957679,0.05,-0.25,0.95
27959679,0.05,-0.25,0.95
27961679,0.05,-0.25,0.95
27963680,0.05,-0.25,0.95
27965680,0.05,-0.27,0.97
27967784,0.05,-0.27,0.97
27969757,0.05,-0.27,0.97
27971702,0.05,-0.27,0.97
27973678,0.05,-0.27,0.97
27975676,0.04,-0.25,0.96
27977725,0.04,-0.25,0.96
27979718,0.04,-0.25,0.96
27981719,0.04,-0.25,0.96
27983744,0.04,-0.25,0.96
27985723,0.05,-0.26,0.95
27987717,0.05,-0.26,0.95
27989717,0.05,-0.26,0.95
27991815,0.05,-0.26,0.95
27993685,0.05,-0.26,0.95
27995679,0.05,-0.28,0.95
27997687,0.05,-0.28,0.95
27999792,0.05,-0.28,0.95
28001698,0.05,-0.28,0.95
28003675,0.05,-0.28,0.95
28005675,0.05,-0.28,0.93
28007700,0.05,-0.28,0.93
28009718,0.05,-0.28,0.93
28011669,0.05,-0.28,0.93
28013669,0.05,-0.28,0.93
28015666,0.05,-0.27,0.98
28017840,0.05,-0.27,0.98
28019714,0.05,-0.27,0.98
28021721,0.05,-0.27,0.98
28023756,0.05,-0.27,0.98
28025725,0.05,-0.27,0.98
28027715,0.05,-0.27,0.95
28029715,0.05,-0.27,0.95
28031716,0.05,-0.27,0.95
28033767,0.05,-0.27,0.95
28035718,0.05,-0.27,0.95
28037679,0.05,-0.27,0.95
28039681,0.05,-0.27,0.95
28041775,0.05,-0.27,0.95
28043684,0.05,-0.27,0.95
28045741,0.05,-0.27,0.95
28047717,0.05,-0.27,0.96
28049686,0.05,-0.27,0.96
28051717,0.05,-0.27,0.96
28053719,0.05,-0.27,0.96
28055679,0.05,-0.27,0.96
28057735,0.05,-0.27,0.95
28059718,0.05,-0.27,0.95
28061723,0.05,-0.27,0.95
28063744,0.05,-0.27,0.95
28065719,0.05,-0.27,0.95
28067812,0.05,-0.27,0.95
28069718,0.05,-0.27,0.95
28071747,0.05,-0.27,0.95
28073720,0.05,-0.27,0.95
28075713,0.05,-0.27,0.95
28077682,0.05,-0.27,0.95
28079680,0.05,-0.27,0.95
28081714,0.05,-0.27,0.95
28083747,0.05,-0.27,0.95
28085694,0.05,-0.27,0.95
28087686,0.05,-0.26,0.95
28089673,0.05,-0.26,0.95
28091777,0.05,-0.26,0.95
28093683,0.05,-0.26,0.95
28095675,0.05,-0.26,0.95
28097720,0.05,-0.27,0.95
28099716,0.05,-0.27,0.95
28101712,0.05,-0.27,0.95
28103715,0.05,-0.27,0.95
28105716,0.05,-0.27,0.95
28107718,0.05,-0.27,0.96
28109690,0.05,-0.27,0.96
28111712,0.05,-0.27,0.96
28113679,0.05,-0.27,0.96
28115698,0.05,-0.27,0.96
28117762,0.05,-0.27,0.96
28119679,0.05,-0.27,0.96
28121675,0.05,-0.27,0.96
28123674,0.05,-0.27,0.96
28125701,0.05,-0.27,0.96
28127758,0.05,-0.27,0.96
28129699,0.04,-0.27,0.96
28131679,0.04,-0.27,0.96
28133675,0.04,-0.27,0.96
28135669,0.04,-0.27,0.96
28137727,0.04,-0.27,0.96
28139744,0.04,-0.27,0.95
28141822,0.04,-0.27,0.95
28143715,0.04,-0.27,0.95
28145724,0.04,-0.27,0.95
28147741,0.04,-0.27,0.95
28149724,0.06,-0.27,0.96
28151728,0.06,-0.27,0.96
28153715,0.06,-0.27,0.96
28155707,0.06,-0.27,0.96
28157673,0.06,-0.27,0.96
28159667,0.05,-0.27,0.95
28161670,0.05,-0.27,0.95
28163682,0.05,-0.27,0.95
28165668,0.05,-0.27,0.95
28167779,0.05,-0.27,0.95
28169685,0.06,-0.27,0.95
28171764,0.06,-0.27,0.95
28173693,0.06,-0.27,0.95
28175669,0.06,-0.27,0.95
28177718,0.06,-0.27,0.95
28179718,0.05,-0.27,0.95
28181743,0.05,-0.27,0.95
28183723,0.05,-0.27,0.95
28185720,0.05,-0.27,0.95
28187715,0.05,-0.27,0.95
28189718,0.05,-0.27,0.95
28191816,0.05,-0.27,0.95
28193845,0.05,-0.27,0.95
28195698,0.05,-0.27,0.95
28197668,0.05,-0.27,0.95
28199673,0.05,-0.27,0.95
28201674,0.05,-0.28,0.95
28203719,0.05,-0.28,0.95
28205679,0.05,-0.28,0.95
28207671,0.05,-0.28,0.95
28209671,0.05,-0.28,0.95
28211683,0.05,-0.27,0.95
28213704,0.05,-0.27,0.95
28215675,0.05,-0.27,0.95
28217833,0.05,-0.27,0.95
28219715,0.05,-0.27,0.95
28221713,0.05,-0.28,0.96
28223764,0.05,-0.28,0.96
28225743,0.05,-0.28,0.96
28227713,0.05,-0.28,0.96
28229715,0.05,-0.28,0.96
28231732,0.05,-0.27,0.95
28233746,0.05,-0.27,0.95
28235716,0.05,-0.27,0.95
28237683,0.05,-0.27,0.95
28239676,0.05,-0.27,0.95
28241810,0.06,-0.28,0.95
28243743,0.06,-0.28,0.95
28245696,0.06,-0.28,0.95
28247679,0.06,-0.28,0.95
28249700,0.06,-0.28,0.95
28251731,0.05,-0.27,0.95
28253668,0.05,-0.27,0.95
28255674,0.05,-0.27,0.95
28257739,0.05,-0.27,0.95
28259713,0.05,-0.27,0.95
28261716,0.05,-0.28,0.95
28263716,0.05,-0.28,0.95
28265719,0.05,-0.28,0.95
28267823,0.05,-0.28,0.95
28269715,0.05,-0.28,0.95
28271674,0.05,-0.27,0.95
28273679,0.05,-0.27,0.95
28275675,0.05,-0.27,0.95
28277676,0.05,-0.27,0.95
28279681,0.05,-0.27,0.95
28281682,0.05,-0.28,0.95
28283686,0.05,-0.28,0.95
28285756,0.05,-0.28,0.95
28287716,0.05,-0.28,0.95
28289675,0.05,-0.28,0.95
28291774,0.05,-0.28,0.95
28293679,0.05,-0.29,0.95
28295679,0.05,-0.29,0.95
28297722,0.05,-0.29,0.95
28299713,0.05,-0.29,0.95
28301718,0.05,-0.29,0.95
28303747,0.06,-0.28,0.95
28305722,0.06,-0.28,0.95
28307717,0.06,-0.28,0.95
28309714,0.06,-0.28,0.95
28311718,0.06,-0.28,0.95
28313679,0.06,-0.28,0.95
28315744,0.06,-0.28,0.95
28317854,0.06,-0.28,0.95
28319679,0.06,-0.28,0.95
28321674,0.06,-0.28,0.95
28323686,0.06,-0.28,0.95
28325718,0.06,-0.28,0.95
28327679,0.06,-0.28,0.95
28329675,0.06,-0.28,0.95
28331676,0.06,-0.28,0.95
28333674,0.06,-0.28,0.95
28335674,0.06,-0.28,0.95
28337738,0.06,-0.28,0.95
28339716,0.06,-0.28,0.95
28341815,0.06,-0.28,0.95
28343759,0.05,-0.28,0.95
28345746,0.05,-0.28,0.95
28347717,0.05,-0.28,0.95
28349721,0.05,-0.28,0.95
28351740,0.05,-0.28,0.95
28353746,0.05,-0.28,0.95
28355721,0.05,-0.28,0.95
28357711,0.05,-0.28,0.95
28359687,0.05,-0.28,0.95
28361751,0.05,-0.28,0.95
28363687,0.05,-0.28,0.95
28365691,0.05,-0.28,0.95
28367772,0.05,-0.28,0.95
28369680,0.05,-0.28,0.95
28371675,0.05,-0.28,0.95
28373674,0.05,-0.28,0.95
28375672,0.05,-0.28,0.95
28377730,0.05,-0.28,0.95
28379781,0.05,-0.28,0.95
28381725,0.05,-0.28,0.95
28383715,0.05,-0.28,0.95
28385716,0.04,-0.26,0.94
28387717,0.04,-0.26,0.94
28389716,0.04,-0.26,0.94
28391820,0.04,-0.26,0.94
28393776,0.04,-0.26,0.94
28395698,0.07,-0.28,0.96
28397671,0.07,-0.28,0.96
28399672,0.07,-0.28,0.96
28401676,0.07,-0.28,0.96
28403673,0.07,-0.28,0.96
28405669,0.04,-0.33,0.97
28407672,0.04,-0.33,0.97
28409677,0.04,-0.33,0.97
28411679,0.04,-0.33,0.97
28413719,0.04,-0.33,0.97
28415669,0.05,-0.29,0.96
28417853,0.05,-0.29,0.96
28419731,0.05,-0.29,0.96
28421717,0.05,-0.29,0.96
28423716,0.05,-0.29,0.96
28425749,0.05,-0.28,0.96
28427740,0.05,-0.28,0.96
28429715,0.05,-0.28,0.96
28431719,0.05,-0.28,0.96
28433730,0.05,-0.28,0.96
28435763,0.04,-0.24,0.93
28437697,0.04,-0.24,0.93
28439671,0.04,-0.24,0.93
28441786,0.04,-0.24,0.93
28443717,0.04,-0.24,0.93
28445674,0.06,-0.29,0.96
28447668,0.06,-0.29,0.96
28449678,0.06,-0.29,0.96
28451710,0.06,-0.29,0.96
28453672,0.06,-0.29,0.96
28455671,0.05,-0.28,0.96
28457745,0.05,-0.28,0.96
28459716,0.05,-0.28,0.96
28461715,0.05,-0.28,0.96
28463764,0.05,-0.28,0.96
28465728,0.06,-0.29,0.97
28467805,0.06,-0.29,0.97
28469715,0.06,-0.29,0.97
28471761,0.06,-0.29,0.97
28473736,0.06,-0.29,0.97
28475717,0.06,-0.29,0.97
28477682,0.05,-0.28,0.96
28479706,0.05,-0.28,0.96
28481749,0.05,-0.28,0.96
28483689,0.05,-0.28,0.96
28485682,0.05,-0.28,0.96
28487731,0.05,-0.27,0.96
28489710,0.05,-0.27,0.96
28491772,0.05,-0.27,0.96
28493676,0.05,-0.27,0.96
28495667,0.05,-0.27,0.96
28497732,0.05,-0.27,0.95
28499717,0.05,-0.27,0.95
28501716,0.05,-0.27,0.95
28503717,0.05,-0.27,0.95
28505721,0.05,-0.27,0.95
28507750,0.05,-0.29,0.95
28509719,0.05,-0.29,0.95
28511711,0.05,-0.29,0.95
28513674,0.05,-0.29,0.95
28515679,0.05,-0.29,0.95
28517778,0.05,-0.29,0.95
28519710,0.05,-0.29,0.95
28521753,0.05,-0.29,0.95
28523710,0.05,-0.29,0.95
28525670,0.05,-0.29,0.95
28527671,0.05,-0.29,0.95
28529730,0.05,-0.29,0.95
28531691,0.05,-0.29,0.95
28533675,0.05,-0.29,0.95
28535675,0.05,-0.29,0.95
28537734,0.05,-0.29,0.95
28539716,0.05,-0.29,0.95
28541821,0.05,-0.29,0.95
28543768,0.05,-0.29,0.95
28545729,0.05,-0.29,0.95
28547715,0.05,-0.29,0.95
28549714,0.05,-0.29,0.95
28551765,0.05,-0.29,0.95
28553734,0.05,-0.29,0.95
28555715,0.05,-0.29,0.95
28557702,0.05,-0.29,0.95
28559679,0.04,-0.27,0.94
28561675,0.04,-0.27,0.94
28563676,0.04,-0.27,0.94
28565676,0.04,-0.27,0.94
28567777,0.04,-0.27,0.94
28569681,0.05,-0.23,0.94
28571678,0.05,-0.23,0.94
28573686,0.05,-0.23,0.94
28575797,0.05,-0.23,0.94
28577729,0.05,-0.23,0.94
28579714,0.03,-0.30,0.95
28581719,0.03,-0.30,0.95
28583747,0.03,-0.30,0.95
28585720,0.03,-0.30,0.95
28587715,0.03,-0.30,0.95
28589716,0.06,-0.31,0.97
28591811,0.06,-0.31,0.97
28593679,0.06,-0.31,0.97
28595714,0.06,-0.31,0.97
28597757,0.06,-0.31,0.97
28599696,0.06,-0.31,0.95
28601671,0.06,-0.31,0.95
28603671,0.06,-0.31,0.95
28605676,0.06,-0.31,0.95
28607676,0.06,-0.31,0.95
28609691,0.05,-0.29,0.95
28611717,0.05,-0.29,0.95
28613706,0.05,-0.29,0.95
28615678,0.05,-0.29,0.95
28617827,0.05,-0.29,0.95
28619704,0.09,-0.30,0.97
28621710,0.09,-0.30,0.97
28623729,0.09,-0.30,0.97
28625733,0.09,-0.30,0.97
28627714,0.09,-0.30,0.97
28629704,0.09,-0.36,0.92
28631716,0.09,-0.36,0.92
28633731,0.09,-0.36,0.92
28635712,0.09,-0.36,0.92
28637704,0.09,-0.36,0.92
28639692,0.06,-0.32,0.92
28641824,0.06,-0.32,0.92
28643666,0.06,-0.32,0.92
28645665,0.06,-0.32,0.92
28647712,0.06,-0.32,0.92
28649711,0.06,-0.32,0.92
28651712,0.10,-0.25,0.95
28653664,0.10,-0.25,0.95
28655663,0.10,-0.25,0.95
28657724,0.10,-0.25,0.95
28659709,0.10,-0.25,0.95
28661703,0.06,-0.29,0.90
28663700,0.06,-0.29,0.90
28665713,0.06,-0.29,0.90
28667849,0.06,-0.29,0.90
28669712,0.06,-0.29,0.90
28671706,0.04,-0.33,0.87
28673691,0.04,-0.33,0.87
28675731,0.04,-0.33,0.87
28677709,0.04,-0.33,0.87
28679666,0.04,-0.33,0.87
28681666,0.10,-0.29,0.95
28683667,0.10,-0.29,0.95
28685666,0.10,-0.29,0.95
28687682,0.10,-0.29,0.95
28689664,0.10,-0.29,0.95
28691688,0.07,-0.41,0.90
28693671,0.07,-0.41,0.90
28695669,0.07,-0.41,0.90
28697720,0.07,-0.41,0.90
28699708,0.07,-0.41,0.90
28701709,0.06,-0.39,0.93
28703705,0.06,-0.39,0.93
28705706,0.06,-0.39,0.93
28707704,0.06,-0.39,0.93
28709670,0.06,-0.39,0.93
28711666,0.07,-0.34,0.89
28713742,0.07,-0.34,0.89
28715698,0.07,-0.34,0.89
28717699,0.07,-0.34,0.89
28719663,0.07,-0.34,0.89
28721667,0.09,-0.43,0.92
28723688,0.09,-0.43,0.92
28725710,0.09,-0.43,0.92
28727715,0.09,-0.43,0.92
28729669,0.09,-0.43,0.92
28731664,0.08,-0.37,0.93
28733662,0.08,-0.37,0.93
28735662,0.08,-0.37,0.93
28737729,0.08,-0.37,0.93
28739711,0.08,-0.37,0.93
28741761,0.08,-0.37,0.93
28743772,0.11,-0.45,0.90
28745719,0.11,-0.45,0.90
28747709,0.11,-0.45,0.90
28749728,0.11,-0.45,0.90
28751736,0.11,-0.45,0.90
28753736,0.05,-0.23,0.88
28755708,0.05,-0.23,0.88
28757702,0.05,-0.23,0.88
28759731,0.05,-0.23,0.88
28761679,0.05,-0.23,0.88
28763662,0.09,-0.45,0.97
28765718,0.09,-0.45,0.97
28767715,0.09,-0.45,0.97
28769667,0.09,-0.45,0.97
28771667,0.09,-0.45,0.97
28773652,0.08,-0.38,0.90
28775662,0.08,-0.38,0.90
28777726,0.08,-0.38,0.90
28779709,0.08,-0.38,0.90
28781715,0.08,-0.38,0.90
28783733,0.08,-0.38,0.91
28785734,0.08,-0.38,0.91
28787712,0.08,-0.38,0.91
28789713,0.08,-0.38,0.91
28791748,0.08,-0.38,0.91
28793730,0.09,-0.39,0.91
28795703,0.09,-0.39,0.91
28797671,0.09,-0.39,0.91
28799665,0.09,-0.39,0.91
28801665,0.09,-0.39,0.91
28803665,0.07,-0.39,0.91
28805667,0.07,-0.39,0.91
28807737,0.07,-0.39,0.91
28809670,0.07,-0.39,0.91
28811671,0.07,-0.39,0.91
28813729,0.08,-0.41,0.84
28815675,0.08,-0.41,0.84
28817756,0.08,-0.41,0.84
28819711,0.08,-0.41,0.84
28821707,0.08,-0.41,0.84
28823706,0.07,-0.41,0.91
28825706,0.07,-0.41,0.91
28827729,0.07,-0.41,0.91
28829712,0.07,-0.41,0.91
28831714,0.07,-0.41,0.91
28833735,0.07,-0.41,0.91
28835683,0.07,-0.43,0.90
28837662,0.07,-0.43,0.90
28839662,0.07,-0.43,0.90
28841696,0.07,-0.43,0.90
28843715,0.07,-0.43,0.90
28845663,0.07,-0.43,0.88
28847651,0.07,-0.43,0.88
28849654,0.07,-0.43,0.88
28851665,0.07,-0.43,0.88
28853708,0.07,-0.43,0.88
28855665,0.08,-0.46,0.84
28857730,0.08,-0.46,0.84
28859707,0.08,-0.46,0.84
28861708,0.08,-0.46,0.84
28863709,0.08,-0.46,0.84
28865709,0.07,-0.45,0.90
28867722,0.07,-0.45,0.90
28869704,0.07,-0.45,0.90
28871664,0.07,-0.45,0.90
28873668,0.07,-0.45,0.90
28875814,0.05,-0.48,0.87
28877693,0.05,-0.48,0.87
28879653,0.05,-0.48,0.87
28881667,0.05,-0.48,0.87
28883680,0.05,-0.48,0.87
28885715,0.06,-0.48,0.88
28887682,0.06,-0.48,0.88
28889667,0.06,-0.48,0.88
28891685,0.06,-0.48,0.88
28893674,0.06,-0.48,0.88
28895663,0.06,-0.49,0.86
28897724,0.06,-0.49,0.86
28899707,0.06,-0.49,0.86
28901707,0.06,-0.49,0.86
28903713,0.06,-0.49,0.86
28905742,0.07,-0.49,0.85
28907713,0.07,-0.49,0.85
28909711,0.07,-0.49,0.85
28911719,0.07,-0.49,0.85
28913730,0.07,-0.49,0.85
28915711,0.07,-0.49,0.85
28917704,0.07,-0.50,0.84
28919677,0.07,-0.50,0.84
28921736,0.07,-0.50,0.84
28923671,0.07,-0.50,0.84
28925698,0.07,-0.50,0.84
28927715,0.07,-0.50,0.83
28929722,0.07,-0.50,0.83
28931672,0.07,-0.50,0.83
28933655,0.07,-0.50,0.83
28935666,0.07,-0.50,0.83
28937717,0.07,-0.50,0.84
28939706,0.07,-0.50,0.84
28941754,0.07,-0.50,0.84
28943732,0.07,-0.50,0.84
28945716,0.07,-0.50,0.84
28947705,0.05,-0.50,0.83
28949701,0.05,-0.50,0.83
28951747,0.05,-0.50,0.83
28953742,0.05,-0.50,0.83
28955704,0.05,-0.50,0.83
28957693,0.07,-0.53,0.82
28959733,0.07,-0.53,0.82
28961670,0.07,-0.53,0.82
28963665,0.07,-0.53,0.82
28965654,0.07,-0.53,0.82
28967703,0.05,-0.54,0.83
28969665,0.05,-0.54,0.83
28971664,0.05,-0.54,0.83
28973678,0.05,-0.54,0.83
28975713,0.05,-0.54,0.83
28977724,0.06,-0.54,0.81
28979707,0.06,-0.54,0.81
28981709,0.06,-0.54,0.81
28983707,0.06,-0.54,0.81
28985713,0.06,-0.54,0.81
28987741,0.06,-0.54,0.82
28989718,0.06,-0.54,0.82
28991854,0.06,-0.54,0.82
28993719,0.06,-0.54,0.82
28995677,0.06,-0.54,0.82
28997678,0.05,-0.55,0.80
28999675,0.05,-0.55,0.80
29001678,0.05,-0.55,0.80
29003677,0.05,-0.55,0.80
29005676,0.05,-0.55,0.80
29007679,0.05,-0.55,0.80
29009678,0.04,-0.55,0.84
29011678,0.04,-0.55,0.84
29013751,0.04,-0.55,0.84
29015703,0.04,-0.55,0.84
29017748,0.04,-0.55,0.84
29019711,0.05,-0.53,0.82
29021712,0.05,-0.53,0.82
29023707,0.05,-0.53,0.82
29025713,0.05,-0.53,0.82
29027710,0.05,-0.53,0.82
29029705,0.04,-0.56,0.82
29031705,0.04,-0.56,0.82
29033737,0.04,-0.56,0.82
29035705,0.04,-0.56,0.82
29037677,0.04,-0.56,0.82
29039667,0.04,-0.56,0.81
29041702,0.04,-0.56,0.81
29043686,0.04,-0.56,0.81
29045717,0.04,-0.56,0.81
29047679,0.04,-0.56,0.81
29049672,0.05,-0.55,0.81
29051669,0.05,-0.55,0.81
29053702,0.05,-0.55,0.81
29055671,0.05,-0.55,0.81
29057728,0.05,-0.55,0.81
29059711,0.04,-0.55,0.81
29061714,0.04,-0.55,0.81
29063736,0.04,-0.55,0.81
29065713,0.04,-0.55,0.81
29067730,0.04,-0.55,0.81
29069717,0.04,-0.56,0.81
29071784,0.04,-0.56,0.81
29073722,0.04,-0.56,0.81
29075710,0.04,-0.56,0.81
29077677,0.04,-0.56,0.81
29079677,0.04,-0.56,0.80
29081676,0.04,-0.56,0.80
29083680,0.04,-0.56,0.80
29085678,0.04,-0.56,0.80
29087688,0.04,-0.56,0.80
29089673,0.04,-0.55,0.80
29091702,0.04,-0.55,0.80
29093786,0.04,-0.55,0.80
29095692,0.04,-0.55,0.80
29097713,0.04,-0.55,0.80
29099713,0.04,-0.55,0.80
29101729,0.04,-0.56,0.80
29103715,0.04,-0.56,0.80
29105705,0.04,-0.56,0.80
29107710,0.04,-0.56,0.80
29109711,0.04,-0.56,0.80
29111732,0.04,-0.57,0.80
29113714,0.04,-0.57,0.80
29115686,0.04,-0.57,0.80
29117709,0.04,-0.57,0.80
29119677,0.04,-0.57,0.80
29121680,0.04,-0.57,0.80
29123678,0.04,-0.57,0.80
29125679,0.04,-0.57,0.80
29127682,0.04,-0.57,0.80
29129677,0.04,-0.57,0.80
29131672,0.04,-0.56,0.80
29133676,0.04,-0.56,0.80
29135677,0.04,-0.56,0.80
29137715,0.04,-0.56,0.80
29139709,0.04,-0.56,0.80
29141722,0.06,-0.57,0.80
29143712,0.06,-0.57,0.80
29145744,0.06,-0.57,0.80
29147736,0.06,-0.57,0.80
29149706,0.06,-0.57,0.80
29151710,0.04,-0.57,0.81
29153705,0.04,-0.57,0.81
29155673,0.04,-0.57,0.81
29157676,0.04,-0.57,0.81
29159672,0.04,-0.57,0.81
29161675,0.04,-0.56,0.80
29163681,0.04,-0.56,0.80
29165671,0.04,-0.56,0.80
29167701,0.04,-0.56,0.80
29169732,0.04,-0.56,0.80
29171712,0.04,-0.57,0.80
29173677,0.04,-0.57,0.80
29175674,0.04,-0.57,0.80
29177738,0.04,-0.57,0.80
29179729,0.04,-0.57,0.80
29181713,0.04,-0.57,0.80
29183716,0.04,-0.57,0.80
29185733,0.04,-0.57,0.80
29187718,0.04,-0.57,0.80
29189711,0.04,-0.57,0.80
29191732,0.04,-0.57,0.80
29193768,0.04,-0.57,0.80
29195741,0.04,-0.57,0.80
29197723,0.04,-0.57,0.80
29199706,0.04,-0.57,0.80
29201667,0.04,-0.57,0.80
29203703,0.04,-0.57,0.81
29205732,0.04,-0.57,0.81
29207687,0.04,-0.57,0.81
29209661,0.04,-0.57,0.81
29211664,0.04,-0.57,0.81
29213667,-0.07,-0.49,0.76
29215717,-0.07,-0.49,0.76
29217752,-0.07,-0.49,0.76
29219701,-0.07,-0.49,0.76
29221721,-0.07,-0.49,0.76
29223732,0.07,-0.59,0.82
29225714,0.07,-0.59,0.82
29227708,0.07,-0.59,0.82
29229717,0.07,-0.59,0.82
29231736,0.07,-0.59,0.82
29233715,0.03,-0.58,0.80
29235702,0.03,-0.58,0.80
29237708,0.03,-0.58,0.80
29239686,0.03,-0.58,0.80
29241747,0.03,-0.58,0.80
29243691,0.03,-0.59,0.79
29245665,0.03,-0.59,0.79
29247725,0.03,-0.59,0.79
29249677,0.03,-0.59,0.79
29251669,0.03,-0.59,0.79
29253702,0.03,-0.59,0.79
29255662,0.03,-0.59,0.79
29257732,0.03,-0.59,0.79
29259711,0.03,-0.59,0.79
29261707,0.03,-0.59,0.79
29263706,0.02,-0.57,0.80
29265705,0.02,-0.57,0.80
29267721,0.02,-0.57,0.80
29269706,0.02,-0.57,0.80
29271670,0.02,-0.57,0.80
29273670,0.02,-0.57,0.80
29275701,0.02,-0.58,0.79
29277758,0.02,-0.58,0.79
29279689,0.02,-0.58,0.79
29281651,0.02,-0.58,0.79
29283669,0.02,-0.58,0.79
29285665,0.05,-0.61,0.80
29287680,0.05,-0.61,0.80
29289665,0.05,-0.61,0.80
29291685,0.05,-0.61,0.80
29293665,0.05,-0.61,0.80
29295669,0.02,-0.59,0.79
29297715,0.02,-0.59,0.79
29299709,0.02,-0.59,0.79
29301703,0.02,-0.59,0.79
29303705,0.02,-0.59,0.79
29305705,0.02,-0.58,0.80
29307706,0.02,-0.58,0.80
29309671,0.02,-0.58,0.80
29311666,0.02,-0.58,0.80
29313747,0.02,-0.58,0.80
29315699,-0.01,-0.55,0.77
29317692,-0.01,-0.55,0.77
29319666,-0.01,-0.55,0.77
29321665,-0.01,-0.55,0.77
29323663,-0.01,-0.55,0.77
29325664,0.03,-0.51,0.79
29327652,0.03,-0.51,0.79
29329663,0.03,-0.51,0.79
29331664,0.03,-0.51,0.79
29333662,0.03,-0.51,0.79
29335664,0.03,-0.59,0.79
29337732,0.03,-0.59,0.79
29339733,0.03,-0.59,0.79
29341741,0.03,-0.59,0.79
29343714,0.03,-0.59,0.79
29345722,0.02,-0.59,0.79
29347726,0.02,-0.59,0.79
29349715,0.02,-0.59,0.79
29351709,0.02,-0.59,0.79
29353725,0.02,-0.59,0.79
29355730,0.02,-0.59,0.78
29357719,0.02,-0.59,0.78
29359699,0.02,-0.59,0.78
29361684,0.02,-0.59,0.78
29363742,0.02,-0.59,0.78
29365694,0.02,-0.59,0.78
29367696,0.02,-0.59,0.78
29369714,0.02,-0.59,0.78
29371670,0.02,-0.59,0.78
29373666,0.02,-0.59,0.78
29375653,0.02,-0.59,0.78
29377725,0.02,-0.59,0.78
29379706,0.02,-0.59,0.78
29381710,0.02,-0.59,0.78
29383708,0.02,-0.59,0.78
29385707,0.02,-0.59,0.78
29387716,0.02,-0.59,0.79
29389742,0.02,-0.59,0.79
29391825,0.02,-0.59,0.79
29393714,0.02,-0.59,0.79
29395666,0.02,-0.59,0.79
29397663,0.02,-0.59,0.78
29399690,0.02,-0.59,0.78
29401735,0.02,-0.59,0.78
29403667,0.02,-0.59,0.78
29405665,0.02,-0.59,0.78
29407662,0.02,-0.60,0.78
29409665,0.02,-0.60,0.78
29411675,0.02,-0.60,0.78
29413714,0.02,-0.60,0.78
29415665,0.02,-0.60,0.78
29417758,0.02,-0.60,0.78
29419708,0.02,-0.60,0.78
29421715,0.02,-0.60,0.78
29423730,0.02,-0.60,0.78
29425731,0.02,-0.60,0.78
29427706,0.01,-0.61,0.77
29429703,0.01,-0.61,0.77
29431704,0.01,-0.61,0.77
29433671,0.01,-0.61,0.77
29435717,0.01,-0.61,0.77
29437721,0.02,-0.61,0.77
29439667,0.02,-0.61,0.77
29441760,0.02,-0.61,0.77
29443679,0.02,-0.61,0.77
29445707,0.02,-0.61,0.77
29447663,0.02,-0.61,0.77
29449664,0.01,-0.61,0.77
29451667,0.01,-0.61,0.77
29453703,0.01,-0.61,0.77
29455653,0.01,-0.61,0.77
29457724,0.01,-0.61,0.77
29459711,0.02,-0.62,0.77
29461704,0.02,-0.62,0.77
29463705,0.02,-0.62,0.77
29465703,0.02,-0.62,0.77
29467715,0.02,-0.62,0.77
29469655,0.01,-0.61,0.77
29471675,0.01,-0.61,0.77
29473765,0.01,-0.61,0.77
29475687,0.01,-0.61,0.77
29477652,0.01,-0.61,0.77
29479666,0.02,-0.61,0.76
29481654,0.02,-0.61,0.76
29483671,0.02,-0.61,0.76
29485690,0.02,-0.61,0.76
29487680,0.02,-0.61,0.76
29489666,0.02,-0.62,0.76
29491726,0.02,-0.62,0.76
29493715,0.02,-0.62,0.76
29495665,0.02,-0.62,0.76
29497732,0.02,-0.62,0.76
29499707,0.02,-0.62,0.76
29501731,0.02,-0.62,0.76
29503780,0.02,-0.62,0.76
29505720,0.02,-0.62,0.76
29507705,0.02,-0.62,0.76
29509708,0.03,-0.62,0.76
29511731,0.03,-0.62,0.76
29513711,0.03,-0.62,0.76
29515704,0.03,-0.62,0.76
29517697,0.03,-0.62,0.76
29519664,0.02,-0.62,0.76
29521710,0.02,-0.62,0.76
29523719,0.02,-0.62,0.76
29525671,0.02,-0.62,0.76
29527654,0.02,-0.62,0.76
29529728,0.02,-0.62,0.76
29531690,0.02,-0.62,0.76
29533663,0.02,-0.62,0.76
29535663,0.02,-0.62,0.76
29537727,0.02,-0.62,0.76
29539707,0.02,-0.62,0.76
29541732,0.02,-0.62,0.76
29543722,0.02,-0.62,0.76
29545738,0.02,-0.62,0.76
29547736,0.02,-0.62,0.76
29549710,0.02,-0.62,0.76
29551708,-0.03,-0.60,0.73
29553743,-0.03,-0.60,0.73
29555790,-0.03,-0.60,0.73
29557705,-0.03,-0.60,0.73
29559669,-0.03,-0.60,0.73
29561691,0.07,-0.64,0.80
29563713,0.07,-0.64,0.80
29565667,0.07,-0.64,0.80
29567692,0.07,-0.64,0.80
29569663,0.07,-0.64,0.80
29571664,0.04,-0.66,0.77
29573654,0.04,-0.66,0.77
29575663,0.04,-0.66,0.77
29577729,0.04,-0.66,0.77
29579713,0.04,-0.66,0.77
29581713,0.02,-0.64,0.75
29583706,0.02,-0.64,0.75
29585705,0.02,-0.64,0.75
29587713,0.02,-0.64,0.75
29589700,0.02,-0.64,0.75
29591679,0.01,-0.64,0.75
29593678,0.01,-0.64,0.75
29595749,0.01,-0.64,0.75
29597690,0.01,-0.64,0.75
29599662,0.01,-0.64,0.75
29601654,0.01,-0.64,0.74
29603663,0.01,-0.64,0.74
29605661,0.01,-0.64,0.74
29607653,0.01,-0.64,0.74
29609653,0.01,-0.64,0.74
29611663,0.02,-0.64,0.75
29613718,0.02,-0.64,0.75
29615675,0.02,-0.64,0.75
29617758,0.02,-0.64,0.75
29619711,0.02,-0.64,0.75
29621709,0.03,-0.66,0.74
29623713,0.03,-0.66,0.74
29625738,0.03,-0.66,0.74
29627724,0.03,-0.66,0.74
29629706,0.03,-0.66,0.74
29631712,0.03,-0.66,0.74
29633729,0.01,-0.65,0.74
29635717,0.01,-0.65,0.74
29637666,0.01,-0.65,0.74
29639669,0.01,-0.65,0.74
29641739,0.01,-0.65,0.74
29643711,0.02,-0.66,0.74
29645666,0.02,-0.66,0.74
29647709,0.02,-0.66,0.74
29649694,0.02,-0.66,0.74
29651719,0.02,-0.66,0.74
29653706,0.01,-0.65,0.73
29655666,0.01,-0.65,0.73
29657729,0.01,-0.65,0.73
29659708,0.01,-0.65,0.73
29661714,0.01,-0.65,0.73
29663737,0.01,-0.66,0.73
29665716,0.01,-0.66,0.73
29667724,0.01,-0.66,0.73
29669707,0.01,-0.66,0.73
29671707,0.01,-0.66,0.73
29673667,0.02,-0.66,0.74
29675665,0.02,-0.66,0.74
29677665,0.02,-0.66,0.74
29679738,0.02,-0.66,0.74
29681708,0.02,-0.66,0.74
29683671,0.01,-0.66,0.73
29685668,0.01,-0.66,0.73
29687680,0.01,-0.66,0.73
29689670,0.01,-0.66,0.73
29691689,0.01,-0.66,0.73
29693671,0.02,-0.66,0.72
29695669,0.02,-0.66,0.72
29697739,0.02,-0.66,0.72
29699729,0.02,-0.66,0.72
29701704,0.02,-0.66,0.72
29703704,0.01,-0.66,0.73
29705706,0.01,-0.66,0.73
29707702,0.01,-0.66,0.73
29709716,0.01,-0.66,0.73
29711742,0.01,-0.66,0.73
29713716,0.02,-0.66,0.73
29715667,0.02,-0.66,0.73
29717699,0.02,-0.66,0.73
29719665,0.02,-0.66,0.73
29721665,0.02,-0.66,0.73
29723737,0.02,-0.66,0.73
29725680,0.02,-0.66,0.73
29727675,0.02,-0.66,0.73
29729708,0.02,-0.66,0.73
29731664,0.02,-0.66,0.73
29733661,0.02,-0.66,0.73
29735663,0.02,-0.67,0.73
29737725,0.02,-0.67,0.73
29739714,0.02,-0.67,0.73
29741739,0.02,-0.67,0.73
29743741,0.02,-0.67,0.73
29745719,0.02,-0.67,0.72
29747727,0.02,-0.67,0.72
29749734,0.02,-0.67,0.72
29751706,0.02,-0.67,0.72
29753724,0.02,-0.67,0.72
29755696,0.02,-0.67,0.72
29757668,0.02,-0.67,0.72
29759667,0.02,-0.67,0.72
29761662,0.02,-0.67,0.72
29763661,0.02,-0.67,0.72
29765654,0.01,-0.68,0.73
29767697,0.01,-0.68,0.73
29769667,0.01,-0.68,0.73
29771699,0.01,-0.68,0.73
29773753,0.01,-0.68,0.73
29775691,0.02,-0.67,0.72
29777710,0.02,-0.67,0.72
29779709,0.02,-0.67,0.72
29781741,0.02,-0.67,0.72
29783729,0.02,-0.67,0.72
29785704,0.02,-0.67,0.69
29787712,0.02,-0.67,0.69
29789728,0.02,-0.67,0.69
29791834,0.02,-0.67,0.69
29793713,0.02,-0.67,0.69
29795698,0.01,-0.68,0.71
29797680,0.01,-0.68,0.71
29799748,0.01,-0.68,0.71
29801689,0.01,-0.68,0.71
29803665,0.01,-0.68,0.71
29805715,0.01,-0.68,0.71
29807664,-0.00,-0.70,0.72
29809652,-0.00,-0.70,0.72
29811661,-0.00,-0.70,0.72
29813684,-0.00,-0.70,0.72
29815664,-0.00,-0.70,0.72
29817752,0.01,-0.69,0.70
29819712,0.01,-0.69,0.70
29821710,0.01,-0.69,0.70
29823705,0.01,-0.69,0.70
29825703,0.01,-0.69,0.70
29827713,0.06,-0.70,0.67
29829754,0.06,-0.70,0.67
29831726,0.06,-0.70,0.67
29833702,0.06,-0.70,0.67
29835665,0.06,-0.70,0.67
29837678,-0.00,-0.69,0.75
29839742,-0.00,-0.69,0.75
29841769,-0.00,-0.69,0.75
29843669,-0.00,-0.69,0.75
29845709,-0.00,-0.69,0.75
29847662,-0.02,-0.70,0.69
29849663,-0.02,-0.70,0.69
29851706,-0.02,-0.70,0.69
29853703,-0.02,-0.70,0.69
29855663,-0.02,-0.70,0.69
29857726,0.01,-0.71,0.70
29859709,0.01,-0.71,0.70
29861714,0.01,-0.71,0.70
29863771,0.01,-0.71,0.70
29865723,0.01,-0.71,0.70
29867729,0.02,-0.69,0.70
29869704,0.02,-0.69,0.70
29871704,0.02,-0.69,0.70
29873709,0.02,-0.69,0.70
29875745,0.02,-0.69,0.70
29877702,-0.04,-0.68,0.70
29879670,-0.04,-0.68,0.70
29881668,-0.04,-0.68,0.70
29883671,-0.04,-0.68,0.70
29885675,-0.04,-0.68,0.70
29887682,-0.01,-0.70,0.68
29889662,-0.01,-0.70,0.68
29891688,-0.01,-0.70,0.68
29893667,-0.01,-0.70,0.68
29895667,-0.01,-0.70,0.68
29897712,-0.01,-0.70,0.68
29899704,0.01,-0.70,0.69
29901694,0.01,-0.70,0.69
29903695,0.01,-0.70,0.69
29905705,0.01,-0.70,0.69
29907707,0.01,-0.70,0.69
29909667,0.01,-0.71,0.69
29911738,0.01,-0.71,0.69
29913702,0.01,-0.71,0.69
29915655,0.01,-0.71,0.69
29917689,0.01,-0.71,0.69
29919664,0.01,-0.71,0.69
29921654,0.01,-0.71,0.69
29923662,0.01,-0.71,0.69
29925662,0.01,-0.71,0.69
29927663,0.01,-0.71,0.69
29929715,0.01,-0.71,0.69
29931666,0.01,-0.71,0.69
29933653,0.01,-0.71,0.69
29935654,0.01,-0.71,0.69
29937729,0.01,-0.71,0.69
29939708,0.02,-0.71,0.68
29941730,0.02,-0.71,0.68
29943747,0.02,-0.71,0.68
29945715,0.02,-0.71,0.68
29947704,0.02,-0.71,0.68
29949724,0.00,-0.70,0.69
29951741,0.00,-0.70,0.69
29953730,0.00,-0.70,0.69
29955735,0.00,-0.70,0.69
29957704,0.00,-0.70,0.69
29959665,0.01,-0.71,0.68
29961666,0.01,-0.71,0.68
29963652,0.01,-0.71,0.68
29965769,0.01,-0.71,0.68
29967709,0.01,-0.71,0.68
29969663,0.00,-0.71,0.68
29971666,0.00,-0.71,0.68
29973654,0.00,-0.71,0.68
29975664,0.00,-0.71,0.68
29977711,0.00,-0.71,0.68
29979719,0.00,-0.71,0.68
29981733,0.00,-0.71,0.68
29983719,0.00,-0.71,0.68
29985705,0.00,-0.71,0.68
29987716,0.00,-0.71,0.68
29989753,0.00,-0.71,0.68
29991737,0.01,-0.71,0.68
29993707,0.01,-0.71,0.68
29995704,0.01,-0.71,0.68
29997736,0.01,-0.71,0.68
29999681,0.01,-0.71,0.68
30001661,0.01,-0.71,0.69
30003706,0.01,-0.71,0.69
30005705,0.01,-0.71,0.69
30007665,0.01,-0.71,0.69
30009651,0.01,-0.71,0.69
30011663,0.01,-0.71,0.68
30013663,0.01,-0.71,0.68
30015667,0.01,-0.71,0.68
30017752,0.01,-0.71,0.68
30019711,0.01,-0.71,0.68
30021713,0.01,-0.71,0.68
30023762,0.01,-0.71,0.68
30025726,0.01,-0.71,0.68
30027707,0.01,-0.71,0.68
30029707,0.01,-0.71,0.68
30031705,0.01,-0.71,0.68
30033699,0.01,-0.71,0.68
30035733,0.01,-0.71,0.68
30037708,0.01,-0.71,0.68
30039662,0.01,-0.71,0.68
30041688,0.01,-0.71,0.68
30043661,0.01,-0.71,0.68
30045716,0.01,-0.71,0.68
30047654,0.01,-0.71,0.68
30049663,0.01,-0.71,0.68
30051653,0.01,-0.71,0.68
30053667,0.01,-0.71,0.68
30055705,0.01,-0.71,0.68
30057729,0.01,-0.71,0.68
30059715,0.01,-0.71,0.68
30061704,0.01,-0.71,0.68
30063704,0.01,-0.71,0.68
30065706,0.01,-0.71,0.68
30067721,0.01,-0.71,0.68
30069705,0.01,-0.71,0.68
30071663,0.01,-0.71,0.68
30073671,0.01,-0.71,0.68
30075779,0.01,-0.71,0.68
30077691,0.01,-0.71,0.68
30079664,0.01,-0.71,0.68
30081675,0.01,-0.71,0.68
30083675,0.01,-0.71,0.68
30085715,0.01,-0.71,0.68
30087675,0.01,-0.71,0.68
30089667,0.01,-0.71,0.68
30091651,0.01,-0.71,0.68
30093664,0.01,-0.71,0.68
30095665,0.01,-0.71,0.68
30097733,0.01,-0.71,0.68
30099709,0.01,-0.71,0.68
30101703,0.01,-0.71,0.68
30103701,0.01,-0.71,0.68
30105705,0.01,-0.71,0.68
30107707,0.01,-0.71,0.68
30109708,0.01,-0.71,0.68
30111668,0.01,-0.71,0.68
30113680,0.01,-0.71,0.68
30115791,0.01,-0.71,0.68
30117711,0.01,-0.71,0.68
30119665,0.01,-0.71,0.68
30121662,0.01,-0.71,0.68
30123664,0.01,-0.71,0.68
30125707,0.01,-0.71,0.68
30127701,0.01,-0.71,0.68
30129661,0.01,-0.71,0.68
30131663,0.01,-0.71,0.68
30133665,0.00,-0.71,0.68
30135663,0.00,-0.71,0.68
30137728,0.00,-0.71,0.68
30139710,0.00,-0.71,0.68
30141731,0.00,-0.71,0.68
30143726,0.01,-0.71,0.68
30145792,0.01,-0.71,0.68
30147718,0.01,-0.71,0.68
30149703,0.01,-0.71,0.68
30151707,0.01,-0.71,0.68
30153720,0.01,-0.71,0.67
30155733,0.01,-0.71,0.67
30157709,0.01,-0.71,0.67
30159667,0.01,-0.71,0.67
30161708,0.01,-0.71,0.67
30163667,0.01,-0.71,0.67
30165666,0.01,-0.71,0.68
30167758,0.01,-0.71,0.68
30169669,0.01,-0.71,0.68
30171667,0.01,-0.71,0.68
30173666,0.01,-0.71,0.68
30175671,0.01,-0.71,0.68
30177729,0.01,-0.71,0.68
30179712,0.01,-0.71,0.68
30181709,0.01,-0.71,0.68
30183702,0.01,-0.71,0.68
30185711,0.01,-0.71,0.68
30187710,0.01,-0.71,0.68
30189707,0.01,-0.71,0.68
30191760,0.01,-0.71,0.68
30193675,0.01,-0.71,0.68
30195667,0.01,-0.71,0.68
30197664,0.01,-0.71,0.68
30199664,0.01,-0.71,0.68
30201665,0.01,-0.71,0.68
30203664,0.01,-0.71,0.68
30205654,0.01,-0.71,0.68
30207667,0.01,-0.71,0.68
30209669,0.01,-0.71,0.68
30211668,0.01,-0.71,0.68
30213724,0.01,-0.71,0.68
30215715,0.01,-0.71,0.68
30217743,0.01,-0.71,0.68
30219709,0.01,-0.71,0.68
30221708,0.01,-0.71,0.68
30223704,0.01,-0.71,0.68
30225707,0.01,-0.71,0.68
30227742,0.01,-0.71,0.68
30229729,0.01,-0.71,0.68
30231709,0.01,-0.71,0.68
30233662,0.01,-0.71,0.68
30235666,0.01,-0.71,0.68
30237663,0.01,-0.71,0.68
30239664,0.01,-0.71,0.68
30241780,0.01,-0.71,0.68
30243797,0.01,-0.71,0.68
30245690,0.01,-0.71,0.68
30247655,0.01,-0.71,0.68
30249668,0.01,-0.71,0.68
30251712,0.01,-0.71,0.68
30253663,0.01,-0.71,0.68
30255654,0.01,-0.71,0.68
30257745,0.01,-0.72,0.67
30259723,0.01,-0.72,0.67
30261732,0.01,-0.72,0.67
30263702,0.01,-0.72,0.67
30265712,0.01,-0.72,0.67
30267802,0.01,-0.71,0.68
30269724,0.01,-0.71,0.68
30271705,0.01,-0.71,0.68
30273703,0.01,-0.71,0.68
30275709,0.01,-0.71,0.68
30277736,0.01,-0.71,0.68
30279681,0.01,-0.71,0.68
30281673,0.01,-0.71,0.68
30283671,0.01,-0.71,0.68
30285668,0.01,-0.71,0.68
30287681,0.01,-0.71,0.67
30289665,0.01,-0.71,0.67
30291685,0.01,-0.71,0.67
30293671,0.01,-0.71,0.67
30295664,0.01,-0.71,0.67
30297717,0.01,-0.71,0.68
30299707,0.01,-0.71,0.68
30301705,0.01,-0.71,0.68
30303723,0.01,-0.71,0.68
30305738,0.01,-0.71,0.68
30307713,0.01,-0.72,0.66
30309706,0.01,-0.72,0.66
30311705,0.01,-0.72,0.66
30313680,0.01,-0.72,0.66
30315737,0.01,-0.72,0.66
30317703,0.01,-0.72,0.68
30319665,0.01,-0.72,0.68
30321667,0.01,-0.72,0.68
30323709,0.01,-0.72,0.68
30325662,0.01,-0.72,0.68
30327661,0.01,-0.72,0.68
30329654,0.01,-0.72,0.68
30331662,0.01,-0.72,0.68
30333662,0.01,-0.72,0.68
30335653,0.01,-0.72,0.68
30337727,0.01,-0.72,0.67
30339710,0.01,-0.72,0.67
30341733,0.01,-0.72,0.67
30343724,0.01,-0.72,0.67
30345741,0.01,-0.72,0.67
30347724,0.01,-0.72,0.67
30349703,0.00,-0.72,0.68
30351704,0.00,-0.72,0.68
30353702,0.00,-0.72,0.68
30355664,0.00,-0.72,0.68
30357702,0.00,-0.72,0.68
30359662,0.01,-0.71,0.67
30361654,0.01,-0.71,0.67
30363655,0.01,-0.71,0.67
30365671,0.01,-0.71,0.67
30367694,0.01,-0.71,0.67
30369664,0.01,-0.72,0.68
30371670,0.01,-0.72,0.68
30373773,0.01,-0.72,0.68
30375686,0.01,-0.72,0.68
30377718,0.01,-0.72,0.68
30379702,0.01,-0.72,0.67
30381736,0.01,-0.72,0.67
30383721,0.01,-0.72,0.67
30385705,0.01,-0.72,0.67
30387733,0.01,-0.72,0.67
30389730,0.01,-0.72,0.67
30391739,0.01,-0.72,0.67
30393704,0.01,-0.72,0.67
30395670,0.01,-0.72,0.67
30397667,0.01,-0.72,0.67
30399662,0.01,-0.72,0.68
30401665,0.01,-0.72,0.68
30403654,0.01,-0.72,0.68
30405661,0.01,-0.72,0.68
30407665,0.01,-0.72,0.68
30409681,0.00,-0.72,0.68
30411666,0.00,-0.72,0.68
30413654,0.00,-0.72,0.68
30415665,0.00,-0.72,0.68
30417763,0.00,-0.72,0.68
30419720,0.01,-0.72,0.67
30421708,0.01,-0.72,0.67
30423725,0.01,-0.72,0.67
30425728,0.01,-0.72,0.67
30427716,0.01,-0.72,0.67
30429710,0.01,-0.72,0.67
30431712,0.01,-0.72,0.67
30433730,0.01,-0.72,0.67
30435718,0.01,-0.72,0.67
30437675,0.01,-0.72,0.67
30439667,0.01,-0.72,0.67
30441687,0.01,-0.73,0.67
30443663,0.01,-0.73,0.67
30445666,0.01,-0.73,0.67
30447737,0.01,-0.73,0.67
30449702,0.01,-0.73,0.67
30451664,0.01,-0.73,0.66
30453667,0.01,-0.73,0.66
30455716,0.01,-0.73,0.66
30457746,0.01,-0.73,0.66
30459726,0.01,-0.73,0.66
30461703,0.01,-0.72,0.66
30463706,0.01,-0.72,0.66
30465733,0.01,-0.72,0.66
30467740,0.01,-0.72,0.66
30469733,0.01,-0.72,0.66
30471733,0.02,-0.72,0.66
30473711,0.02,-0.72,0.66
30475711,0.02,-0.72,0.66
30477701,0.02,-0.72,0.66
30479675,0.02,-0.72,0.66
30481734,0.01,-0.73,0.67
30483676,0.01,-0.73,0.67
30485667,0.01,-0.73,0.67
30487683,0.01,-0.73,0.67
30489672,0.01,-0.73,0.67
30491747,0.01,-0.72,0.68
30493668,0.01,-0.72,0.68
30495663,0.01,-0.72,0.68
30497729,0.01,-0.72,0.68
30499705,0.01,-0.72,0.68
30501705,0.01,-0.72,0.66
30503704,0.01,-0.72,0.66
30505708,0.01,-0.72,0.66
30507704,0.01,-0.72,0.66
30509702,0.01,-0.72,0.66
30511662,0.01,-0.72,0.67
30513695,0.01,-0.72,0.67
30515754,0.01,-0.72,0.67
30517713,0.01,-0.72,0.67
30519663,0.01,-0.72,0.67
30521663,0.01,-0.72,0.67
30523664,0.01,-0.72,0.68
30525721,0.01,-0.72,0.68
30527677,0.01,-0.72,0.68
30529667,0.01,-0.72,0.68
30531667,0.01,-0.72,0.68
30533668,0.01,-0.73,0.66
30535664,0.01,-0.73,0.66
30537733,0.01,-0.73,0.66
30539707,0.01,-0.73,0.66
30541733,0.01,-0.73,0.66
30543730,0.01,-0.72,0.67
30545736,0.01,-0.72,0.67
30547717,0.01,-0.72,0.67
30549707,0.01,-0.72,0.67
30551713,0.01,-0.72,0.67
30553724,0.01,-0.72,0.67
30555714,0.01,-0.72,0.67
30557702,0.01,-0.72,0.67
30559663,0.01,-0.72,0.67
30561733,0.01,-0.72,0.67
30563703,0.01,-0.72,0.67
30565655,0.01,-0.72,0.67
30567699,0.01,-0.72,0.67
30569706,0.01,-0.72,0.67
30571663,0.01,-0.72,0.67
30573716,0.01,-0.73,0.66
30575665,0.01,-0.73,0.66
30577722,0.01,-0.73,0.66
30579705,0.01,-0.73,0.66
30581707,0.01,-0.73,0.66
30583725,0.01,-0.72,0.67
30585722,0.01,-0.72,0.67
30587710,0.01,-0.72,0.67
30589709,0.01,-0.72,0.67
30591806,0.01,-0.72,0.67
30593706,0.01,-0.72,0.66
30595749,0.01,-0.72,0.66
30597691,0.01,-0.72,0.66
30599653,0.01,-0.72,0.66
30601661,0.01,-0.72,0.66
30603685,0.01,-0.73,0.66
30605719,0.01,-0.73,0.66
30607663,0.01,-0.73,0.66
30609651,0.01,-0.73,0.66
30611651,0.01,-0.73,0.66
30613679,0.01,-0.73,0.66
30615679,0.01,-0.73,0.66
30617756,0.01,-0.73,0.66
30619711,0.01,-0.73,0.66
30621710,0.01,-0.73,0.66
30623708,0.01,-0.73,0.66
30625704,0.01,-0.73,0.66
30627706,0.01,-0.73,0.66
30629747,0.01,-0.73,0.66
30631726,0.01,-0.73,0.66
30633713,0.01,-0.73,0.66
30635666,0.01,-0.73,0.67
30637669,0.01,-0.73,0.67
30639665,0.01,-0.73,0.67
30641768,0.01,-0.73,0.67
30643694,0.01,-0.73,0.67
30645741,0.01,-0.72,0.66
30647674,0.01,-0.72,0.66
30649666,0.01,-0.72,0.66
30651696,0.01,-0.72,0.66
30653714,0.01,-0.72,0.66
30655665,0.01,-0.73,0.66
30657827,0.01,-0.73,0.66
30659714,0.01,-0.73,0.66
30661705,0.01,-0.73,0.66
30663707,0.01,-0.73,0.66
30665701,0.01,-0.73,0.67
30667726,0.01,-0.73,0.67
30669709,0.01,-0.73,0.67
30671684,0.01,-0.73,0.67
30673711,0.01,-0.73,0.67
30675669,0.01,-0.72,0.66
30677666,0.01,-0.72,0.66
30679665,0.01,-0.72,0.66
30681700,0.01,-0.72,0.66
30683756,0.01,-0.72,0.66
30685707,0.01,-0.72,0.66
30687681,0.01,-0.72,0.66
30689664,0.01,-0.72,0.66
30691692,0.01,-0.72,0.66
30693716,0.01,-0.72,0.66
30695696,0.01,-0.72,0.66
30697723,0.01,-0.73,0.67
30699708,0.01,-0.73,0.67
30701707,0.01,-0.73,0.67
30703703,0.01,-0.73,0.67
30705744,0.01,-0.73,0.67
30707727,0.01,-0.72,0.67
30709707,0.01,-0.72,0.67
30711710,0.01,-0.72,0.67
30713708,0.01,-0.72,0.67
30715725,0.01,-0.72,0.67
30717728,0.01,-0.73,0.67
30719666,0.01,-0.73,0.67
30721663,0.01,-0.73,0.67
30723671,0.01,-0.73,0.67
30725714,0.01,-0.73,0.67
30727668,0.01,-0.72,0.67
30729654,0.01,-0.72,0.67
30731654,0.01,-0.72,0.67
30733662,0.01,-0.72,0.67
30735651,0.01,-0.72,0.67
30737724,0.01,-0.72,0.67
30739713,0.01,-0.72,0.67
30741729,0.01,-0.72,0.67
30743705,0.01,-0.72,0.67
30745710,0.01,-0.72,0.67
30747709,0.01,-0.72,0.67
30749705,0.01,-0.72,0.67
30751745,0.01,-0.72,0.67
30753693,0.01,-0.72,0.67
30755667,0.01,-0.72,0.67
30757695,0.01,-0.72,0.67
30759663,0.01,-0.72,0.67
30761662,0.01,-0.72,0.67
30763661,0.01,-0.72,0.67
30765665,0.01,-0.72,0.67
30767692,0.01,-0.73,0.67
30769713,0.01,-0.73,0.67
30771679,0.01,-0.73,0.67
30773703,0.01,-0.73,0.67
30775665,0.01,-0.73,0.67
30777729,0.01,-0.72,0.66
30779711,0.01,-0.72,0.66
30781709,0.01,-0.72,0.66
30783704,0.01,-0.72,0.66
30785702,0.01,-0.72,0.66
30787711,0.01,-0.72,0.66
30789704,0.00,-0.72,0.67
30791687,0.00,-0.72,0.67
30793667,0.00,-0.72,0.67
30795665,0.00,-0.72,0.67
30797654,0.00,-0.72,0.67
30799662,0.02,-0.72,0.66
30801667,0.02,-0.72,0.66
30803673,0.02,-0.72,0.66
30805664,0.02,-0.72,0.66
30807665,0.02,-0.72,0.66
30809663,0.01,-0.73,0.67
30811664,0.01,-0.73,0.67
30813681,0.01,-0.73,0.67
30815666,0.01,-0.73,0.67
30817716,0.01,-0.73,0.67
30819707,0.01,-0.72,0.66
30821700,0.01,-0.72,0.66
30823707,0.01,-0.72,0.66
30825728,0.01,-0.72,0.66
30827727,0.01,-0.72,0.66
30829716,0.01,-0.72,0.67
30831703,0.01,-0.72,0.67
30833666,0.01,-0.72,0.67
30835665,0.01,-0.72,0.67
30837667,0.01,-0.72,0.67
30839674,0.01,-0.73,0.67
30841745,0.01,-0.73,0.67
30843677,0.01,-0.73,0.67
30845671,0.01,-0.73,0.67
30847663,0.01,-0.73,0.67
30849662,0.01,-0.73,0.67
30851696,0.01,-0.73,0.67
30853714,0.01,-0.73,0.67
30855669,0.01,-0.73,0.67
30857752,0.01,-0.73,0.67
30859723,0.01,-0.73,0.67
30861712,0.01,-0.73,0.67
30863711,0.01,-0.73,0.67
30865740,0.01,-0.73,0.67
30867754,0.01,-0.73,0.67
30869703,0.01,-0.73,0.67
30871706,0.01,-0.73,0.67
30873704,0.01,-0.73,0.67
30875730,0.01,-0.73,0.67
30877715,0.01,-0.73,0.67
30879665,0.01,-0.73,0.67
30881663,0.01,-0.73,0.66
30883677,0.01,-0.73,0.66
30885665,0.01,-0.73,0.66
30887679,0.01,-0.73,0.66
30889665,0.01,-0.73,0.66
30891687,0.01,-0.71,0.67
30893667,0.01,-0.71,0.67
30895663,0.01,-0.71,0.67
30897718,0.01,-0.71,0.67
30899707,0.01,-0.71,0.67
30901713,0.01,-0.72,0.66
30903784,0.01,-0.72,0.66
30905724,0.01,-0.72,0.66
30907706,0.01,-0.72,0.66
30909702,0.01,-0.72,0.66
30911718,0.01,-0.73,0.66
30913712,0.01,-0.73,0.66
30915665,0.01,-0.73,0.66
30917699,0.01,-0.73,0.66
30919666,0.01,-0.73,0.66
30921714,0.01,-0.72,0.66
30923664,0.01,-0.72,0.66
30925668,0.01,-0.72,0.66
30927670,0.01,-0.72,0.66
30929665,0.01,-0.72,0.66
30931662,0.01,-0.73,0.66
30933668,0.01,-0.73,0.66
30935665,0.01,-0.73,0.66
30937729,0.01,-0.73,0.66
30939714,0.01,-0.73,0.66
30941737,0.01,-0.73,0.66
30943705,0.01,-0.73,0.66
30945705,0.01,-0.73,0.66
30947705,0.01,-0.73,0.66
30949707,0.01,-0.73,0.66
30951667,0.00,-0.72,0.66
30953669,0.00,-0.72,0.66
30955768,0.00,-0.72,0.66
30957706,0.00,-0.72,0.66
30959663,0.00,-0.72,0.66
30961664,0.00,-0.72,0.66
30963665,0.01,-0.73,0.67
30965664,0.01,-0.73,0.67
30967691,0.01,-0.73,0.67
30969662,0.01,-0.73,0.67
30971663,0.01,-0.73,0.67
30973664,0.01,-0.73,0.66
30975666,0.01,-0.73,0.66
30977742,0.01,-0.73,0.66
30979736,0.01,-0.73,0.66
30981736,0.01,-0.73,0.66
30983706,0.01,-0.72,0.68
30985706,0.01,-0.72,0.68
30987749,0.01,-0.72,0.68
30989723,0.01,-0.72,0.68
30991935,0.01,-0.72,0.68
30993729,0.01,-0.72,0.66
30995748,0.01,-0.72,0.66
30997735,0.01,-0.72,0.66
30999708,0.01,-0.72,0.66
31001674,0.01,-0.72,0.66
31003680,0.01,-0.73,0.66
31005714,0.01,-0.73,0.66
31007716,0.01,-0.73,0.66
31009677,0.01,-0.73,0.66
31011674,0.01,-0.73,0.66
31013676,0.02,-0.73,0.66
31015717,0.02,-0.73,0.66
31017798,0.02,-0.73,0.66
31019718,0.02,-0.73,0.66
31021709,0.02,-0.73,0.66
31023741,0.01,-0.73,0.67
31025730,0.01,-0.73,0.67
31027712,0.01,-0.73,0.67
31029714,0.01,-0.73,0.67
31031709,0.01,-0.73,0.67
31033713,0.01,-0.72,0.66
31035681,0.01,-0.72,0.66
31037683,0.01,-0.72,0.66
31039763,0.01,-0.72,0.66
31041797,0.01,-0.72,0.66
31043679,0.01,-0.73,0.67
31045672,0.01,-0.73,0.67
31047696,0.01,-0.73,0.67
31049716,0.01,-0.73,0.67
31051676,0.01,-0.73,0.67
31053674,0.01,-0.73,0.67
31055677,0.01,-0.72,0.67
31057747,0.01,-0.72,0.67
31059725,0.01,-0.72,0.67
31061712,0.01,-0.72,0.67
31063704,0.01,-0.72,0.67
31065727,0.01,-0.73,0.66
31067773,0.01,-0.73,0.66
31069715,0.01,-0.73,0.66
31071712,0.01,-0.73,0.66
31073708,0.01,-0.73,0.66
31075714,0.01,-0.73,0.66
31077721,0.01,-0.73,0.66
31079698,0.01,-0.73,0.66
31081707,0.01,-0.73,0.66
31083683,0.01,-0.73,0.66
31085673,0.01,-0.73,0.66
31087689,0.01,-0.73,0.66
31089674,0.01,-0.73,0.66
31091702,0.01,-0.73,0.66
31093675,0.01,-0.73,0.66
31095675,0.02,-0.73,0.66
31097715,0.02,-0.73,0.66
31099708,0.02,-0.73,0.66
31101707,0.02,-0.73,0.66
31103711,0.02,-0.73,0.66
31105709,0.01,-0.72,0.66
31107705,0.01,-0.72,0.66
31109703,0.01,-0.72,0.66
31111679,0.01,-0.72,0.66
31113679,0.01,-0.72,0.66
31115677,0.01,-0.73,0.66
31117688,0.01,-0.73,0.66
31119680,0.01,-0.73,0.66
31121679,0.01,-0.73,0.66
31123672,0.01,-0.73,0.66
31125677,0.01,-0.72,0.67
31127672,0.01,-0.72,0.67
31129679,0.01,-0.72,0.67
31131740,0.01,-0.72,0.67
31133707,0.01,-0.72,0.67
31135677,0.01,-0.73,0.66
31137714,0.01,-0.73,0.66
31139709,0.01,-0.73,0.66
31141740,0.01,-0.73,0.66
31143730,0.01,-0.73,0.66
31145738,0.01,-0.73,0.66
31147724,0.01,-0.73,0.66
31149709,0.01,-0.73,0.66
31151712,0.01,-0.73,0.66
31153672,0.01,-0.73,0.66
31155694,0.01,-0.73,0.66
31157757,0.01,-0.73,0.66
31159708,0.01,-0.73,0.66
31161677,0.01,-0.73,0.66
31163676,0.01,-0.73,0.66
31165691,0.01,-0.73,0.66
31167731,0.03,-0.73,0.66
31169667,0.03,-0.73,0.66
31171675,0.03,-0.73,0.66
31173678,0.03,-0.73,0.66
31175674,0.03,-0.73,0.66
31177729,0.00,-0.73,0.67
31179710,0.00,-0.73,0.67
31181722,0.00,-0.73,0.67
31183731,0.00,-0.73,0.67
31185713,0.00,-0.73,0.67
31187727,0.01,-0.73,0.66
31189734,0.01,-0.73,0.66
31191740,0.01,-0.73,0.66
31193711,0.01,-0.73,0.66
31195719,0.01,-0.73,0.66
31197696,0.01,-0.72,0.66
31199730,0.01,-0.72,0.66
31201686,0.01,-0.72,0.66
31203654,0.01,-0.72,0.66
31205661,0.01,-0.72,0.66
31207691,0.01,-0.73,0.66
31209714,0.01,-0.73,0.66
31211662,0.01,-0.73,0.66
31213662,0.01,-0.73,0.66
31215663,0.01,-0.73,0.66
31217759,0.02,-0.72,0.66
31219708,0.02,-0.72,0.66
31221710,0.02,-0.72,0.66
31223706,0.02,-0.72,0.66
31225740,0.02,-0.72,0.66
31227737,0.01,-0.73,0.66
31229704,0.01,-0.73,0.66
31231704,0.01,-0.73,0.66
31233698,0.01,-0.73,0.66
31235697,0.01,-0.73,0.66
31237765,0.01,-0.73,0.66
31239692,0.01,-0.73,0.66
31241687,0.01,-0.73,0.66
31243667,0.01,-0.73,0.66
31245668,0.01,-0.73,0.66
31247712,0.01,-0.73,0.66
31249654,0.01,-0.73,0.66
31251665,0.01,-0.73,0.66
31253655,0.01,-0.73,0.66
31255662,0.01,-0.73,0.66
31257732,0.01,-0.73,0.66
31259731,0.01,-0.73,0.66
31261716,0.01,-0.73,0.66
31263707,0.01,-0.73,0.66
31265707,0.01,-0.73,0.66
31267729,0.01,-0.73,0.66
31269702,0.01,-0.73,0.66
31271662,0.01,-0.73,0.66
31273667,0.01,-0.73,0.66
31275669,0.01,-0.73,0.66
31277664,0.01,-0.73,0.66
31279734,0.01,-0.73,0.66
31281713,0.01,-0.73,0.66
31283680,0.01,-0.73,0.66
31285667,0.01,-0.73,0.66
31287680,0.01,-0.73,0.66
31289701,0.01,-0.72,0.66
31291750,0.01,-0.72,0.66
31293713,0.01,-0.72,0.66
31295662,0.01,-0.72,0.66
31297724,0.01,-0.72,0.66
31299707,0.01,-0.73,0.66
31301708,0.01,-0.73,0.66
31303723,0.01,-0.73,0.66
31305718,0.01,-0.73,0.66
31307720,0.01,-0.73,0.66
31309709,0.01,-0.73,0.66
31311727,0.01,-0.73,0.66
31313722,0.01,-0.73,0.66
31315720,0.01,-0.73,0.66
31317703,0.01,-0.73,0.66
31319671,0.01,-0.73,0.66
31321726,0.01,-0.73,0.66
31323707,0.01,-0.73,0.66
31325669,0.01,-0.73,0.66
31327674,0.01,-0.73,0.66
31329653,0.01,-0.73,0.66
31331675,0.01,-0.73,0.67
31333715,0.01,-0.73,0.67
31335664,0.01,-0.73,0.67
31337727,0.01,-0.73,0.67
31339712,0.01,-0.73,0.67
31341734,0.01,-0.73,0.66
31343735,0.01,-0.73,0.66
31345742,0.01,-0.73,0.66
31347712,0.01,-0.73,0.66
31349704,0.01,-0.73,0.66
31351704,0.01,-0.73,0.67
31353699,0.01,-0.73,0.67
31355670,0.01,-0.73,0.67
31357688,0.01,-0.73,0.67
31359759,0.01,-0.73,0.67
31361707,0.01,-0.73,0.66
31363663,0.01,-0.73,0.66
31365681,0.01,-0.73,0.66
31367720,0.01,-0.73,0.66
31369709,0.01,-0.73,0.66
31371669,0.01,-0.73,0.66
31373663,0.01,-0.73,0.66
31375666,0.01,-0.73,0.66
31377730,0.01,-0.73,0.66
31379703,0.01,-0.73,0.66
31381706,0.01,-0.73,0.66
31383705,0.01,-0.73,0.66
31385705,0.01,-0.73,0.66
31387730,0.01,-0.73,0.66
31389720,0.01,-0.73,0.66
31391742,0.01,-0.73,0.66
31393703,0.01,-0.73,0.66
31395663,0.01,-0.73,0.66
31397662,0.01,-0.73,0.66
31399667,0.01,-0.73,0.66
31401666,0.01,-0.73,0.66
31403665,0.01,-0.73,0.66
31405653,0.01,-0.73,0.66
31407697,0.01,-0.73,0.66
31409750,0.01,-0.73,0.66
31411693,0.01,-0.73,0.66
31413662,0.01,-0.73,0.66
31415669,0.01,-0.73,0.66
31417775,0.01,-0.73,0.66
31419728,0.01,-0.73,0.66
31421706,0.01,-0.73,0.66
31423705,0.01,-0.73,0.66
31425739,0.01,-0.73,0.66
31427737,0.01,-0.73,0.66
31429704,0.01,-0.73,0.66
31431703,0.01,-0.73,0.66
31433703,0.01,-0.73,0.66
31435667,0.01,-0.73,0.66
31437661,0.01,-0.73,0.66
31439670,0.01,-0.73,0.66
31441688,0.01,-0.73,0.66
31443670,0.00,-0.73,0.67
31445662,0.00,-0.73,0.67
31447747,0.00,-0.73,0.67
31449693,0.00,-0.73,0.67
31451667,0.00,-0.73,0.67
31453662,0.01,-0.73,0.66
31455663,0.01,-0.73,0.66
31457753,0.01,-0.73,0.66
31459732,0.01,-0.73,0.66
31461723,0.01,-0.73,0.66
31463704,0.00,-0.73,0.67
31465711,0.00,-0.73,0.67
31467749,0.00,-0.73,0.67
31469719,0.00,-0.73,0.67
31471702,0.00,-0.73,0.67
31473695,0.01,-0.73,0.66
31475690,0.01,-0.73,0.66
31477733,0.01,-0.73,0.66
31479689,0.01,-0.73,0.66
31481667,0.01,-0.73,0.66
31483670,0.01,-0.73,0.66
31485715,0.01,-0.73,0.66
31487684,0.01,-0.73,0.66
31489714,0.01,-0.73,0.66
31491714,0.01,-0.73,0.66
31493662,0.01,-0.73,0.66
31495662,0.01,-0.73,0.66
31497725,0.01,-0.73,0.66
31499708,0.01,-0.73,0.66
31501705,0.01,-0.73,0.66
31503712,0.01,-0.73,0.66
31505782,0.01,-0.73,0.66
31507718,0.01,-0.73,0.66
31509708,0.01,-0.73,0.66
31511711,0.01,-0.73,0.66
31513710,0.01,-0.73,0.66
31515723,0.01,-0.73,0.66
31517696,0.01,-0.73,0.66
31519654,0.01,-0.73,0.66
31521663,0.01,-0.73,0.66
31523673,0.01,-0.73,0.66
31525715,0.01,-0.73,0.66
31527670,0.01,-0.73,0.66
31529666,0.01,-0.73,0.66
31531666,0.01,-0.73,0.66
31533667,0.01,-0.73,0.66
31535654,0.01,-0.73,0.66
31537731,0.01,-0.73,0.66
31539709,0.01,-0.73,0.66
31541733,0.01,-0.73,0.66
31543714,0.01,-0.73,0.66
31545772,0.01,-0.73,0.66
31547725,0.01,-0.73,0.66
31549708,0.01,-0.73,0.66
31551701,0.01,-0.73,0.66
31553739,0.01,-0.73,0.66
31555703,0.01,-0.73,0.66
31557664,0.01,-0.73,0.66
31559663,0.01,-0.73,0.66
31561705,0.01,-0.73,0.66
31563666,0.01,-0.73,0.66
31565667,0.01,-0.73,0.66
31567697,0.01,-0.73,0.66
31569663,0.01,-0.73,0.66
31571664,0.01,-0.73,0.66
31573665,0.01,-0.73,0.66
31575664,0.01,-0.73,0.66
31577722,0.01,-0.73,0.66
31579762,0.01,-0.73,0.66
31581721,0.01,-0.73,0.66
31583707,0.01,-0.73,0.66
31585711,0.01,-0.73,0.66
31587753,0.01,-0.73,0.66
31589718,0.01,-0.73,0.66
31591736,0.01,-0.73,0.66
31593721,0.01,-0.73,0.66
31595723,0.01,-0.73,0.66
31597728,0.01,-0.73,0.66
31599684,0.01,-0.73,0.66
31601665,0.01,-0.73,0.66
31603663,0.01,-0.73,0.66
31605662,0.01,-0.73,0.66
31607691,0.01,-0.73,0.66
31609714,0.01,-0.73,0.66
31611665,0.01,-0.73,0.66
31613681,0.01,-0.73,0.66
31615679,0.01,-0.73,0.66
31617753,0.01,-0.73,0.66
31619708,0.01,-0.73,0.66
31621705,0.01,-0.73,0.66
31623706,0.01,-0.73,0.66
31625708,0.01,-0.73,0.66
31627712,0.01,-0.73,0.66
31629706,0.01,-0.73,0.66
31631681,0.01,-0.73,0.66
31633783,0.01,-0.73,0.66
31635685,0.01,-0.73,0.66
31637664,0.01,-0.73,0.66
31639652,0.01,-0.73,0.66
31641688,0.01,-0.73,0.66
31643713,0.01,-0.73,0.66
31645667,0.01,-0.73,0.66
31647662,0.01,-0.73,0.66
31649661,0.01,-0.73,0.66
31651663,0.01,-0.73,0.66
31653662,0.01,-0.73,0.66
31655676,0.01,-0.73,0.66
31657731,0.01,-0.73,0.66
31659713,0.01,-0.73,0.66
31661725,0.01,-0.73,0.66
31663710,0.01,-0.73,0.66
31665711,0.01,-0.73,0.66
31667797,0.00,-0.73,0.66
31669721,0.00,-0.73,0.66
31671707,0.00,-0.73,0.66
31673704,0.00,-0.73,0.66
31675667,0.00,-0.73,0.66
31677666,0.00,-0.73,0.66
31679671,0.01,-0.73,0.67
31681672,0.01,-0.73,0.67
31683677,0.01,-0.73,0.67
31685675,0.01,-0.73,0.67
31687681,0.01,-0.73,0.67
31689663,0.01,-0.72,0.68
31691681,0.01,-0.72,0.68
31693669,0.01,-0.72,0.68
31695671,0.01,-0.72,0.68
31697709,0.01,-0.72,0.68
31699708,0.02,-0.73,0.65
31701705,0.02,-0.73,0.65
31703706,0.02,-0.73,0.65
31705700,0.02,-0.73,0.65
31707707,0.02,-0.73,0.65
31709665,0.01,-0.73,0.66
31711665,0.01,-0.73,0.66
31713666,0.01,-0.73,0.66
31715667,0.01,-0.73,0.66
31717682,0.01,-0.73,0.66
31719670,0.01,-0.73,0.66
31721670,0.01,-0.73,0.66
31723666,0.01,-0.73,0.66
31725663,0.01,-0.73,0.66
31727664,0.01,-0.73,0.66
31729674,0.01,-0.73,0.67
31731766,0.01,-0.73,0.67
31733688,0.01,-0.73,0.67
31735665,0.01,-0.73,0.67
31737715,0.01,-0.73,0.67
31739702,0.02,-0.73,0.67
31741745,0.02,-0.73,0.67
31743738,0.02,-0.73,0.67
31745723,0.02,-0.73,0.67
31747702,0.02,-0.73,0.67
31749702,0.00,-0.74,0.65
31751713,0.00,-0.74,0.65
31753741,0.00,-0.74,0.65
31755689,0.00,-0.74,0.65
31757663,0.00,-0.74,0.65
31759666,0.00,-0.74,0.65
31761741,0.01,-0.74,0.64
31763677,0.01,-0.74,0.64
31765666,0.01,-0.74,0.64
31767700,0.01,-0.74,0.64
31769665,0.01,-0.74,0.64
31771670,0.01,-0.73,0.65
31773667,0.01,-0.73,0.65
31775666,0.01,-0.73,0.65
31777729,0.01,-0.73,0.65
31779711,0.01,-0.73,0.65
31781708,0.02,-0.73,0.64
31783735,0.02,-0.73,0.64
31785748,0.02,-0.73,0.64
31787712,0.02,-0.73,0.64
31789708,0.02,-0.73,0.64
31791734,0.02,-0.73,0.66
31793707,0.02,-0.73,0.66
31795679,0.02,-0.73,0.66
31797706,0.02,-0.73,0.66
31799692,0.02,-0.73,0.66
31801736,-0.01,-0.73,0.67
31803678,-0.01,-0.73,0.67
31805667,-0.01,-0.73,0.67
31807665,-0.01,-0.73,0.67
31809664,-0.01,-0.73,0.67
31811674,0.00,-0.73,0.66
31813717,0.00,-0.73,0.66
31815666,0.00,-0.73,0.66
31817831,0.00,-0.73,0.66
31819710,0.00,-0.73,0.66
31821706,0.00,-0.73,0.65
31823739,0.00,-0.73,0.65
31825736,0.00,-0.73,0.65
31827707,0.00,-0.73,0.65
31829705,0.00,-0.73,0.65
31831710,0.02,-0.73,0.66
31833736,0.02,-0.73,0.66
31835714,0.02,-0.73,0.66
31837672,0.02,-0.73,0.66
31839670,0.02,-0.73,0.66
31841758,0.05,-0.74,0.65
31843675,0.05,-0.74,0.65
31845674,0.05,-0.74,0.65
31847667,0.05,-0.74,0.65
31849671,0.05,-0.74,0.65
31851678,0.05,-0.74,0.65
31853670,0.02,-0.73,0.64
31855665,0.02,-0.73,0.64
31857706,0.02,-0.73,0.64
31859710,0.02,-0.73,0.64
31861730,0.02,-0.73,0.64
31863711,-0.00,-0.74,0.66
31865712,-0.00,-0.74,0.66
31867792,-0.00,-0.74,0.66
31869693,-0.00,-0.74,0.66
31871671,-0.00,-0.74,0.66
31873704,0.04,-0.73,0.66
31875746,0.04,-0.73,0.66
31877693,0.04,-0.73,0.66
31879665,0.04,-0.73,0.66
31881666,0.04,-0.73,0.66
31883675,-0.02,-0.73,0.66
31885665,-0.02,-0.73,0.66
31887682,-0.02,-0.73,0.66
31889665,-0.02,-0.73,0.66
31891756,-0.02,-0.73,0.66
31893718,0.00,-0.73,0.67
31895667,0.00,-0.73,0.67
31897732,0.00,-0.73,0.67
31899726,0.00,-0.73,0.67
31901706,0.00,-0.73,0.67
31903716,0.01,-0.73,0.66
31905775,0.01,-0.73,0.66
31907719,0.01,-0.73,0.66
31909702,0.01,-0.73,0.66
31911702,0.01,-0.73,0.66
31913724,0.01,-0.73,0.66
31915731,0.01,-0.73,0.66
31917782,0.01,-0.73,0.66
31919669,0.01,-0.73,0.66
31921664,0.01,-0.73,0.66
31923662,0.01,-0.73,0.66
31925665,0.01,-0.73,0.66
31927654,0.01,-0.73,0.66
31929655,0.01,-0.73,0.66
31931666,0.01,-0.73,0.66
31933668,0.01,-0.74,0.66
31935695,0.01,-0.74,0.66
31937742,0.01,-0.74,0.66
31939730,0.01,-0.74,0.66
31941819,0.01,-0.74,0.66
31943710,0.01,-0.74,0.66
31945735,0.01,-0.73,0.66
31947739,0.01,-0.73,0.66
31949705,0.01,-0.73,0.66
31951704,0.01,-0.73,0.66
31953710,0.01,-0.73,0.66
31955727,0.01,-0.73,0.66
31957678,0.01,-0.73,0.66
31959667,0.01,-0.73,0.66
31961698,0.01,-0.73,0.66
31963717,0.01,-0.73,0.66
31965697,0.01,-0.73,0.65
31967779,0.01,-0.73,0.65
31969665,0.01,-0.73,0.65
31971666,0.01,-0.73,0.65
31973653,0.01,-0.73,0.65
31975662,0.09,-0.73,0.64
31977728,0.09,-0.73,0.64
31979710,0.09,-0.73,0.64
31981707,0.09,-0.73,0.64
31983707,0.09,-0.73,0.64
31985705,-0.02,-0.73,0.66
31987714,-0.02,-0.73,0.66
31989697,-0.02,-0.73,0.66
31991753,-0.02,-0.73,0.66
31993680,-0.02,-0.73,0.66
31995670,0.01,-0.73,0.67
31997662,0.01,-0.73,0.67
31999663,0.01,-0.73,0.67
32001720,0.01,-0.73,0.67
32003687,0.01,-0.73,0.67
32005666,0.01,-0.73,0.66
32007655,0.01,-0.73,0.66
32009666,0.01,-0.73,0.66
32011695,0.01,-0.73,0.66
32013774,0.01,-0.73,0.66
32015691,0.01,-0.73,0.66
32017823,0.01,-0.73,0.66
32019705,0.01,-0.73,0.66
32021707,0.01,-0.73,0.66
32023706,0.01,-0.73,0.66
32025704,0.01,-0.73,0.66
32027703,0.01,-0.73,0.66
32029698,0.01,-0.73,0.66
32031663,0.01,-0.73,0.66
32033662,0.01,-0.73,0.66
32035679,0.01,-0.73,0.66
32037748,0.02,-0.73,0.66
32039692,0.02,-0.73,0.66
32041760,0.02,-0.73,0.66
32043667,0.02,-0.73,0.66
32045666,0.02,-0.73,0.66
32047720,0.01,-0.73,0.67
32049697,0.01,-0.73,0.67
32051662,0.01,-0.73,0.67
32053662,0.01,-0.73,0.67
32055654,0.01,-0.73,0.67
32057731,0.01,-0.73,0.66
32059710,0.01,-0.73,0.66
32061727,0.01,-0.73,0.66
32063706,0.01,-0.73,0.66
32065705,0.01,-0.73,0.66
32067809,0.02,-0.73,0.68
32069740,0.02,-0.73,0.68
32071728,0.02,-0.73,0.68
32073705,0.02,-0.73,0.68
32075671,0.02,-0.73,0.68
32077663,0.00,-0.73,0.66
32079667,0.00,-0.73,0.66
32081671,0.00,-0.73,0.66
32083678,0.00,-0.73,0.66
32085674,0.00,-0.73,0.66
32087682,0.01,-0.73,0.67
32089663,0.01,-0.73,0.67
32091761,0.01,-0.73,0.67
32093678,0.01,-0.73,0.67
32095664,0.01,-0.73,0.67
32097713,0.01,-0.73,0.67
32099759,0.01,-0.73,0.67
32101727,0.01,-0.73,0.67
32103706,0.01,-0.73,0.67
32105705,0.01,-0.73,0.67
32107733,0.01,-0.73,0.66
32109741,0.01,-0.73,0.66
32111723,0.01,-0.73,0.66
32113707,0.01,-0.73,0.66
32115705,0.01,-0.73,0.66
32117778,0.01,-0.73,0.66
32119743,0.01,-0.72,0.66
32121689,0.01,-0.72,0.66
32123665,0.01,-0.72,0.66
32125663,0.01,-0.72,0.66
32127723,0.01,-0.72,0.66
32129697,0.01,-0.73,0.66
32131669,0.01,-0.73,0.66
32133665,0.01,-0.73,0.66
32135664,0.01,-0.73,0.66
32137724,0.01,-0.73,0.66
32139706,0.01,-0.73,0.66
32141812,0.01,-0.73,0.66
32143707,0.01,-0.73,0.66
32145704,0.01,-0.73,0.66
32147700,0.01,-0.73,0.66
32149705,0.01,-0.73,0.66
32151670,0.01,-0.73,0.66
32153715,0.01,-0.73,0.66
32155740,0.01,-0.73,0.66
32157684,0.01,-0.73,0.66
32159669,0.01,-0.73,0.66
32161706,0.01,-0.73,0.66
32163666,0.01,-0.73,0.66
32165667,0.01,-0.73,0.66
32167776,0.01,-0.73,0.66
32169671,0.01,-0.72,0.66
32171661,0.01,-0.72,0.66
32173666,0.01,-0.72,0.66
32175670,0.01,-0.72,0.66
32177725,0.01,-0.72,0.66
32179702,0.01,-0.72,0.66
32181706,0.01,-0.72,0.66
32183777,0.01,-0.72,0.66
32185723,0.01,-0.72,0.66
32187714,0.01,-0.72,0.66
32189705,0.01,-0.72,0.66
32191813,0.01,-0.72,0.66
32193677,0.01,-0.72,0.66
32195670,0.01,-0.72,0.66
32197665,0.01,-0.72,0.66
32199669,0.01,-0.72,0.66
32201670,0.01,-0.73,0.67
32203666,0.01,-0.73,0.67
32205678,0.01,-0.73,0.67
32207733,0.01,-0.73,0.67
32209714,0.01,-0.73,0.67
32211665,0.01,-0.72,0.67
32213661,0.01,-0.72,0.67
32215672,0.01,-0.72,0.67
32217851,0.01,-0.72,0.67
32219731,0.01,-0.72,0.67
32221710,0.02,-0.73,0.66
32223704,0.02,-0.73,0.66
32225759,0.02,-0.73,0.66
32227722,0.02,-0.73,0.66
32229703,0.02,-0.73,0.66
32231708,0.01,-0.72,0.68
32233761,0.01,-0.72,0.68
32235722,0.01,-0.72,0.68
32237701,0.01,-0.72,0.68
32239665,0.01,-0.72,0.68
32241760,0.03,-0.73,0.66
32243681,0.03,-0.73,0.66
32245698,0.03,-0.73,0.66
32247744,0.03,-0.73,0.66
32249681,0.03,-0.73,0.66
32251666,0.00,-0.73,0.66
32253677,0.00,-0.73,0.66
32255716,0.00,-0.73,0.66
32257729,0.00,-0.73,0.66
32259710,0.00,-0.73,0.66
32261722,0.01,-0.73,0.66
32263707,0.01,-0.73,0.66
32265706,0.01,-0.73,0.66
32267837,0.01,-0.73,0.66
32269730,0.01,-0.73,0.66
32271712,0.01,-0.73,0.65
32273704,0.01,-0.73,0.65
32275674,0.01,-0.73,0.65
32277667,0.01,-0.73,0.65
32279667,0.01,-0.73,0.65
32281672,0.01,-0.74,0.64
32283683,0.01,-0.74,0.64
32285754,0.01,-0.74,0.64
32287692,0.01,-0.74,0.64
32289666,0.01,-0.74,0.64
32291764,0.01,-0.74,0.64
32293670,0.01,-0.73,0.65
32295667,0.01,-0.73,0.65
32297719,0.01,-0.73,0.65
32299705,0.01,-0.73,0.65
32301705,0.01,-0.73,0.65
32303707,0.01,-0.73,0.65
32305707,0.01,-0.73,0.65
32307710,0.01,-0.73,0.65
32309711,0.01,-0.73,0.65
32311671,0.01,-0.73,0.65
32313665,0.01,-0.74,0.66
32315743,0.01,-0.74,0.66
32317795,0.01,-0.74,0.66
32319670,0.01,-0.74,0.66
32321665,0.01,-0.74,0.66
32323671,0.02,-0.73,0.66
32325667,0.02,-0.73,0.66
32327670,0.02,-0.73,0.66
32329712,0.02,-0.73,0.66
32331666,0.02,-0.73,0.66
32333669,0.01,-0.73,0.66
32335670,0.01,-0.73,0.66
32337734,0.01,-0.73,0.66
32339711,0.01,-0.73,0.66
32341809,0.01,-0.73,0.66
32343734,0.02,-0.73,0.67
32345726,0.02,-0.73,0.67
32347756,0.02,-0.73,0.67
32349707,0.02,-0.73,0.67
32351708,0.02,-0.73,0.67
32353703,0.01,-0.73,0.67
32355666,0.01,-0.73,0.67
32357671,0.01,-0.73,0.67
32359675,0.01,-0.73,0.67
32361705,0.01,-0.73,0.67
32363667,0.01,-0.74,0.66
32365694,0.01,-0.74,0.66
32367870,0.01,-0.74,0.66
32369688,0.01,-0.74,0.66
32371665,0.01,-0.74,0.66
32373662,0.04,-0.74,0.65
32375715,0.04,-0.74,0.65
32377735,0.04,-0.74,0.65
32379707,0.04,-0.74,0.65
32381703,0.04,-0.74,0.65
32383706,0.04,-0.74,0.65
32385730,0.01,-0.75,0.65
32387745,0.01,-0.75,0.65
32389722,0.01,-0.75,0.65
32391810,0.01,-0.75,0.65
32393712,0.01,-0.75,0.65
32395669,0.02,-0.73,0.64
32397759,0.02,-0.73,0.64
32399692,0.02,-0.73,0.64
32401667,0.02,-0.73,0.64
32403670,0.02,-0.73,0.64
32405669,-0.02,-0.73,0.66
32407714,-0.02,-0.73,0.66
32409669,-0.02,-0.73,0.66
32411705,-0.02,-0.73,0.66
32413668,-0.02,-0.73,0.66
32415669,0.01,-0.74,0.64
32417840,0.01,-0.74,0.64
32419710,0.01,-0.74,0.64
32421707,0.01,-0.74,0.64
32423745,0.01,-0.74,0.64
32425743,0.02,-0.74,0.64
32427710,0.02,-0.74,0.64
32429703,0.02,-0.74,0.64
32431695,0.02,-0.74,0.64
32433705,0.02,-0.74,0.64
32435676,0.01,-0.74,0.64
32437748,0.01,-0.74,0.64
32439678,0.01,-0.74,0.64
32441768,0.01,-0.74,0.64
32443676,0.01,-0.74,0.64
32445678,0.01,-0.74,0.64
32447723,0.01,-0.74,0.64
32449667,0.01,-0.74,0.64
32451664,0.01,-0.74,0.64
32453665,0.01,-0.74,0.64
32455653,0.01,-0.74,0.64
32457733,0.01,-0.74,0.64
32459711,0.01,-0.74,0.64
32461734,0.01,-0.74,0.64
32463709,0.01,-0.74,0.64
32465707,0.01,-0.74,0.64
32467815,0.01,-0.74,0.64
32469708,0.01,-0.74,0.64
32471690,0.01,-0.74,0.64
32473662,0.01,-0.74,0.64
32475746,0.01,-0.74,0.64
32477708,0.01,-0.74,0.65
32479663,0.01,-0.74,0.65
32481655,0.01,-0.74,0.65
32483666,0.01,-0.74,0.65
32485667,0.01,-0.74,0.65
32487693,0.01,-0.74,0.65
32489712,0.01,-0.74,0.65
32491765,0.01,-0.74,0.65
32493665,0.01,-0.74,0.65
32495663,0.01,-0.74,0.65
32457733,0.01,-0.74,0.64
32459711,0.01,-0.74,0.64
32461734,0.01,-0.74,0.64
32463709,0.01,-0.74,0.64
32465707,0.01,-0.74,0.64
32467815,0.01,-0.74,0.64
32469708,0.01,-0.74,0.64
32471690,0.01,-0.74,0.64
32473662,0.01,-0.74,0.64
32475746,0.01,-0.74,0.64
timestamp,accX,accY,accZ
70350745,-0.01,0.88,-0.43
70352688,-0.01,0.88,-0.43
70354697,-0.01,0.87,-0.43
70356694,-0.01,0.87,-0.43
70358691,-0.01,0.87,-0.43
70360695,-0.01,0.87,-0.43
70362695,-0.01,0.87,-0.43
70364695,-0.01,0.87,-0.43
70366784,-0.01,0.87,-0.43
70368695,-0.01,0.87,-0.43
70370686,-0.01,0.87,-0.43
70372694,-0.01,0.87,-0.43
70374689,-0.01,0.87,-0.42
70376693,-0.01,0.87,-0.42
70378695,-0.01,0.87,-0.42
70380691,-0.01,0.87,-0.42
70382699,-0.01,0.87,-0.42
70384701,-0.01,0.88,-0.45
70386706,-0.01,0.88,-0.45
70388694,-0.01,0.88,-0.45
70390690,-0.01,0.88,-0.45
70392755,-0.01,0.88,-0.45
70394703,-0.00,0.87,-0.43
70396765,-0.00,0.87,-0.43
70398729,-0.00,0.87,-0.43
70400722,-0.00,0.87,-0.43
70402735,-0.00,0.87,-0.43
70404717,0.00,0.87,-0.45
70406716,0.00,0.87,-0.45
70408763,0.00,0.87,-0.45
70410738,0.00,0.87,-0.45
70412719,0.00,0.87,-0.45
70414714,0.00,0.87,-0.45
70416778,-0.01,0.87,-0.43
70418695,-0.01,0.87,-0.43
70420761,-0.01,0.87,-0.43
70422712,-0.01,0.87,-0.43
70424673,-0.01,0.87,-0.43
70426669,-0.01,0.87,-0.43
70428717,-0.01,0.87,-0.43
70430675,-0.01,0.87,-0.43
70432673,-0.01,0.87,-0.43
70434740,-0.01,0.87,-0.43
70436717,-0.01,0.87,-0.43
70438716,-0.01,0.87,-0.43
70440742,-0.01,0.87,-0.43
70442839,-0.01,0.87,-0.43
70444716,-0.01,0.87,-0.43
70446716,-0.01,0.88,-0.42
70448719,-0.01,0.88,-0.42
70450747,-0.01,0.88,-0.42
70452716,-0.01,0.88,-0.42
70454677,-0.01,0.88,-0.42
70456679,-0.02,0.88,-0.43
70458732,-0.02,0.88,-0.43
70460716,-0.02,0.88,-0.43
70462678,-0.02,0.88,-0.43
70464674,-0.02,0.88,-0.43
70466785,-0.01,0.88,-0.43
70468680,-0.01,0.88,-0.43
70470676,-0.01,0.88,-0.43
70472679,-0.01,0.88,-0.43
70474726,-0.01,0.88,-0.43
70476720,-0.01,0.88,-0.43
70478760,-0.01,0.88,-0.43
70480727,-0.01,0.88,-0.43
70482718,-0.01,0.88,-0.43
70484720,-0.01,0.88,-0.43
70486751,-0.01,0.88,-0.44
70488723,-0.01,0.88,-0.44
70490714,-0.01,0.88,-0.44
70492799,-0.01,0.88,-0.44
70494828,-0.01,0.88,-0.44
70496699,-0.01,0.88,-0.43
70498681,-0.01,0.88,-0.43
70500670,-0.01,0.88,-0.43
70502703,-0.01,0.88,-0.43
70504743,-0.01,0.88,-0.43
70506689,-0.01,0.88,-0.43
70508676,-0.01,0.88,-0.43
70510680,-0.01,0.88,-0.43
70512675,-0.01,0.88,-0.43
70514741,-0.01,0.88,-0.43
70516823,-0.01,0.88,-0.43
70518722,-0.01,0.88,-0.43
70520737,-0.01,0.88,-0.43
70522751,-0.01,0.88,-0.43
70524742,-0.01,0.88,-0.43
70526715,-0.01,0.88,-0.43
70528714,-0.02,0.87,-0.43
70530716,-0.02,0.87,-0.43
70532676,-0.02,0.87,-0.43
70534680,-0.02,0.87,-0.43
70536686,-0.02,0.87,-0.43
70538778,-0.01,0.88,-0.43
70540702,-0.01,0.88,-0.43
70542770,-0.01,0.88,-0.43
70544671,-0.01,0.88,-0.43
70546674,-0.01,0.88,-0.43
70548720,-0.01,0.88,-0.44
70550679,-0.01,0.88,-0.44
70552671,-0.01,0.88,-0.44
70554737,-0.01,0.88,-0.44
70556721,-0.01,0.88,-0.44
70558717,0.00,0.87,-0.43
70560716,0.00,0.87,-0.43
70562719,0.00,0.87,-0.43
70564718,0.00,0.87,-0.43
70566815,0.00,0.87,-0.43
70568684,0.00,0.86,-0.44
70570669,0.00,0.86,-0.44
70572676,0.00,0.86,-0.44
70574681,0.00,0.86,-0.44
70576670,0.00,0.86,-0.44
70578673,-0.00,0.87,-0.43
70580690,-0.00,0.87,-0.43
70582796,-0.00,0.87,-0.43
70584705,-0.00,0.87,-0.43
70586687,-0.00,0.87,-0.43
70588669,-0.00,0.87,-0.43
70590669,-0.01,0.88,-0.43
70592776,-0.01,0.88,-0.43
70594761,-0.01,0.88,-0.43
70596742,-0.01,0.88,-0.43
70598718,-0.01,0.88,-0.43
70600715,-0.01,0.87,-0.43
70602716,-0.01,0.87,-0.43
70604719,-0.01,0.87,-0.43
70606738,-0.01,0.87,-0.43
70608747,-0.01,0.87,-0.43
70610727,-0.01,0.87,-0.43
70612773,-0.01,0.87,-0.43
70614680,-0.01,0.87,-0.43
70616784,-0.01,0.87,-0.43
70618687,-0.01,0.87,-0.43
70620680,-0.02,0.87,-0.43
70622675,-0.02,0.87,-0.43
70624716,-0.02,0.87,-0.43
70626670,-0.02,0.87,-0.43
70628678,-0.02,0.87,-0.43
70630684,-0.02,0.88,-0.42
70632762,-0.02,0.88,-0.42
70634730,-0.02,0.88,-0.42
70636711,-0.02,0.88,-0.42
70638743,-0.02,0.88,-0.42
70640744,-0.01,0.88,-0.43
70642826,-0.01,0.88,-0.43
70644718,-0.01,0.88,-0.43
70646715,-0.01,0.88,-0.43
70648835,-0.01,0.88,-0.43
70650730,-0.01,0.87,-0.44
70652717,-0.01,0.87,-0.44
70654685,-0.01,0.87,-0.44
70656671,-0.01,0.87,-0.44
70658686,-0.01,0.87,-0.44
70660760,0.00,0.86,-0.43
70662702,0.00,0.86,-0.43
70664674,0.00,0.86,-0.43
70666782,0.00,0.86,-0.43
70668682,0.00,0.86,-0.43
70670672,0.00,0.87,-0.43
70672675,0.00,0.87,-0.43
70674725,0.00,0.87,-0.43
70676718,0.00,0.87,-0.43
70678716,0.00,0.87,-0.43
70680718,0.00,0.87,-0.43
70682719,-0.02,0.88,-0.42
70684719,-0.02,0.88,-0.42
70686706,-0.02,0.88,-0.42
70688679,-0.02,0.88,-0.42
70690734,-0.02,0.88,-0.42
70692848,-0.02,0.88,-0.43
70694685,-0.02,0.88,-0.43
70696671,-0.02,0.88,-0.43
70698671,-0.02,0.88,-0.43
70700675,-0.02,0.88,-0.43
70702717,-0.02,0.88,-0.43
70704709,-0.02,0.88,-0.43
70706672,-0.02,0.88,-0.43
70708713,-0.02,0.88,-0.43
70710699,-0.02,0.88,-0.43
70712678,-0.01,0.88,-0.43
70714736,-0.01,0.88,-0.43
70716821,-0.01,0.88,-0.43
70718716,-0.01,0.88,-0.43
70720743,-0.01,0.88,-0.43
70722749,-0.01,0.88,-0.44
70724740,-0.01,0.88,-0.44
70726716,-0.01,0.88,-0.44
70728719,-0.01,0.88,-0.44
70730768,-0.01,0.88,-0.44
70732727,-0.02,0.88,-0.42
70734716,-0.02,0.88,-0.42
70736680,-0.02,0.88,-0.42
70738750,-0.02,0.88,-0.42
70740712,-0.02,0.88,-0.42
70742777,-0.02,0.89,-0.43
70744672,-0.02,0.89,-0.43
70746723,-0.02,0.89,-0.43
70748714,-0.02,0.89,-0.43
70750674,-0.02,0.89,-0.43
70752672,-0.02,0.88,-0.42
70754743,-0.02,0.88,-0.42
70756718,-0.02,0.88,-0.42
70758718,-0.02,0.88,-0.42
70760716,-0.02,0.88,-0.42
70762716,-0.02,0.88,-0.42
70764718,-0.02,0.88,-0.43
70766819,-0.02,0.88,-0.43
70768709,-0.02,0.88,-0.43
70770792,-0.02,0.88,-0.43
70772693,-0.02,0.88,-0.43
70774674,-0.01,0.88,-0.43
70776668,-0.01,0.88,-0.43
70778671,-0.01,0.88,-0.43
70780672,-0.01,0.88,-0.43
70782672,-0.01,0.88,-0.43
70784688,-0.01,0.87,-0.44
70786714,-0.01,0.87,-0.44
70788720,-0.01,0.87,-0.44
70790679,-0.01,0.87,-0.44
70792771,-0.01,0.87,-0.44
70794743,-0.01,0.87,-0.43
70796725,-0.01,0.87,-0.43
70798716,-0.01,0.87,-0.43
70800717,-0.01,0.87,-0.43
70802716,-0.01,0.87,-0.43
70804715,0.00,0.86,-0.43
70806719,0.00,0.86,-0.43
70808706,0.00,0.86,-0.43
70810686,0.00,0.86,-0.43
70812751,0.00,0.86,-0.43
70814718,0.00,0.87,-0.43
70816776,0.00,0.87,-0.43
70818678,0.00,0.87,-0.43
70820671,0.00,0.87,-0.43
70822678,0.00,0.87,-0.43
70824720,0.00,0.88,-0.43
70826719,0.00,0.88,-0.43
70828679,0.00,0.88,-0.43
70830673,0.00,0.88,-0.43
70832676,0.00,0.88,-0.43
70834741,0.00,0.86,-0.43
70836715,0.00,0.86,-0.43
70838713,0.00,0.86,-0.43
70840736,0.00,0.86,-0.43
70842862,0.00,0.86,-0.43
70844730,0.00,0.86,-0.43
70846716,0.00,0.86,-0.43
70848718,0.00,0.86,-0.43
70850720,0.00,0.86,-0.43
70852748,0.00,0.86,-0.43
70854696,0.00,0.86,-0.43
70856678,-0.01,0.87,-0.43
70858671,-0.01,0.87,-0.43
70860673,-0.01,0.87,-0.43
70862670,-0.01,0.87,-0.43
70864673,-0.01,0.87,-0.43
70866782,-0.02,0.88,-0.43
70868679,-0.02,0.88,-0.43
70870671,-0.02,0.88,-0.43
70872669,-0.02,0.88,-0.43
70874739,-0.02,0.88,-0.43
70876798,-0.02,0.89,-0.42
70878722,-0.02,0.89,-0.42
70880715,-0.02,0.89,-0.42
70882721,-0.02,0.89,-0.42
70884723,-0.02,0.89,-0.42
70886756,-0.02,0.88,-0.44
70888733,-0.02,0.88,-0.44
70890716,-0.02,0.88,-0.44
70892796,-0.02,0.88,-0.44
70894676,-0.02,0.88,-0.44
70896729,-0.02,0.88,-0.43
70898718,-0.02,0.88,-0.43
70900671,-0.02,0.88,-0.43
70902673,-0.02,0.88,-0.43
70904678,-0.02,0.88,-0.43
70906720,-0.02,0.88,-0.43
70908679,-0.02,0.88,-0.43
70910684,-0.02,0.88,-0.43
70912694,-0.02,0.88,-0.43
70914740,-0.02,0.88,-0.43
70916827,-0.01,0.88,-0.43
70918715,-0.01,0.88,-0.43
70920716,-0.01,0.88,-0.43
70922756,-0.01,0.88,-0.43
70924735,-0.01,0.88,-0.43
70926718,-0.01,0.86,-0.43
70928718,-0.01,0.86,-0.43
70930714,-0.01,0.86,-0.43
70932715,-0.01,0.86,-0.43
70934682,-0.01,0.86,-0.43
70936683,-0.01,0.86,-0.43
70938671,0.00,0.87,-0.43
70940681,0.00,0.87,-0.43
70942859,0.00,0.87,-0.43
70944702,0.00,0.87,-0.43
70946666,0.00,0.87,-0.43
70948674,-0.00,0.88,-0.43
70950686,-0.00,0.88,-0.43
70952716,-0.00,0.88,-0.43
70954735,-0.00,0.88,-0.43
70956717,-0.00,0.88,-0.43
70958715,-0.00,0.87,-0.43
70960718,-0.00,0.87,-0.43
70962714,-0.00,0.87,-0.43
70964721,-0.00,0.87,-0.43
70966834,-0.00,0.87,-0.43
70968748,-0.00,0.86,-0.45
70970716,-0.00,0.86,-0.45
70972681,-0.00,0.86,-0.45
70974680,-0.00,0.86,-0.45
70976685,-0.00,0.86,-0.45
70978680,-0.02,0.88,-0.43
70980676,-0.02,0.88,-0.43
70982678,-0.02,0.88,-0.43
70984685,-0.02,0.88,-0.43
70986691,-0.02,0.88,-0.43
70988705,-0.02,0.88,-0.43
70990763,-0.02,0.88,-0.43
70992804,-0.02,0.88,-0.43
70994730,-0.02,0.88,-0.43
70996717,-0.02,0.88,-0.43
70998714,-0.03,0.88,-0.43
71000716,-0.03,0.88,-0.43
71002719,-0.03,0.88,-0.43
71004718,-0.03,0.88,-0.43
71006718,-0.03,0.88,-0.43
71008686,-0.02,0.88,-0.43
71010753,-0.02,0.88,-0.43
71012696,-0.02,0.88,-0.43
71014682,-0.02,0.88,-0.43
71016776,-0.02,0.88,-0.43
71018706,-0.01,0.88,-0.43
71020717,-0.01,0.88,-0.43
71022688,-0.01,0.88,-0.43
71024714,-0.01,0.88,-0.43
71026682,-0.01,0.88,-0.43
71028681,-0.01,0.88,-0.43
71030693,-0.01,0.87,-0.43
71032719,-0.01,0.87,-0.43
71034749,-0.01,0.87,-0.43
71036730,-0.01,0.87,-0.43
71038717,-0.01,0.87,-0.43
71040735,-0.01,0.88,-0.44
71042848,-0.01,0.88,-0.44
71044717,-0.01,0.88,-0.44
71046715,-0.01,0.88,-0.44
71048719,-0.01,0.88,-0.44
71050741,-0.01,0.87,-0.43
71052724,-0.01,0.87,-0.43
71054700,-0.01,0.87,-0.43
71056683,-0.01,0.87,-0.43
71058745,-0.01,0.87,-0.43
71060715,-0.01,0.87,-0.43
71062687,-0.01,0.87,-0.43
71064681,-0.01,0.87,-0.43
71066819,-0.01,0.87,-0.43
71068721,-0.01,0.87,-0.43
71070684,-0.01,0.87,-0.43
71072684,-0.01,0.87,-0.43
71074739,-0.01,0.87,-0.43
71076718,-0.01,0.87,-0.43
71078718,-0.01,0.87,-0.43
71080715,-0.00,0.88,-0.43
71082722,-0.00,0.88,-0.43
71084721,-0.00,0.88,-0.43
71086719,-0.00,0.88,-0.43
71088680,-0.00,0.88,-0.43
71090683,-0.02,0.88,-0.43
71092786,-0.02,0.88,-0.43
71094687,-0.02,0.88,-0.43
71096781,-0.02,0.88,-0.43
71098704,-0.02,0.88,-0.43
71100683,-0.01,0.88,-0.43
71102677,-0.01,0.88,-0.43
71104686,-0.01,0.88,-0.43
71106718,-0.01,0.88,-0.43
71108716,-0.01,0.88,-0.43
71110680,-0.01,0.88,-0.43
71112683,0.00,0.86,-0.44
71114743,0.00,0.86,-0.44
71116820,0.00,0.86,-0.44
71118724,0.00,0.86,-0.44
71120739,0.00,0.86,-0.44
71122760,-0.00,0.87,-0.43
71124738,-0.00,0.87,-0.43
71126734,-0.00,0.87,-0.43
71128729,-0.00,0.87,-0.43
71130743,-0.00,0.87,-0.43
71132761,-0.00,0.88,-0.43
71134737,-0.00,0.88,-0.43
71136717,-0.00,0.88,-0.43
71138686,-0.00,0.88,-0.43
71140686,-0.00,0.88,-0.43
71142783,-0.02,0.88,-0.43
71144683,-0.02,0.88,-0.43
71146683,-0.02,0.88,-0.43
71148694,-0.02,0.88,-0.43
71150762,-0.02,0.88,-0.43
71152709,0.00,0.87,-0.43
71154720,0.00,0.87,-0.43
71156716,0.00,0.87,-0.43
71158719,0.00,0.87,-0.43
71160720,0.00,0.87,-0.43
71162720,0.00,0.87,-0.43
71164717,0.00,0.87,-0.43
71166820,0.00,0.87,-0.43
71168687,0.00,0.87,-0.43
71170677,0.00,0.87,-0.43
71172774,-0.00,0.87,-0.44
71174709,-0.00,0.87,-0.44
71176682,-0.00,0.87,-0.44
71178685,-0.00,0.87,-0.44
71180681,-0.00,0.87,-0.44
71182689,-0.01,0.88,-0.44
71184690,-0.01,0.88,-0.44
71186692,-0.01,0.88,-0.44
71188680,-0.01,0.88,-0.44
71190686,-0.01,0.88,-0.44
71192778,-0.02,0.88,-0.42
71194754,-0.02,0.88,-0.42
71196760,-0.02,0.88,-0.42
71198740,-0.02,0.88,-0.42
71200717,-0.02,0.88,-0.42
71202718,-0.02,0.88,-0.42
71204758,-0.02,0.87,-0.42
71206744,-0.02,0.87,-0.42
71208718,-0.02,0.87,-0.42
71210715,-0.02,0.87,-0.42
71212719,-0.02,0.87,-0.42
71214689,-0.01,0.88,-0.43
71216791,-0.01,0.88,-0.43
71218691,-0.01,0.88,-0.43
71220724,-0.01,0.88,-0.43
71222711,-0.01,0.88,-0.43
71224711,0.00,0.88,-0.44
71226746,0.00,0.88,-0.44
71228719,0.00,0.88,-0.44
71230680,0.00,0.88,-0.44
71232686,0.00,0.88,-0.44
71234734,0.01,0.86,-0.44
71236717,0.01,0.86,-0.44
71238717,0.01,0.86,-0.44
71240746,0.01,0.86,-0.44
71242852,0.01,0.86,-0.44
71244717,0.01,0.87,-0.43
71246719,0.01,0.87,-0.43
71248719,0.01,0.87,-0.43
71250769,0.01,0.87,-0.43
71252715,0.01,0.87,-0.43
71254685,0.00,0.88,-0.44
71256686,0.00,0.88,-0.44
71258687,0.00,0.88,-0.44
71260688,0.00,0.88,-0.44
71262687,0.00,0.88,-0.44
71264676,-0.00,0.88,-0.42
71266788,-0.00,0.88,-0.42
71268688,-0.00,0.88,-0.42
71270685,-0.00,0.88,-0.42
71272681,-0.00,0.88,-0.42
71274723,-0.00,0.87,-0.42
71276718,-0.00,0.87,-0.42
71278716,-0.00,0.87,-0.42
71280719,-0.00,0.87,-0.42
71282720,-0.00,0.87,-0.42
71284720,0.00,0.88,-0.43
71286718,0.00,0.88,-0.43
71288687,0.00,0.88,-0.43
71290691,0.00,0.88,-0.43
71292762,0.00,0.88,-0.43
71294685,0.00,0.88,-0.43
71296681,0.00,0.89,-0.44
71298683,0.00,0.89,-0.44
71300683,0.00,0.89,-0.44
71302688,0.00,0.89,-0.44
71304689,0.00,0.89,-0.44
71306687,-0.02,0.88,-0.42
71308746,-0.02,0.88,-0.42
71310740,-0.02,0.88,-0.42
71312675,-0.02,0.88,-0.42
71314718,-0.02,0.88,-0.42
71316820,-0.01,0.87,-0.41
71318712,-0.01,0.87,-0.41
71320745,-0.01,0.87,-0.41
71322743,-0.01,0.87,-0.41
71324736,-0.01,0.87,-0.41
71326713,-0.00,0.88,-0.44
71328730,-0.00,0.88,-0.44
71330712,-0.00,0.88,-0.44
71332798,-0.00,0.88,-0.44
71334698,-0.00,0.88,-0.44
71336677,-0.00,0.88,-0.43
71338679,-0.00,0.88,-0.43
71340680,-0.00,0.88,-0.43
71342774,-0.00,0.88,-0.43
71344676,-0.00,0.88,-0.43
71346678,-0.01,0.88,-0.43
71348679,-0.01,0.88,-0.43
71350715,-0.01,0.88,-0.43
71352678,-0.01,0.88,-0.43
71354723,-0.01,0.88,-0.43
71356713,-0.00,0.88,-0.43
71358715,-0.00,0.88,-0.43
71360715,-0.00,0.88,-0.43
71362714,-0.00,0.88,-0.43
71364715,-0.00,0.88,-0.43
71366744,0.00,0.86,-0.43
71368726,0.00,0.86,-0.43
71370681,0.00,0.86,-0.43
71372676,0.00,0.86,-0.43
71374681,0.00,0.86,-0.43
71376672,0.00,0.86,-0.43
71378673,0.01,0.88,-0.45
71380677,0.01,0.88,-0.45
71382684,0.01,0.88,-0.45
71384832,0.01,0.88,-0.45
71386695,0.01,0.88,-0.45
71388675,0.00,0.87,-0.43
71390672,0.00,0.87,-0.43
71392703,0.00,0.87,-0.43
71394739,0.00,0.87,-0.43
71396723,0.00,0.87,-0.43
71398736,0.00,0.88,-0.43
71400712,0.00,0.88,-0.43
71402735,0.00,0.88,-0.43
71404737,0.00,0.88,-0.43
71406709,0.00,0.88,-0.43
71408711,0.01,0.88,-0.44
71410716,0.01,0.88,-0.44
71412760,0.01,0.88,-0.44
71414729,0.01,0.88,-0.44
71416730,0.01,0.88,-0.44
71418669,0.01,0.88,-0.44
71420730,0.01,0.88,-0.44
71422704,0.01,0.88,-0.44
71424663,0.01,0.88,-0.44
71426676,0.01,0.88,-0.44
71428715,-0.00,0.88,-0.43
71430714,-0.00,0.88,-0.43
71432695,-0.00,0.88,-0.43
71434732,-0.00,0.88,-0.43
71436710,-0.00,0.88,-0.43
71438710,-0.00,0.88,-0.43
71440711,-0.00,0.88,-0.43
71442735,-0.00,0.88,-0.43
71444713,-0.00,0.88,-0.43
71446710,-0.00,0.88,-0.43
71448701,-0.01,0.91,-0.43
71450675,-0.01,0.91,-0.43
71452752,-0.01,0.91,-0.43
71454691,-0.01,0.91,-0.43
71456665,-0.01,0.91,-0.43
71458665,-0.01,0.91,-0.43
71460663,0.00,0.91,-0.45
71462654,0.00,0.91,-0.45
71464663,0.00,0.91,-0.45
71466685,0.00,0.91,-0.45
71468667,0.00,0.91,-0.45
71470654,-0.01,0.91,-0.44
71472712,-0.01,0.91,-0.44
71474729,-0.01,0.91,-0.44
71476712,-0.01,0.91,-0.44
71478709,-0.01,0.91,-0.44
71480705,0.01,0.93,-0.46
71482706,0.01,0.93,-0.46
71484779,0.01,0.93,-0.46
71486744,0.01,0.93,-0.46
71488734,0.01,0.93,-0.46
71490708,0.02,0.90,-0.45
71492705,0.02,0.90,-0.45
71494671,0.02,0.90,-0.45
71496663,0.02,0.90,-0.45
71498665,0.02,0.90,-0.45
71500675,0.03,0.86,-0.45
71502665,0.03,0.86,-0.45
71504665,0.03,0.86,-0.45
71506674,0.03,0.86,-0.45
71508735,0.03,0.86,-0.45
71510689,0.04,0.87,-0.42
71512661,0.04,0.87,-0.42
71514721,0.04,0.87,-0.42
71516749,0.04,0.87,-0.42
71518713,0.04,0.87,-0.42
71520701,0.05,0.91,-0.48
71522716,0.05,0.91,-0.48
71524732,0.05,0.91,-0.48
71526714,0.05,0.91,-0.48
71528723,0.05,0.91,-0.48
71530714,0.04,0.99,-0.45
71532712,0.04,0.99,-0.45
71534732,0.04,0.99,-0.45
71536700,0.04,0.99,-0.45
71538665,0.04,0.99,-0.45
71540662,0.06,0.85,-0.45
71542719,0.06,0.85,-0.45
71544713,0.06,0.85,-0.45
71546665,0.06,0.85,-0.45
71548664,0.06,0.85,-0.45
71550655,0.06,0.85,-0.45
71552651,0.07,0.78,-0.43
71554729,0.07,0.78,-0.43
71556711,0.07,0.78,-0.43
71558708,0.07,0.78,-0.43
71560707,0.07,0.78,-0.43
71562704,0.09,0.77,-0.40
71564708,0.09,0.77,-0.40
71566732,0.09,0.77,-0.40
71568665,0.09,0.77,-0.40
71570663,0.09,0.77,-0.40
71572667,0.12,0.77,-0.44
71574663,0.12,0.77,-0.44
71576668,0.12,0.77,-0.44
71578663,0.12,0.77,-0.44
71580664,0.12,0.77,-0.44
71582654,0.15,0.79,-0.47
71584676,0.15,0.79,-0.47
71586687,0.15,0.79,-0.47
71588666,0.15,0.79,-0.47
71590666,0.15,0.79,-0.47
71592675,0.14,0.80,-0.47
71594709,0.14,0.80,-0.47
71596700,0.14,0.80,-0.47
71598702,0.14,0.80,-0.47
71600705,0.14,0.80,-0.47
71602707,0.09,0.83,-0.43
71604802,0.09,0.83,-0.43
71606718,0.09,0.83,-0.43
71608703,0.09,0.83,-0.43
71610670,0.09,0.83,-0.43
71612734,0.07,0.86,-0.42
71614669,0.07,0.86,-0.42
71616715,0.07,0.86,-0.42
71618732,0.07,0.86,-0.42
71620678,0.07,0.86,-0.42
71622653,0.09,0.89,-0.45
71624672,0.09,0.89,-0.45
71626719,0.09,0.89,-0.45
71628699,0.09,0.89,-0.45
71630707,0.09,0.89,-0.45
71632677,0.09,0.86,-0.43
71634722,0.09,0.86,-0.43
71636711,0.09,0.86,-0.43
71638706,0.09,0.86,-0.43
71640705,0.09,0.86,-0.43
71642759,0.09,0.86,-0.43
71644712,0.11,0.86,-0.44
71646702,0.11,0.86,-0.44
71648703,0.11,0.86,-0.44
71650700,0.11,0.86,-0.44
71652666,0.11,0.86,-0.44
71654669,0.12,0.87,-0.43
71656666,0.12,0.87,-0.43
71658667,0.12,0.87,-0.43
71660664,0.12,0.87,-0.43
71662666,0.12,0.87,-0.43
71664663,0.12,0.86,-0.46
71666680,0.12,0.86,-0.46
71668667,0.12,0.86,-0.46
71670703,0.12,0.86,-0.46
71672770,0.12,0.86,-0.46
71674718,0.09,0.95,-0.45
71676706,0.09,0.95,-0.45
71678705,0.09,0.95,-0.45
71680732,0.09,0.95,-0.45
71682733,0.09,0.95,-0.45
71684716,0.11,1.09,-0.49
71686713,0.11,1.09,-0.49
71688711,0.11,1.09,-0.49
71690667,0.11,1.09,-0.49
71692845,0.11,1.09,-0.49
71694695,0.11,1.00,-0.48
71696665,0.11,1.00,-0.48
71698650,0.11,1.00,-0.48
71700726,0.11,1.00,-0.48
71702689,0.11,1.00,-0.48
71704663,0.10,0.95,-0.40
71706662,0.10,0.95,-0.40
71708666,0.10,0.95,-0.40
71710662,0.10,0.95,-0.40
71712651,0.10,0.95,-0.40
71714725,0.11,0.87,-0.37
71716734,0.11,0.87,-0.37
71718702,0.11,0.87,-0.37
71720704,0.11,0.87,-0.37
71722712,0.11,0.87,-0.37
71724735,0.11,0.87,-0.37
71726718,0.16,0.87,-0.38
71728723,0.16,0.87,-0.38
71730706,0.16,0.87,-0.38
71732703,0.16,0.87,-0.38
71734707,0.16,0.87,-0.38
71736662,0.18,0.82,-0.37
71738663,0.18,0.82,-0.37
71740664,0.18,0.82,-0.37
71742700,0.18,0.82,-0.37
71744737,0.18,0.82,-0.37
71746679,0.19,0.83,-0.36
71748654,0.19,0.83,-0.36
71750654,0.19,0.83,-0.36
71752732,0.19,0.83,-0.36
71754728,0.19,0.83,-0.36
71756713,0.23,0.80,-0.36
71758703,0.23,0.80,-0.36
71760705,0.23,0.80,-0.36
71762706,0.23,0.80,-0.36
71764707,0.23,0.80,-0.36
71766726,0.22,0.82,-0.35
71768665,0.22,0.82,-0.35
71770663,0.22,0.82,-0.35
71772662,0.22,0.82,-0.35
71774662,0.22,0.82,-0.35
71776662,0.21,0.82,-0.33
71778654,0.21,0.82,-0.33
71780665,0.21,0.82,-0.33
71782690,0.21,0.82,-0.33
71784767,0.21,0.82,-0.33
71786693,0.20,0.82,-0.34
71788664,0.20,0.82,-0.34
71790662,0.20,0.82,-0.34
71792699,0.20,0.82,-0.34
71794730,0.20,0.82,-0.34
71796735,0.21,0.83,-0.36
71798705,0.21,0.83,-0.36
71800708,0.21,0.83,-0.36
71802741,0.21,0.83,-0.36
71804730,0.21,0.83,-0.36
71806706,0.21,1.10,-0.41
71808708,0.21,1.10,-0.41
71810706,0.21,1.10,-0.41
71812688,0.21,1.10,-0.41
71814654,0.21,1.10,-0.41
71816701,0.21,1.10,-0.41
71818747,0.22,0.97,-0.40
71820683,0.22,0.97,-0.40
71822667,0.22,0.97,-0.40
71824652,0.22,0.97,-0.40
71826705,0.22,0.97,-0.40
71828716,0.21,0.98,-0.39
71830671,0.21,0.98,-0.39
71832653,0.21,0.98,-0.39
71834729,0.21,0.98,-0.39
71836728,0.21,0.98,-0.39
71838709,0.21,0.87,-0.35
71840709,0.21,0.87,-0.35
71842727,0.21,0.87,-0.35
71844705,0.21,0.87,-0.35
71846726,0.21,0.87,-0.35
71848777,0.21,0.83,-0.36
71850714,0.21,0.83,-0.36
71852667,0.21,0.83,-0.36
71854667,0.21,0.83,-0.36
71856669,0.21,0.83,-0.36
71858735,0.21,0.80,-0.33
71860702,0.21,0.80,-0.33
71862654,0.21,0.80,-0.33
71864652,0.21,0.80,-0.33
71866708,0.21,0.80,-0.33
71868669,0.22,0.81,-0.33
71870663,0.22,0.81,-0.33
71872665,0.22,0.81,-0.33
71874714,0.22,0.81,-0.33
71876708,0.22,0.81,-0.33
71878705,0.23,0.84,-0.31
71880705,0.23,0.84,-0.31
71882708,0.23,0.84,-0.31
71884708,0.23,0.84,-0.31
71886687,0.23,0.84,-0.31
71888742,0.26,0.86,-0.34
71890696,0.26,0.86,-0.34
71892699,0.26,0.86,-0.34
71894668,0.26,0.86,-0.34
71896655,0.26,0.86,-0.34
71898666,0.26,0.86,-0.34
71900665,0.29,0.85,-0.32
71902652,0.29,0.85,-0.32
71904653,0.29,0.85,-0.32
71906661,0.29,0.85,-0.32
71908652,0.29,0.85,-0.32
71910662,0.29,1.01,-0.36
71912662,0.29,1.01,-0.36
71914716,0.29,1.01,-0.36
71916753,0.29,1.01,-0.36
71918729,0.29,1.01,-0.36
71920706,0.30,0.92,-0.34
71922701,0.30,0.92,-0.34
71924710,0.30,0.92,-0.34
71926733,0.30,0.92,-0.34
71928744,0.30,0.92,-0.34
71930703,0.27,0.89,-0.34
71932707,0.27,0.89,-0.34
71934696,0.27,0.89,-0.34
71936719,0.27,0.89,-0.34
71938705,0.27,0.89,-0.34
71940664,0.27,0.84,-0.34
71942690,0.27,0.84,-0.34
71944712,0.27,0.84,-0.34
71946665,0.27,0.84,-0.34
71948663,0.27,0.84,-0.34
71950664,0.28,0.80,-0.32
71952665,0.28,0.80,-0.32
71954730,0.28,0.80,-0.32
71956711,0.28,0.80,-0.32
71958709,0.28,0.80,-0.32
71960707,0.29,0.79,-0.31
71962707,0.29,0.79,-0.31
71964729,0.29,0.79,-0.31
71966739,0.29,0.79,-0.31
71968704,0.29,0.79,-0.31
71970667,0.29,0.81,-0.33
71972679,0.29,0.81,-0.33
71974740,0.29,0.81,-0.33
71976694,0.29,0.81,-0.33
71978653,0.29,0.81,-0.33
71980665,0.29,0.83,-0.33
71982662,0.29,0.83,-0.33
71984667,0.29,0.83,-0.33
71986690,0.29,0.83,-0.33
71988712,0.29,0.83,-0.33
71990669,0.29,0.83,-0.33
71992695,0.29,0.86,-0.33
71994729,0.29,0.86,-0.33
71996710,0.29,0.86,-0.33
71998702,0.29,0.86,-0.33
72000715,0.29,0.86,-0.33
72002734,0.29,0.86,-0.33
72004717,0.29,0.86,-0.33
72006705,0.29,0.86,-0.33
72008707,0.29,0.86,-0.33
72010700,0.29,0.86,-0.33
72012741,0.28,0.84,-0.33
72014678,0.28,0.84,-0.33
72016684,0.28,0.84,-0.33
72018671,0.28,0.84,-0.33
72020664,0.28,0.84,-0.33
72022709,0.29,0.82,-0.34
72024671,0.29,0.82,-0.34
72026667,0.29,0.82,-0.34
72028703,0.29,0.82,-0.34
72030665,0.29,0.82,-0.34
72032667,0.27,0.95,-0.35
72034726,0.27,0.95,-0.35
72036705,0.27,0.95,-0.35
72038704,0.27,0.95,-0.35
72040729,0.27,0.95,-0.35
72042751,0.29,0.92,-0.35
72044821,0.29,0.92,-0.35
72046723,0.29,0.92,-0.35
72048707,0.29,0.92,-0.35
72050702,0.29,0.92,-0.35
72052661,0.28,0.92,-0.35
72054652,0.28,0.92,-0.35
72056652,0.28,0.92,-0.35
72058665,0.28,0.92,-0.35
72060662,0.28,0.92,-0.35
72062665,0.29,0.88,-0.32
72064662,0.29,0.88,-0.32
72066765,0.29,0.88,-0.32
72068696,0.29,0.88,-0.32
72070737,0.29,0.88,-0.32
72072681,0.29,0.88,-0.32
72074713,0.30,0.88,-0.38
72076709,0.30,0.88,-0.38
72078744,0.30,0.88,-0.38
72080727,0.30,0.88,-0.38
72082707,0.30,0.88,-0.38
72084706,0.30,0.93,-0.35
72086726,0.30,0.93,-0.35
72088731,0.30,0.93,-0.35
72090714,0.30,0.93,-0.35
72092699,0.30,0.93,-0.35
72094655,0.29,0.90,-0.36
72096666,0.29,0.90,-0.36
72098664,0.29,0.90,-0.36
72100661,0.29,0.90,-0.36
72102676,0.29,0.90,-0.36
72104740,0.31,1.12,-0.40
72106687,0.31,1.12,-0.40
72108653,0.31,1.12,-0.40
72110686,0.31,1.12,-0.40
72112709,0.31,1.12,-0.40
72114727,0.29,0.89,-0.38
72116822,0.29,0.89,-0.38
72118710,0.29,0.89,-0.38
72120740,0.29,0.89,-0.38
72122735,0.29,0.89,-0.38
72124709,0.27,0.84,-0.36
72126709,0.27,0.84,-0.36
72128736,0.27,0.84,-0.36
72130787,0.27,0.84,-0.36
72132720,0.27,0.84,-0.36
72134702,0.28,0.75,-0.32
72136668,0.28,0.75,-0.32
72138731,0.28,0.75,-0.32
72140703,0.28,0.75,-0.32
72142726,0.28,0.75,-0.32
72144671,0.30,0.75,-0.34
72146665,0.30,0.75,-0.34
72148665,0.30,0.75,-0.34
72150664,0.30,0.75,-0.34
72152654,0.30,0.75,-0.34
72154728,0.32,0.77,-0.33
72156710,0.32,0.77,-0.33
72158703,0.32,0.77,-0.33
72160707,0.32,0.77,-0.33
72162773,0.32,0.77,-0.33
72164722,0.32,0.77,-0.33
72166732,0.34,0.79,-0.34
72168705,0.34,0.79,-0.34
72170664,0.34,0.79,-0.34
72172665,0.34,0.79,-0.34
72174668,0.34,0.79,-0.34
72176662,0.34,0.79,-0.34
72178664,0.34,0.79,-0.34
72180662,0.34,0.79,-0.34
72182665,0.34,0.79,-0.34
72184671,0.34,0.79,-0.34
72186685,0.33,0.75,-0.33
72188675,0.33,0.75,-0.33
72190663,0.33,0.75,-0.33
72192765,0.33,0.75,-0.33
72194724,0.33,0.75,-0.33
72196708,0.32,0.74,-0.32
72198705,0.32,0.74,-0.32
72200704,0.32,0.74,-0.32
72202737,0.32,0.74,-0.32
72204727,0.32,0.74,-0.32
72206710,0.33,0.80,-0.33
72208707,0.33,0.80,-0.33
72210688,0.33,0.80,-0.33
72212667,0.33,0.80,-0.33
72214668,0.33,0.80,-0.33
72216688,0.32,0.86,-0.35
72218733,0.32,0.86,-0.35
72220729,0.32,0.86,-0.35
72222667,0.32,0.86,-0.35
72224651,0.32,0.86,-0.35
72226670,0.31,0.96,-0.37
72228706,0.31,0.96,-0.37
72230713,0.31,0.96,-0.37
72232664,0.31,0.96,-0.37
72234730,0.31,0.96,-0.37
72236707,0.31,0.94,-0.38
72238708,0.31,0.94,-0.38
72240716,0.31,0.94,-0.38
72242798,0.31,0.94,-0.38
72244730,0.31,0.94,-0.38
72246728,0.29,1.00,-0.39
72248705,0.29,1.00,-0.39
72250705,0.29,1.00,-0.39
72252675,0.29,1.00,-0.39
72254734,0.29,1.00,-0.39
72256681,0.29,1.00,-0.39
72258665,0.28,0.93,-0.37
72260661,0.28,0.93,-0.37
72262666,0.28,0.93,-0.37
72264662,0.28,0.93,-0.37
72266707,0.28,0.93,-0.37
72268716,0.28,0.92,-0.37
72270667,0.28,0.92,-0.37
72272663,0.28,0.92,-0.37
72274725,0.28,0.92,-0.37
72276711,0.28,0.92,-0.37
72278716,0.29,0.83,-0.36
72280709,0.29,0.83,-0.36
72282763,0.29,0.83,-0.36
72284724,0.29,0.83,-0.36
72286717,0.29,0.83,-0.36
72288704,0.28,0.82,-0.36
72290712,0.28,0.82,-0.36
72292773,0.28,0.82,-0.36
72294695,0.28,0.82,-0.36
72296665,0.28,0.82,-0.36
72298652,0.29,0.82,-0.35
72300666,0.29,0.82,-0.35
72302711,0.29,0.82,-0.35
72304665,0.29,0.82,-0.35
72306651,0.29,0.82,-0.35
72308664,0.29,0.84,-0.36
72310661,0.29,0.84,-0.36
72312663,0.29,0.84,-0.36
72314726,0.29,0.84,-0.36
72316737,0.29,0.84,-0.36
72318706,0.29,0.87,-0.34
72320704,0.29,0.87,-0.34
72322710,0.29,0.87,-0.34
72324778,0.29,0.87,-0.34
72326724,0.29,0.87,-0.34
72328724,0.32,0.84,-0.36
72330708,0.32,0.84,-0.36
72332670,0.32,0.84,-0.36
72334738,0.32,0.84,-0.36
72336693,0.32,0.84,-0.36
72338662,0.32,0.84,-0.36
72340654,0.33,0.84,-0.35
72342698,0.33,0.84,-0.35
72344709,0.33,0.84,-0.35
72346676,0.33,0.84,-0.35
72348701,0.33,0.84,-0.35
72350662,0.31,0.81,-0.35
72352670,0.31,0.81,-0.35
72354730,0.31,0.81,-0.35
72356707,0.31,0.81,-0.35
72358706,0.31,0.81,-0.35
72360706,0.30,0.82,-0.35
72362704,0.30,0.82,-0.35
72364708,0.30,0.82,-0.35
72366735,0.30,0.82,-0.35
72368674,0.30,0.82,-0.35
72370669,0.30,0.88,-0.34
72372661,0.30,0.88,-0.34
72374663,0.30,0.88,-0.34
72376663,0.30,0.88,-0.34
72378735,0.30,0.88,-0.34
72380687,0.30,0.87,-0.36
72382663,0.30,0.87,-0.36
72384669,0.30,0.87,-0.36
72386683,0.30,0.87,-0.36
72388713,0.30,0.87,-0.36
72390667,0.30,0.86,-0.35
72392693,0.30,0.86,-0.35
72394725,0.30,0.86,-0.35
72396708,0.30,0.86,-0.35
72398702,0.30,0.86,-0.35
72400727,0.30,0.88,-0.37
72402733,0.30,0.88,-0.37
72404711,0.30,0.88,-0.37
72406710,0.30,0.88,-0.37
72408704,0.30,0.88,-0.37
72410766,0.29,0.90,-0.37
72412703,0.29,0.90,-0.37
72414655,0.29,0.90,-0.37
72416693,0.29,0.90,-0.37
72418675,0.29,0.90,-0.37
72420667,0.29,0.90,-0.37
72422667,0.28,0.91,-0.36
72424663,0.28,0.91,-0.36
72426652,0.28,0.91,-0.36
72428698,0.28,0.91,-0.36
72430665,0.28,0.91,-0.36
72432730,0.29,0.89,-0.36
72434723,0.29,0.89,-0.36
72436713,0.29,0.89,-0.36
72438712,0.29,0.89,-0.36
72440717,0.29,0.89,-0.36
72442761,0.28,0.87,-0.35
72444717,0.28,0.87,-0.35
72446711,0.28,0.87,-0.35
72448711,0.28,0.87,-0.35
72450705,0.28,0.87,-0.35
72452671,0.29,0.86,-0.37
72454730,0.29,0.86,-0.37
72456690,0.29,0.86,-0.37
72458664,0.29,0.86,-0.37
72460663,0.29,0.86,-0.37
72462663,0.30,0.85,-0.38
72464654,0.30,0.85,-0.38
72466653,0.30,0.85,-0.38
72468689,0.30,0.85,-0.38
72470709,0.30,0.85,-0.38
72472663,0.29,0.88,-0.36
72474728,0.29,0.88,-0.36
72476710,0.29,0.88,-0.36
72478708,0.29,0.88,-0.36
72480703,0.29,0.88,-0.36
72482713,0.28,0.86,-0.36
72484719,0.28,0.86,-0.36
72486717,0.28,0.86,-0.36
72488682,0.28,0.86,-0.36
72490743,0.28,0.86,-0.36
72492725,0.30,0.83,-0.37
72494665,0.30,0.83,-0.37
72496663,0.30,0.83,-0.37
72498662,0.30,0.83,-0.37
72500654,0.30,0.83,-0.37
72502664,0.30,0.86,-0.35
72504663,0.30,0.86,-0.35
72506665,0.30,0.86,-0.35
72508669,0.30,0.86,-0.35
72510668,0.30,0.86,-0.35
72512716,0.30,0.86,-0.35
72514734,0.32,0.84,-0.39
72516818,0.32,0.84,-0.39
72518720,0.32,0.84,-0.39
72520703,0.32,0.84,-0.39
72522704,0.32,0.84,-0.39
72524721,0.30,0.85,-0.36
72526727,0.30,0.85,-0.36
72528731,0.30,0.85,-0.36
72530705,0.30,0.85,-0.36
72532663,0.30,0.85,-0.36
72534676,0.30,0.84,-0.36
72536770,0.30,0.84,-0.36
72538688,0.30,0.84,-0.36
72540663,0.30,0.84,-0.36
72542704,0.30,0.84,-0.36
72544710,0.30,0.87,-0.36
72546666,0.30,0.87,-0.36
72548671,0.30,0.87,-0.36
72550696,0.30,0.87,-0.36
72552701,0.30,0.87,-0.36
72554721,0.30,0.86,-0.36
72556706,0.30,0.86,-0.36
72558702,0.30,0.86,-0.36
72560705,0.30,0.86,-0.36
72562702,0.30,0.86,-0.36
72564703,0.29,0.87,-0.36
72566811,0.29,0.87,-0.36
72568722,0.29,0.87,-0.36
72570701,0.29,0.87,-0.36
72572666,0.29,0.87,-0.36
72574665,0.30,0.86,-0.36
72576754,0.30,0.86,-0.36
72578691,0.30,0.86,-0.36
72580655,0.30,0.86,-0.36
72582688,0.30,0.86,-0.36
72584718,0.30,0.86,-0.36
72586679,0.30,0.86,-0.36
72588654,0.30,0.86,-0.36
72590662,0.30,0.86,-0.36
72592694,0.30,0.86,-0.36
72594724,0.29,0.86,-0.36
72596710,0.29,0.86,-0.36
72598706,0.29,0.86,-0.36
72600733,0.29,0.86,-0.36
72602728,0.29,0.86,-0.36
72604718,0.29,0.86,-0.36
72606703,0.30,0.89,-0.37
72608702,0.30,0.89,-0.37
72610701,0.30,0.89,-0.37
72612739,0.30,0.89,-0.37
72614679,0.30,0.89,-0.37
72616709,0.30,0.88,-0.36
72618727,0.30,0.88,-0.36
72620709,0.30,0.88,-0.36
72622665,0.30,0.88,-0.36
72624654,0.30,0.88,-0.36
72626653,0.30,0.87,-0.35
72628703,0.30,0.87,-0.35
72630717,0.30,0.87,-0.35
72632661,0.30,0.87,-0.35
72634722,0.30,0.87,-0.35
72636705,0.30,0.86,-0.36
72638711,0.30,0.86,-0.36
72640702,0.30,0.86,-0.36
72642726,0.30,0.86,-0.36
72644709,0.30,0.86,-0.36
72646704,0.31,0.84,-0.35
72648654,0.31,0.84,-0.35
72650663,0.31,0.84,-0.35
72652664,0.31,0.84,-0.35
72654666,0.31,0.84,-0.35
72656654,0.32,0.86,-0.36
72658671,0.32,0.86,-0.36
72660672,0.32,0.86,-0.36
72662667,0.32,0.86,-0.36
72664663,0.32,0.86,-0.36
72666676,0.30,0.84,-0.35
72668664,0.30,0.84,-0.35
72670665,0.30,0.84,-0.35
72672684,0.30,0.84,-0.35
72674771,0.30,0.84,-0.35
72676715,0.30,0.85,-0.36
72678708,0.30,0.85,-0.36
72680702,0.30,0.85,-0.36
72682710,0.30,0.85,-0.36
72684731,0.30,0.85,-0.36
72686730,0.30,0.85,-0.36
72688713,0.31,0.83,-0.36
72690704,0.31,0.83,-0.36
72692720,0.31,0.83,-0.36
72694665,0.31,0.83,-0.36
72696778,0.31,0.83,-0.36
72698693,0.30,0.84,-0.37
72700667,0.30,0.84,-0.37
72702651,0.30,0.84,-0.37
72704663,0.30,0.84,-0.37
72706665,0.30,0.84,-0.37
72708667,0.29,0.86,-0.36
72710664,0.29,0.86,-0.36
72712696,0.29,0.86,-0.36
72714711,0.29,0.86,-0.36
72716742,0.29,0.86,-0.36
72718707,0.28,0.87,-0.36
72720707,0.28,0.87,-0.36
72722702,0.28,0.87,-0.36
72724709,0.28,0.87,-0.36
72726713,0.28,0.87,-0.36
72728717,0.28,0.89,-0.36
72730677,0.28,0.89,-0.36
72732748,0.28,0.89,-0.36
72734687,0.28,0.89,-0.36
72736662,0.28,0.89,-0.36
72738661,0.29,0.88,-0.36
72740664,0.29,0.88,-0.36
72742751,0.29,0.88,-0.36
72744676,0.29,0.88,-0.36
72746668,0.29,0.88,-0.36
72748654,0.30,0.88,-0.36
72750662,0.30,0.88,-0.36
72752667,0.30,0.88,-0.36
72754667,0.30,0.88,-0.36
72756737,0.30,0.88,-0.36
72758736,0.30,0.87,-0.37
72760707,0.30,0.87,-0.37
72762706,0.30,0.87,-0.37
72764713,0.30,0.87,-0.37
72766731,0.30,0.87,-0.37
72768713,0.30,0.86,-0.36
72770713,0.30,0.86,-0.36
72772666,0.30,0.86,-0.36
72774666,0.30,0.86,-0.36
72776665,0.30,0.86,-0.36
72778654,0.30,0.86,-0.36
72780665,0.30,0.86,-0.36
72782653,0.30,0.86,-0.36
72784674,0.30,0.86,-0.36
72786686,0.30,0.86,-0.36
72788677,0.30,0.86,-0.36
72790753,0.30,0.87,-0.35
72792713,0.30,0.87,-0.35
72794665,0.30,0.87,-0.35
72796728,0.30,0.87,-0.35
72798709,0.30,0.87,-0.35
72800705,0.30,0.85,-0.36
72802742,0.30,0.85,-0.36
72804739,0.30,0.85,-0.36
72806709,0.30,0.85,-0.36
72808710,0.30,0.85,-0.36
72810714,0.32,0.84,-0.37
72812693,0.32,0.84,-0.37
72814775,0.32,0.84,-0.37
72816714,0.32,0.84,-0.37
72818663,0.32,0.84,-0.37
72820665,0.31,0.84,-0.35
72822687,0.31,0.84,-0.35
72824713,0.31,0.84,-0.35
72826673,0.31,0.84,-0.35
72828708,0.31,0.84,-0.35
72830664,0.30,0.87,-0.35
72832663,0.30,0.87,-0.35
72834663,0.30,0.87,-0.35
72836724,0.30,0.87,-0.35
72838711,0.30,0.87,-0.35
72840708,0.30,0.87,-0.35
72842755,0.30,0.87,-0.35
72844731,0.30,0.87,-0.35
72846715,0.30,0.87,-0.35
72848703,0.30,0.87,-0.35
72850706,0.30,0.86,-0.36
72852705,0.30,0.86,-0.36
72854662,0.30,0.86,-0.36
72856726,0.30,0.86,-0.36
72858691,0.30,0.86,-0.36
72860704,0.30,0.86,-0.36
72862664,0.30,0.86,-0.36
72864667,0.30,0.86,-0.36
72866777,0.30,0.86,-0.36
72868665,0.30,0.86,-0.36
72870653,0.30,0.86,-0.36
72872725,0.30,0.86,-0.35
72874675,0.30,0.86,-0.35
72876728,0.30,0.86,-0.35
72878715,0.30,0.86,-0.35
72880710,0.30,0.86,-0.35
72882702,0.30,0.87,-0.36
72884711,0.30,0.87,-0.36
72886778,0.30,0.87,-0.36
72888714,0.30,0.87,-0.36
72890706,0.30,0.87,-0.36
72892721,0.32,0.84,-0.36
72894673,0.32,0.84,-0.36
72896744,0.32,0.84,-0.36
72898694,0.32,0.84,-0.36
72900664,0.32,0.84,-0.36
72902668,0.31,0.86,-0.38
72904712,0.31,0.86,-0.38
72906670,0.31,0.86,-0.38
72908668,0.31,0.86,-0.38
72910665,0.31,0.86,-0.38
72912663,0.31,0.85,-0.36
72914665,0.31,0.85,-0.36
72916820,0.31,0.85,-0.36
72918712,0.31,0.85,-0.36
72920706,0.31,0.85,-0.36
72922705,0.31,0.87,-0.36
72924713,0.31,0.87,-0.36
72926738,0.31,0.87,-0.36
72928749,0.31,0.87,-0.36
72930713,0.31,0.87,-0.36
72932711,0.31,0.87,-0.36
72934665,0.31,0.87,-0.36
72936682,0.31,0.87,-0.36
72938733,0.31,0.87,-0.36
72940676,0.31,0.87,-0.36
72942708,0.31,0.85,-0.36
72944665,0.31,0.85,-0.36
72946713,0.31,0.85,-0.36
72948665,0.31,0.85,-0.36
72950663,0.31,0.85,-0.36
72952654,0.31,0.85,-0.36
72954651,0.30,0.85,-0.35
72956731,0.30,0.85,-0.35
72958710,0.30,0.85,-0.35
72960708,0.30,0.85,-0.35
72962701,0.30,0.85,-0.35
72964705,0.31,0.85,-0.36
72966734,0.31,0.85,-0.36
72968708,0.31,0.85,-0.36
72970662,0.31,0.85,-0.36
72972689,0.31,0.85,-0.36
72974737,0.31,0.86,-0.36
72976694,0.31,0.86,-0.36
72978666,0.31,0.86,-0.36
72980664,0.31,0.86,-0.36
72982652,0.31,0.86,-0.36
72984717,0.31,0.84,-0.36
72986688,0.31,0.84,-0.36
72988663,0.31,0.84,-0.36
72990653,0.31,0.84,-0.36
72992716,0.31,0.84,-0.36
72994675,0.32,0.84,-0.35
72996726,0.32,0.84,-0.35
72998713,0.32,0.84,-0.35
73000709,0.32,0.84,-0.35
73002733,0.32,0.84,-0.35
73004736,0.31,0.85,-0.36
73006714,0.31,0.85,-0.36
73008707,0.31,0.85,-0.36
73010703,0.31,0.85,-0.36
73012732,0.31,0.85,-0.36
73014714,0.30,0.85,-0.35
73016696,0.30,0.85,-0.35
73018668,0.30,0.85,-0.35
73020669,0.30,0.85,-0.35
73022679,0.30,0.85,-0.35
73024672,0.30,0.85,-0.35
73026770,0.30,0.85,-0.35
73028716,0.30,0.85,-0.35
73030677,0.30,0.85,-0.35
73032699,0.30,0.85,-0.35
73034713,0.30,0.86,-0.36
73036737,0.30,0.86,-0.36
73038716,0.30,0.86,-0.36
73040712,0.30,0.86,-0.36
73042770,0.30,0.86,-0.36
73044728,0.30,0.86,-0.36
73046713,0.32,0.86,-0.37
73048715,0.32,0.86,-0.37
73050710,0.32,0.86,-0.37
73052752,0.32,0.86,-0.37
73054727,0.32,0.86,-0.37
73056691,0.30,0.87,-0.37
73058676,0.30,0.87,-0.37
73060673,0.30,0.87,-0.37
73062679,0.30,0.87,-0.37
73064684,0.30,0.87,-0.37
73066731,0.31,0.86,-0.35
73068676,0.31,0.86,-0.35
73070676,0.31,0.86,-0.35
73072690,0.31,0.86,-0.35
73074673,0.31,0.86,-0.35
73076713,0.31,0.86,-0.37
73078707,0.31,0.86,-0.37
73080710,0.31,0.86,-0.37
73082708,0.31,0.86,-0.37
73084711,0.31,0.86,-0.37
73086717,0.31,0.87,-0.36
73088682,0.31,0.87,-0.36
73090678,0.31,0.87,-0.36
73092695,0.31,0.87,-0.36
73094776,0.31,0.87,-0.36
73096695,0.30,0.88,-0.37
73098672,0.30,0.88,-0.37
73100670,0.30,0.88,-0.37
73102666,0.30,0.88,-0.37
73104676,0.30,0.88,-0.37
73106715,0.30,0.86,-0.36
73108671,0.30,0.86,-0.36
73110666,0.30,0.86,-0.36
73112676,0.30,0.86,-0.36
73114665,0.30,0.86,-0.36
73116749,0.30,0.85,-0.36
73118713,0.30,0.85,-0.36
73120711,0.30,0.85,-0.36
73122711,0.30,0.85,-0.36
73124710,0.30,0.85,-0.36
73126742,0.30,0.85,-0.36
73128724,0.31,0.84,-0.37
73130723,0.31,0.84,-0.37
73132709,0.31,0.84,-0.37
73134675,0.31,0.84,-0.37
73136678,0.31,0.84,-0.37
73138679,0.32,0.84,-0.37
73140732,0.32,0.84,-0.37
73142724,0.32,0.84,-0.37
73144675,0.32,0.84,-0.37
73146672,0.32,0.84,-0.37
73148686,0.32,0.84,-0.37
73150714,0.32,0.84,-0.37
73152673,0.32,0.84,-0.37
73154677,0.32,0.84,-0.37
73156725,0.32,0.84,-0.37
73158711,0.30,0.86,-0.36
73160709,0.30,0.86,-0.36
73162708,0.30,0.86,-0.36
73164712,0.30,0.86,-0.36
73166771,0.30,0.86,-0.36
73168773,0.30,0.85,-0.34
73170721,0.30,0.85,-0.34
73172708,0.30,0.85,-0.34
73174677,0.30,0.85,-0.34
73176678,0.30,0.85,-0.34
73178737,0.30,0.84,-0.36
73180702,0.30,0.84,-0.36
73182671,0.30,0.84,-0.36
73184681,0.30,0.84,-0.36
73186689,0.30,0.84,-0.36
73188712,0.31,0.84,-0.36
73190683,0.31,0.84,-0.36
73192705,0.31,0.84,-0.36
73194693,0.31,0.84,-0.36
73196731,0.31,0.84,-0.36
73198712,0.32,0.85,-0.37
73200712,0.32,0.85,-0.37
73202710,0.32,0.85,-0.37
73204792,0.32,0.85,-0.37
73206722,0.32,0.85,-0.37
73208702,0.32,0.86,-0.36
73210706,0.32,0.86,-0.36
73212709,0.32,0.86,-0.36
73214675,0.32,0.86,-0.36
73216722,0.32,0.86,-0.36
73218727,0.32,0.86,-0.36
73220691,0.30,0.87,-0.37
73222664,0.30,0.87,-0.37
73224667,0.30,0.87,-0.37
73226681,0.30,0.87,-0.37
73228717,0.30,0.87,-0.37
73230710,0.30,0.87,-0.36
73232679,0.30,0.87,-0.36
73234671,0.30,0.87,-0.36
73236725,0.30,0.87,-0.36
73238713,0.30,0.87,-0.36
73240703,0.31,0.85,-0.36
73242730,0.31,0.85,-0.36
73244709,0.31,0.85,-0.36
73246736,0.31,0.85,-0.36
73248719,0.31,0.85,-0.36
73250704,0.32,0.84,-0.37
73252707,0.32,0.84,-0.37
73254676,0.32,0.84,-0.37
73256680,0.32,0.84,-0.37
73258672,0.32,0.84,-0.37
73260672,0.32,0.84,-0.36
73262679,0.32,0.84,-0.36
73264674,0.32,0.84,-0.36
73266772,0.32,0.84,-0.36
73268682,0.32,0.84,-0.36
73270681,0.32,0.83,-0.37
73272742,0.32,0.83,-0.37
73274705,0.32,0.83,-0.37
73276715,0.32,0.83,-0.37
73278708,0.32,0.83,-0.37
73280710,0.32,0.86,-0.36
73282729,0.32,0.86,-0.36
73284717,0.32,0.86,-0.36
73286712,0.32,0.86,-0.36
73288714,0.32,0.86,-0.36
73290742,0.32,0.84,-0.36
73292758,0.32,0.84,-0.36
73294703,0.32,0.84,-0.36
73296672,0.32,0.84,-0.36
73298686,0.32,0.84,-0.36
73300748,0.32,0.84,-0.36
73302689,0.30,0.85,-0.38
73304677,0.30,0.85,-0.38
73306681,0.30,0.85,-0.38
73308714,0.30,0.85,-0.38
73310676,0.30,0.85,-0.38
73312669,0.29,0.87,-0.35
73314668,0.29,0.87,-0.35
73316824,0.29,0.87,-0.35
73318715,0.29,0.87,-0.35
73320707,0.29,0.87,-0.35
73322722,0.29,0.88,-0.37
73324729,0.29,0.88,-0.37
73326721,0.29,0.88,-0.37
73328714,0.29,0.88,-0.37
73330724,0.29,0.88,-0.37
73332790,0.29,0.87,-0.36
73334717,0.29,0.87,-0.36
73336705,0.29,0.87,-0.36
73338672,0.29,0.87,-0.36
73340728,0.29,0.87,-0.36
73342727,0.30,0.87,-0.36
73344672,0.30,0.87,-0.36
73346666,0.30,0.87,-0.36
73348683,0.30,0.87,-0.36
73350714,0.30,0.87,-0.36
73352679,0.30,0.86,-0.36
73354675,0.30,0.86,-0.36
73356724,0.30,0.86,-0.36
73358713,0.30,0.86,-0.36
73360711,0.30,0.86,-0.36
73362705,0.30,0.86,-0.36
73364707,0.30,0.86,-0.36
73366736,0.30,0.86,-0.36
73368710,0.30,0.86,-0.36
73370681,0.30,0.86,-0.36
73372705,0.30,0.84,-0.38
73374671,0.30,0.84,-0.38
73376676,0.30,0.84,-0.38
73378676,0.30,0.84,-0.38
73380665,0.30,0.84,-0.38
73382678,0.31,0.83,-0.37
73384681,0.31,0.83,-0.37
73386683,0.31,0.83,-0.37
73388674,0.31,0.83,-0.37
73390671,0.31,0.83,-0.37
73392694,0.31,0.83,-0.37
73394676,0.31,0.85,-0.37
73396738,0.31,0.85,-0.37
73398710,0.31,0.85,-0.37
73400712,0.31,0.85,-0.37
73402713,0.31,0.85,-0.37
73404714,0.29,0.86,-0.36
73406749,0.29,0.86,-0.36
73408731,0.29,0.86,-0.36
73410706,0.29,0.86,-0.36
73412706,0.29,0.86,-0.36
73414670,0.29,0.86,-0.35
73416686,0.29,0.86,-0.35
73418665,0.29,0.86,-0.35
73420714,0.29,0.86,-0.35
73422712,0.29,0.86,-0.35
73424667,0.30,0.87,-0.37
73426665,0.30,0.87,-0.37
73428678,0.30,0.87,-0.37
73430730,0.30,0.87,-0.37
73432665,0.30,0.87,-0.37
73434665,0.30,0.89,-0.38
73436724,0.30,0.89,-0.38
73438712,0.30,0.89,-0.38
73440705,0.30,0.89,-0.38
73442757,0.30,0.89,-0.38
73444728,0.29,0.88,-0.37
73446715,0.29,0.88,-0.37
73448707,0.29,0.88,-0.37
73450710,0.29,0.88,-0.37
73452705,0.29,0.88,-0.37
73454742,0.29,0.88,-0.38
73456691,0.29,0.88,-0.38
73458652,0.29,0.88,-0.38
73460663,0.29,0.88,-0.38
73462692,0.29,0.88,-0.38
73464704,0.29,0.89,-0.38
73466694,0.29,0.89,-0.38
73468667,0.29,0.89,-0.38
73470664,0.29,0.89,-0.38
73472678,0.29,0.89,-0.38
73474701,0.29,0.89,-0.38
73476739,0.30,0.86,-0.37
73478715,0.30,0.86,-0.37
73480710,0.30,0.86,-0.37
73482718,0.30,0.86,-0.37
73484755,0.30,0.86,-0.37
73486731,0.31,0.84,-0.36
73488711,0.31,0.84,-0.36
73490713,0.31,0.84,-0.36
73492761,0.31,0.84,-0.36
73494730,0.31,0.84,-0.36
73496714,0.31,0.84,-0.37
73498673,0.31,0.84,-0.37
73500670,0.31,0.84,-0.37
73502667,0.31,0.84,-0.37
73504669,0.31,0.84,-0.37
73506742,0.31,0.83,-0.34
73508688,0.31,0.83,-0.34
73510668,0.31,0.83,-0.34
73512662,0.31,0.83,-0.34
73514652,0.31,0.83,-0.34
73516745,0.31,0.84,-0.35
73518726,0.31,0.84,-0.35
73520718,0.31,0.84,-0.35
73522702,0.31,0.84,-0.35
73524707,0.31,0.84,-0.35
73526774,0.31,0.84,-0.35
73528720,0.31,0.84,-0.35
73530724,0.31,0.84,-0.35
73532707,0.31,0.84,-0.35
73534701,0.31,0.84,-0.35
73536667,0.31,0.85,-0.37
73538666,0.31,0.85,-0.37
73540665,0.31,0.85,-0.37
73542711,0.31,0.85,-0.37
73544767,0.31,0.85,-0.37
73546687,0.30,0.85,-0.36
73548665,0.30,0.85,-0.36
73550663,0.30,0.85,-0.36
73552664,0.30,0.85,-0.36
73554714,0.30,0.85,-0.36
73556723,0.29,0.85,-0.37
73558709,0.29,0.85,-0.37
73560709,0.29,0.85,-0.37
73562703,0.29,0.85,-0.37
73564707,0.29,0.85,-0.37
73566734,0.29,0.85,-0.37
73568709,0.28,0.86,-0.35
73570670,0.28,0.86,-0.35
73572667,0.28,0.86,-0.35
73574697,0.28,0.86,-0.35
73576713,0.28,0.86,-0.35
73578783,0.28,0.89,-0.37
73580685,0.28,0.89,-0.37
73582652,0.28,0.89,-0.37
73584655,0.28,0.89,-0.37
73586685,0.28,0.89,-0.37
73588662,0.29,0.89,-0.38
73590666,0.29,0.89,-0.38
73592694,0.29,0.89,-0.38
73594664,0.29,0.89,-0.38
73596739,0.29,0.89,-0.38
73598721,0.29,0.88,-0.37
73600715,0.29,0.88,-0.37
73602708,0.29,0.88,-0.37
73604743,0.29,0.88,-0.37
73606736,0.29,0.88,-0.37
73608710,0.30,0.85,-0.36
73610711,0.30,0.85,-0.36
73612778,0.30,0.85,-0.36
73614745,0.30,0.85,-0.36
73616740,0.30,0.85,-0.36
73618670,0.31,0.84,-0.36
73620666,0.31,0.84,-0.36
73622663,0.31,0.84,-0.36
73624696,0.31,0.84,-0.36
73626734,0.31,0.84,-0.36
73628689,0.32,0.82,-0.36
73630702,0.32,0.82,-0.36
73632713,0.32,0.82,-0.36
73634698,0.32,0.82,-0.36
73636742,0.32,0.82,-0.36
73638717,0.32,0.83,-0.36
73640713,0.32,0.83,-0.36
73642726,0.32,0.83,-0.36
73644704,0.32,0.83,-0.36
73646703,0.32,0.83,-0.36
73648706,0.32,0.83,-0.36
73650670,0.32,0.84,-0.36
73652662,0.32,0.84,-0.36
73654654,0.32,0.84,-0.36
73656662,0.32,0.84,-0.36
73658787,0.32,0.84,-0.36
73660692,0.31,0.84,-0.36
73662673,0.31,0.84,-0.36
73664666,0.31,0.84,-0.36
73666654,0.31,0.84,-0.36
73668677,0.31,0.84,-0.36
73670653,0.30,0.86,-0.36
73672662,0.30,0.86,-0.36
73674663,0.30,0.86,-0.36
73676716,0.30,0.86,-0.36
73678722,0.30,0.86,-0.36
73680707,0.31,0.84,-0.38
73682711,0.31,0.84,-0.38
73684713,0.31,0.84,-0.38
73686714,0.31,0.84,-0.38
73688706,0.31,0.84,-0.38
73690671,0.30,0.84,-0.37
73692693,0.30,0.84,-0.37
73694669,0.30,0.84,-0.37
73696665,0.30,0.84,-0.37
73698667,0.30,0.84,-0.37
73700667,0.28,0.89,-0.36
73702664,0.28,0.89,-0.36
73704697,0.28,0.89,-0.36
73706747,0.28,0.89,-0.36
73708682,0.28,0.89,-0.36
73710666,0.27,0.89,-0.37
73712652,0.27,0.89,-0.37
73714649,0.27,0.89,-0.37
73716820,0.27,0.89,-0.37
73718713,0.27,0.89,-0.37
73720736,0.30,0.87,-0.38
73722715,0.30,0.87,-0.38
73724703,0.30,0.87,-0.38
73726708,0.30,0.87,-0.38
73728773,0.30,0.87,-0.38
73730734,0.30,0.86,-0.37
73732708,0.30,0.86,-0.37
73734702,0.30,0.86,-0.37
73736716,0.30,0.86,-0.37
73738712,0.30,0.86,-0.37
73740655,0.30,0.86,-0.37
73742695,0.29,0.86,-0.36
73744673,0.29,0.86,-0.36
73746704,0.29,0.86,-0.36
73748665,0.29,0.86,-0.36
73750653,0.29,0.86,-0.36
73752654,0.29,0.86,-0.37
73754665,0.29,0.86,-0.37
73756725,0.29,0.86,-0.37
73758711,0.29,0.86,-0.37
73760707,0.29,0.86,-0.37
73762734,0.29,0.87,-0.36
73764723,0.29,0.87,-0.36
73766739,0.29,0.87,-0.36
73768710,0.29,0.87,-0.36
73770709,0.29,0.87,-0.36
73772727,0.29,0.86,-0.36
73774715,0.29,0.86,-0.36
73776667,0.29,0.86,-0.36
73778665,0.29,0.86,-0.36
73780712,0.29,0.86,-0.36
73782693,0.30,0.86,-0.37
73784667,0.30,0.86,-0.37
73786681,0.30,0.86,-0.37
73788702,0.30,0.86,-0.37
73790738,0.30,0.86,-0.37
73792708,0.31,0.85,-0.37
73794665,0.31,0.85,-0.37
73796738,0.31,0.85,-0.37
73798729,0.31,0.85,-0.37
73800711,0.31,0.85,-0.37
73802707,0.30,0.84,-0.36
73804705,0.30,0.84,-0.36
73806704,0.30,0.84,-0.36
73808698,0.30,0.84,-0.36
73810711,0.30,0.84,-0.36
73812691,0.29,0.86,-0.36
73814741,0.29,0.86,-0.36
73816719,0.29,0.86,-0.36
73818668,0.29,0.86,-0.36
73820663,0.29,0.86,-0.36
73822664,0.29,0.86,-0.36
73824718,0.30,0.86,-0.36
73826664,0.30,0.86,-0.36
73828665,0.30,0.86,-0.36
73830699,0.30,0.86,-0.36
73832662,0.30,0.86,-0.36
73834666,0.31,0.85,-0.38
73836727,0.31,0.85,-0.38
73838710,0.31,0.85,-0.38
73840707,0.31,0.85,-0.38
73842754,0.31,0.85,-0.38
73844733,0.31,0.86,-0.38
73846718,0.31,0.86,-0.38
73848700,0.31,0.86,-0.38
73850706,0.31,0.86,-0.38
73852711,0.31,0.86,-0.38
73854666,0.30,0.87,-0.37
73856667,0.30,0.87,-0.37
73858663,0.30,0.87,-0.37
73860665,0.30,0.87,-0.37
73862666,0.30,0.87,-0.37
73864673,0.28,0.87,-0.36
73866704,0.28,0.87,-0.36
73868663,0.28,0.87,-0.36
73870720,0.28,0.87,-0.36
73872712,0.28,0.87,-0.36
73874662,0.27,0.86,-0.36
73876718,0.27,0.86,-0.36
73878705,0.27,0.86,-0.36
73880741,0.27,0.86,-0.36
73882734,0.27,0.86,-0.36
73884734,0.29,0.86,-0.37
73886711,0.29,0.86,-0.37
73888710,0.29,0.86,-0.37
73890699,0.29,0.86,-0.37
73892725,0.29,0.86,-0.37
73894737,0.30,0.85,-0.36
73896704,0.30,0.85,-0.36
73898665,0.30,0.85,-0.36
73900664,0.30,0.85,-0.36
73902661,0.30,0.85,-0.36
73904683,0.31,0.84,-0.37
73906712,0.31,0.84,-0.37
73908667,0.31,0.84,-0.37
73910663,0.31,0.84,-0.37
73912665,0.31,0.84,-0.37
73914663,0.31,0.84,-0.37
73916741,0.31,0.83,-0.37
73918710,0.31,0.83,-0.37
73920703,0.31,0.83,-0.37
73922707,0.31,0.83,-0.37
73924714,0.31,0.83,-0.37
73926701,0.30,0.85,-0.36
73928706,0.30,0.85,-0.36
73930703,0.30,0.85,-0.36
73932651,0.30,0.85,-0.36
73934663,0.30,0.85,-0.36
73936662,0.31,0.84,-0.37
73938685,0.31,0.84,-0.37
73940744,0.31,0.84,-0.37
73942711,0.31,0.84,-0.37
73944664,0.31,0.84,-0.37
73946653,0.31,0.86,-0.39
73948666,0.31,0.86,-0.39
73950722,0.31,0.86,-0.39
73952676,0.31,0.86,-0.39
73954666,0.31,0.86,-0.39
73956731,0.29,0.86,-0.37
73958711,0.29,0.86,-0.37
73960706,0.29,0.86,-0.37
73962702,0.29,0.86,-0.37
73964700,0.29,0.86,-0.37
73966735,0.27,0.90,-0.37
73968702,0.27,0.90,-0.37
73970654,0.27,0.90,-0.37
73972669,0.27,0.90,-0.37
73974670,0.27,0.90,-0.37
73976662,0.28,0.89,-0.36
73978665,0.28,0.89,-0.36
73980670,0.28,0.89,-0.36
73982663,0.28,0.89,-0.36
73984672,0.28,0.89,-0.36
73986685,0.27,0.90,-0.37
73988667,0.27,0.90,-0.37
73990676,0.27,0.90,-0.37
73992683,0.27,0.90,-0.37
73994670,0.27,0.90,-0.37
73996703,0.27,0.90,-0.37
73998706,0.29,0.86,-0.37
74000703,0.29,0.86,-0.37
74002705,0.29,0.86,-0.37
74004700,0.29,0.86,-0.37
74006706,0.29,0.86,-0.37
74008666,0.29,0.87,-0.38
74010670,0.29,0.87,-0.38
74012679,0.29,0.87,-0.38
74014776,0.29,0.87,-0.38
74016721,0.29,0.87,-0.38
74018666,0.29,0.88,-0.37
74020662,0.29,0.88,-0.37
74022664,0.29,0.88,-0.37
74024651,0.29,0.88,-0.37
74026653,0.29,0.88,-0.37
74028716,0.30,0.84,-0.37
74030702,0.30,0.84,-0.37
74032664,0.30,0.84,-0.37
74034666,0.30,0.84,-0.37
74036727,0.30,0.84,-0.37
74038711,0.30,0.84,-0.36
74040714,0.30,0.84,-0.36
74042739,0.30,0.84,-0.36
74044749,0.30,0.84,-0.36
74046722,0.30,0.84,-0.36
74048709,0.30,0.82,-0.36
74050710,0.30,0.82,-0.36
74052707,0.30,0.82,-0.36
74054707,0.30,0.82,-0.36
74056727,0.30,0.82,-0.36
74058665,0.30,0.84,-0.36
74060664,0.30,0.84,-0.36
74062667,0.30,0.84,-0.36
74064666,0.30,0.84,-0.36
74066688,0.30,0.84,-0.36
74068667,0.31,0.84,-0.36
74070664,0.31,0.84,-0.36
74072738,0.31,0.84,-0.36
74074670,0.31,0.84,-0.36
74076728,0.31,0.84,-0.36
74078713,0.30,0.85,-0.36
74080711,0.30,0.85,-0.36
74082735,0.30,0.85,-0.36
74084732,0.30,0.85,-0.36
74086715,0.30,0.85,-0.36
74088705,0.30,0.85,-0.36
74090723,0.31,0.83,-0.35
74092738,0.31,0.83,-0.35
74094785,0.31,0.83,-0.35
74096688,0.31,0.83,-0.35
74098662,0.31,0.83,-0.35
74100662,0.30,0.84,-0.37
74102650,0.30,0.84,-0.37
74104664,0.30,0.84,-0.37
74106662,0.30,0.84,-0.37
74108667,0.30,0.84,-0.37
74110661,0.31,0.83,-0.37
74112654,0.31,0.83,-0.37
74114664,0.31,0.83,-0.37
74116742,0.31,0.83,-0.37
74118726,0.31,0.83,-0.37
74120725,0.30,0.84,-0.37
74122713,0.30,0.84,-0.37
74124703,0.30,0.84,-0.37
74126713,0.30,0.84,-0.37
74128726,0.30,0.84,-0.37
74130739,0.29,0.86,-0.37
74132708,0.29,0.86,-0.37
74134705,0.29,0.86,-0.37
74136724,0.29,0.86,-0.37
74138707,0.29,0.86,-0.37
74140664,0.29,0.87,-0.36
74142692,0.29,0.87,-0.36
74144679,0.29,0.87,-0.36
74146717,0.29,0.87,-0.36
74148665,0.29,0.87,-0.36
74150653,0.29,0.88,-0.38
74152654,0.29,0.88,-0.38
74154663,0.29,0.88,-0.38
74156731,0.29,0.88,-0.38
74158707,0.29,0.88,-0.38
74160703,0.29,0.88,-0.37
74162705,0.29,0.88,-0.37
74164702,0.29,0.88,-0.37
74166740,0.29,0.88,-0.37
74168711,0.29,0.88,-0.37
74170663,0.29,0.88,-0.37
74172666,0.29,0.88,-0.37
74174663,0.29,0.88,-0.37
74176653,0.29,0.88,-0.37
74178666,0.29,0.88,-0.37
74180706,0.29,0.88,-0.37
74182735,0.29,0.88,-0.36
74184694,0.29,0.88,-0.36
74186686,0.29,0.88,-0.36
74188668,0.29,0.88,-0.36
74190667,0.29,0.88,-0.36
74192725,0.29,0.86,-0.36
74194715,0.29,0.86,-0.36
74196752,0.29,0.86,-0.36
74198717,0.29,0.86,-0.36
74200705,0.29,0.86,-0.36
74202711,0.30,0.85,-0.37
74204734,0.30,0.85,-0.37
74206727,0.30,0.85,-0.37
74208710,0.30,0.85,-0.37
74210712,0.30,0.85,-0.37
74212711,0.30,0.85,-0.38
74214695,0.30,0.85,-0.38
74216747,0.30,0.85,-0.38
74218670,0.30,0.85,-0.38
74220662,0.30,0.85,-0.38
74222665,0.29,0.86,-0.37
74224713,0.29,0.86,-0.37
74226696,0.29,0.86,-0.37
74228666,0.29,0.86,-0.37
74230703,0.29,0.86,-0.37
74232664,0.30,0.85,-0.38
74234663,0.30,0.85,-0.38
74236730,0.30,0.85,-0.38
74238711,0.30,0.85,-0.38
74240703,0.30,0.85,-0.38
74242736,0.30,0.86,-0.37
74244711,0.30,0.86,-0.37
74246708,0.30,0.86,-0.37
74248743,0.30,0.86,-0.37
74250733,0.30,0.86,-0.37
74252713,0.29,0.87,-0.36
74254662,0.29,0.87,-0.36
74256667,0.29,0.87,-0.36
74258675,0.29,0.87,-0.36
74260739,0.29,0.87,-0.36
74262669,0.29,0.87,-0.36
74264665,0.30,0.86,-0.36
74266685,0.30,0.86,-0.36
74268666,0.30,0.86,-0.36
74270665,0.30,0.86,-0.36
74272662,0.30,0.86,-0.36
74274664,0.30,0.86,-0.37
74276716,0.30,0.86,-0.37
74278716,0.30,0.86,-0.37
74280701,0.30,0.86,-0.37
74282704,0.30,0.86,-0.37
74284709,0.29,0.86,-0.36
74286713,0.29,0.86,-0.36
74288701,0.29,0.86,-0.36
74290653,0.29,0.86,-0.36
74292725,0.29,0.86,-0.36
74294696,0.30,0.85,-0.38
74296667,0.30,0.85,-0.38
74298665,0.30,0.85,-0.38
74300667,0.30,0.85,-0.38
74302655,0.30,0.85,-0.38
74304663,0.30,0.86,-0.37
74306667,0.30,0.86,-0.37
74308670,0.30,0.86,-0.37
74310666,0.30,0.86,-0.37
74312665,0.30,0.86,-0.37
74314663,0.30,0.85,-0.37
74316726,0.30,0.85,-0.37
74318706,0.30,0.85,-0.37
74320737,0.30,0.85,-0.37
74322823,0.30,0.85,-0.37
74324722,0.30,0.87,-0.38
74326702,0.30,0.87,-0.38
74328707,0.30,0.87,-0.38
74330729,0.30,0.87,-0.38
74332668,0.30,0.87,-0.38
74334706,0.30,0.85,-0.37
74336714,0.30,0.85,-0.37
74338667,0.30,0.85,-0.37
74340667,0.30,0.85,-0.37
74342690,0.30,0.85,-0.37
74344734,0.30,0.86,-0.37
74346681,0.30,0.86,-0.37
74348669,0.30,0.86,-0.37
74350654,0.30,0.86,-0.37
74352665,0.30,0.86,-0.37
74354661,0.30,0.86,-0.37
74356729,0.29,0.85,-0.36
74358711,0.29,0.85,-0.36
74360713,0.29,0.85,-0.36
74362715,0.29,0.85,-0.36
74364706,0.29,0.85,-0.36
74366739,0.30,0.85,-0.37
74368707,0.30,0.85,-0.37
74370667,0.30,0.85,-0.37
74372668,0.30,0.85,-0.37
74374667,0.30,0.85,-0.37
74376655,0.29,0.86,-0.36
74378714,0.29,0.86,-0.36
74380719,0.29,0.86,-0.36
74382665,0.29,0.86,-0.36
74384676,0.29,0.86,-0.36
74386682,0.29,0.86,-0.37
74388663,0.29,0.86,-0.37
74390713,0.29,0.86,-0.37
74392693,0.29,0.86,-0.37
74394675,0.29,0.86,-0.37
74396740,0.30,0.86,-0.37
74398734,0.30,0.86,-0.37
74400706,0.30,0.86,-0.37
74402704,0.30,0.86,-0.37
74404735,0.30,0.86,-0.37
74406740,0.29,0.86,-0.36
74408705,0.29,0.86,-0.36
74410704,0.29,0.86,-0.36
74412709,0.29,0.86,-0.36
74414731,0.29,0.86,-0.36
74416707,0.29,0.87,-0.36
74418662,0.29,0.87,-0.36
74420661,0.29,0.87,-0.36
74422663,0.29,0.87,-0.36
74424652,0.29,0.87,-0.36
74426665,0.30,0.86,-0.37
74428669,0.30,0.86,-0.37
74430701,0.30,0.86,-0.37
74432672,0.30,0.86,-0.37
74434719,0.30,0.86,-0.37
74436716,0.30,0.86,-0.37
74438714,0.29,0.86,-0.37
74440706,0.29,0.86,-0.37
74442746,0.29,0.86,-0.37
74444729,0.29,0.86,-0.37
74446713,0.29,0.86,-0.37
74448707,0.29,0.86,-0.36
74450705,0.29,0.86,-0.36
74452735,0.29,0.86,-0.36
74454690,0.29,0.86,-0.36
74456665,0.29,0.86,-0.36
74458651,0.30,0.85,-0.37
74460651,0.30,0.85,-0.37
74462662,0.30,0.85,-0.37
74464664,0.30,0.85,-0.37
74466654,0.30,0.85,-0.37
74468666,0.32,0.85,-0.37
74470664,0.32,0.85,-0.37
74472663,0.32,0.85,-0.37
74474662,0.32,0.85,-0.37
74476721,0.32,0.85,-0.37
74478788,0.30,0.87,-0.37
74480728,0.30,0.87,-0.37
74482705,0.30,0.87,-0.37
74484713,0.30,0.87,-0.37
74486743,0.30,0.87,-0.37
74488722,0.29,0.86,-0.36
74490709,0.29,0.86,-0.36
74492807,0.29,0.86,-0.36
74494766,0.29,0.86,-0.36
74496690,0.29,0.86,-0.36
74498661,0.29,0.86,-0.37
74500668,0.29,0.86,-0.37
74502701,0.29,0.86,-0.37
74504717,0.29,0.86,-0.37
74506665,0.29,0.86,-0.37
74508653,0.30,0.85,-0.36
74510664,0.30,0.85,-0.36
74512662,0.30,0.85,-0.36
74514667,0.30,0.85,-0.36
74516814,0.30,0.85,-0.36
74518714,0.30,0.86,-0.37
74520708,0.30,0.86,-0.37
74522709,0.30,0.86,-0.37
74524732,0.30,0.86,-0.37
74526715,0.30,0.86,-0.37
74528704,0.30,0.86,-0.37
74530717,0.30,0.83,-0.37
74532707,0.30,0.83,-0.37
74534671,0.30,0.83,-0.37
74536663,0.30,0.83,-0.37
74538667,0.30,0.83,-0.37
74540671,0.30,0.83,-0.37
74542772,0.30,0.83,-0.37
74544666,0.30,0.83,-0.37
74546667,0.30,0.83,-0.37
74548666,0.30,0.83,-0.37
74550746,0.31,0.84,-0.37
74552706,0.31,0.84,-0.37
74554669,0.31,0.84,-0.37
74556719,0.31,0.84,-0.37
74558706,0.31,0.84,-0.37
74560700,0.30,0.86,-0.38
74562705,0.30,0.86,-0.38
74564709,0.30,0.86,-0.38
74566807,0.30,0.86,-0.38
74568672,0.30,0.86,-0.38
74570665,0.30,0.86,-0.36
74572665,0.30,0.86,-0.36
74574674,0.30,0.86,-0.36
74576716,0.30,0.86,-0.36
74578732,0.30,0.86,-0.36
74580683,0.29,0.86,-0.36
74582672,0.29,0.86,-0.36
74584670,0.29,0.86,-0.36
74586683,0.29,0.86,-0.36
74588688,0.29,0.86,-0.36
74590714,0.30,0.87,-0.36
74592765,0.30,0.87,-0.36
74594663,0.30,0.87,-0.36
74596728,0.30,0.87,-0.36
74598708,0.30,0.87,-0.36
74600726,0.30,0.86,-0.38
74602704,0.30,0.86,-0.38
74604703,0.30,0.86,-0.38
74606721,0.30,0.86,-0.38
74608735,0.30,0.86,-0.38
74610714,0.30,0.86,-0.38
74612768,0.30,0.86,-0.36
74614663,0.30,0.86,-0.36
74616782,0.30,0.86,-0.36
74618743,0.30,0.86,-0.36
74620694,0.30,0.86,-0.36
74622667,0.29,0.86,-0.36
74624674,0.29,0.86,-0.36
74626710,0.29,0.86,-0.36
74628666,0.29,0.86,-0.36
74630702,0.29,0.86,-0.36
74632661,0.30,0.86,-0.36
74634664,0.30,0.86,-0.36
74636727,0.30,0.86,-0.36
74638712,0.30,0.86,-0.36
74640713,0.30,0.86,-0.36
74642840,0.29,0.86,-0.37
74644758,0.29,0.86,-0.37
74646713,0.29,0.86,-0.37
74648704,0.29,0.86,-0.37
74650700,0.29,0.86,-0.37
74652826,0.29,0.86,-0.37
74654717,0.29,0.86,-0.37
74656697,0.29,0.86,-0.37
74658670,0.29,0.86,-0.37
74660667,0.29,0.86,-0.37
74662669,0.28,0.87,-0.36
74664662,0.28,0.87,-0.36
74666759,0.28,0.87,-0.36
74668732,0.28,0.87,-0.36
74670720,0.28,0.87,-0.36
74672667,0.28,0.87,-0.36
74674666,0.28,0.87,-0.36
74676718,0.28,0.87,-0.36
74678722,0.28,0.87,-0.36
74680735,0.28,0.87,-0.36
74682711,0.28,0.87,-0.37
74684713,0.28,0.87,-0.37
74686728,0.28,0.87,-0.37
74688722,0.28,0.87,-0.37
74690719,0.28,0.87,-0.37
74692810,0.29,0.84,-0.37
74694670,0.29,0.84,-0.37
74696734,0.29,0.84,-0.37
74698706,0.29,0.84,-0.37
74700669,0.29,0.84,-0.37
74702695,0.29,0.84,-0.37
74704703,0.30,0.85,-0.37
74706678,0.30,0.85,-0.37
74708714,0.30,0.85,-0.37
74710663,0.30,0.85,-0.37
74712662,0.30,0.85,-0.37
74714664,0.30,0.85,-0.37
74716815,0.30,0.85,-0.37
74718713,0.30,0.85,-0.37
74720706,0.30,0.85,-0.37
74722703,0.30,0.85,-0.37
74724705,0.30,0.87,-0.38
74726737,0.30,0.87,-0.38
74728718,0.30,0.87,-0.38
74730725,0.30,0.87,-0.38
74732704,0.30,0.87,-0.38
74734719,0.30,0.84,-0.37
74736711,0.30,0.84,-0.37
74738665,0.30,0.84,-0.37
74740662,0.30,0.84,-0.37
74742772,0.30,0.84,-0.37
74744712,0.30,0.86,-0.38
74746666,0.30,0.86,-0.38
74748665,0.30,0.86,-0.38
74750653,0.30,0.86,-0.38
74752662,0.30,0.86,-0.38
74754664,0.30,0.85,-0.37
74756722,0.30,0.85,-0.37
74758705,0.30,0.85,-0.37
74760712,0.30,0.85,-0.37
74762709,0.30,0.85,-0.37
74764705,0.30,0.86,-0.38
74766813,0.30,0.86,-0.38
74768716,0.30,0.86,-0.38
74770697,0.30,0.86,-0.38
74772654,0.30,0.86,-0.38
74774663,0.30,0.86,-0.37
74776674,0.30,0.86,-0.37
74778670,0.30,0.86,-0.37
74780676,0.30,0.86,-0.37
74782764,0.30,0.86,-0.37
74784695,0.30,0.86,-0.37
74786689,0.29,0.86,-0.37
74788664,0.29,0.86,-0.37
74790665,0.29,0.86,-0.37
74792769,0.29,0.86,-0.37
74794675,0.29,0.86,-0.37
74796749,0.29,0.87,-0.36
74798731,0.29,0.87,-0.36
74800706,0.29,0.87,-0.36
74802703,0.29,0.87,-0.36
74804723,0.29,0.87,-0.36
74806729,0.29,0.87,-0.37
74808738,0.29,0.87,-0.37
74810715,0.29,0.87,-0.37
74812710,0.29,0.87,-0.37
74814707,0.29,0.87,-0.37
74816764,0.30,0.84,-0.38
74818704,0.30,0.84,-0.38
74820735,0.30,0.84,-0.38
74822685,0.30,0.84,-0.38
74824652,0.30,0.84,-0.38
74826664,0.29,0.85,-0.36
74828664,0.29,0.85,-0.36
74830705,0.29,0.85,-0.36
74832664,0.29,0.85,-0.36
74834665,0.29,0.85,-0.36
74836723,0.29,0.86,-0.36
74838708,0.29,0.86,-0.36
74840709,0.29,0.86,-0.36
74842884,0.29,0.86,-0.36
74844714,0.29,0.86,-0.36
74846701,0.29,0.86,-0.37
74848699,0.29,0.86,-0.37
74850732,0.29,0.86,-0.37
74852726,0.29,0.86,-0.37
74854688,0.29,0.86,-0.37
74856667,0.29,0.84,-0.37
74858662,0.29,0.84,-0.37
74860661,0.29,0.84,-0.37
74862653,0.29,0.84,-0.37
74864653,0.29,0.84,-0.37
74866779,0.29,0.84,-0.37
74868670,0.29,0.85,-0.36
74870665,0.29,0.85,-0.36
74872666,0.29,0.85,-0.36
74874664,0.29,0.85,-0.36
74876710,0.29,0.85,-0.36
74878708,0.29,0.85,-0.37
74880703,0.29,0.85,-0.37
74882708,0.29,0.85,-0.37
74884708,0.29,0.85,-0.37
74886708,0.29,0.85,-0.37
74888678,0.30,0.86,-0.37
74890766,0.30,0.86,-0.37
74892785,0.30,0.86,-0.37
74894662,0.30,0.86,-0.37
74896663,0.30,0.86,-0.37
74898652,0.30,0.85,-0.36
74900669,0.30,0.85,-0.36
74902712,0.30,0.85,-0.36
74904669,0.30,0.85,-0.36
74906667,0.30,0.85,-0.36
74908702,0.31,0.86,-0.37
74910666,0.31,0.86,-0.37
74912665,0.31,0.86,-0.37
74914662,0.31,0.86,-0.37
74916814,0.31,0.86,-0.37
74918717,0.30,0.86,-0.36
74920707,0.30,0.86,-0.36
74922717,0.30,0.86,-0.36
74924733,0.30,0.86,-0.36
74926722,0.30,0.86,-0.36
74928709,0.30,0.86,-0.36
74930722,0.30,0.86,-0.36
74932762,0.30,0.86,-0.36
74934721,0.30,0.86,-0.36
74936696,0.30,0.86,-0.36
74938664,0.30,0.84,-0.37
74940726,0.30,0.84,-0.37
74942805,0.30,0.84,-0.37
74944666,0.30,0.84,-0.37
74946654,0.30,0.84,-0.37
74948724,0.29,0.86,-0.37
74950697,0.29,0.86,-0.37
74952664,0.29,0.86,-0.37
74954670,0.29,0.86,-0.37
74956726,0.29,0.86,-0.37
74958711,0.29,0.86,-0.37
74960709,0.28,0.87,-0.37
74962708,0.28,0.87,-0.37
74964703,0.28,0.87,-0.37
74966803,0.28,0.87,-0.37
74968709,0.28,0.87,-0.37
74970667,0.28,0.86,-0.36
74972680,0.28,0.86,-0.36
74974770,0.28,0.86,-0.36
74976687,0.28,0.86,-0.36
74978654,0.28,0.86,-0.36
74980654,0.29,0.87,-0.38
74982663,0.29,0.87,-0.38
74984668,0.29,0.87,-0.38
74986724,0.29,0.87,-0.38
74988681,0.29,0.87,-0.38
74990665,0.29,0.88,-0.37
74992791,0.29,0.88,-0.37
74994676,0.29,0.88,-0.37
74996735,0.29,0.88,-0.37
74998712,0.29,0.88,-0.37
75000709,0.30,0.85,-0.37
75002719,0.30,0.85,-0.37
75004733,0.30,0.85,-0.37
75006720,0.30,0.85,-0.37
75008712,0.30,0.85,-0.37
75010717,0.30,0.86,-0.38
75012734,0.30,0.86,-0.38
75014771,0.30,0.86,-0.38
75016824,0.30,0.86,-0.38
75018701,0.30,0.86,-0.38
75020677,0.29,0.86,-0.37
75022675,0.29,0.86,-0.37
75024675,0.29,0.86,-0.37
75026676,0.29,0.86,-0.37
75028719,0.29,0.86,-0.37
75030735,0.29,0.87,-0.37
75032704,0.29,0.87,-0.37
75034680,0.29,0.87,-0.37
75036675,0.29,0.87,-0.37
75038766,0.29,0.87,-0.37
75040667,0.29,0.87,-0.37
75042806,0.28,0.86,-0.36
75044728,0.28,0.86,-0.36
