timestamp,accX,accY,accZ
435890743,0.21,0.70,-0.64
435892771,0.21,0.70,-0.64
435894697,0.21,0.70,-0.64
435896693,0.21,0.70,-0.64
435898687,0.21,0.70,-0.63
435900686,0.21,0.70,-0.63
435902691,0.21,0.70,-0.63
435904695,0.21,0.70,-0.63
435906696,0.21,0.70,-0.63
435908692,0.21,0.70,-0.64
435910696,0.21,0.70,-0.64
435912698,0.21,0.70,-0.64
435914694,0.21,0.70,-0.64
435916762,0.21,0.70,-0.64
435918691,0.21,0.71,-0.63
435920695,0.21,0.71,-0.63
435922695,0.21,0.71,-0.63
435924694,0.21,0.71,-0.63
435926689,0.21,0.71,-0.63
435928686,0.21,0.71,-0.63
435930696,0.21,0.71,-0.63
435932690,0.21,0.71,-0.63
435934756,0.21,0.71,-0.63
435936729,0.21,0.71,-0.63
435938717,0.22,0.70,-0.63
435940718,0.22,0.70,-0.63
435942803,0.22,0.70,-0.63
435944717,0.22,0.70,-0.63
435946717,0.22,0.70,-0.63
435948802,0.22,0.70,-0.64
435950726,0.22,0.70,-0.64
435952714,0.22,0.70,-0.64
435954682,0.22,0.70,-0.64
435956675,0.22,0.70,-0.64
435958669,0.21,0.71,-0.62
435960686,0.21,0.71,-0.62
435962709,0.21,0.71,-0.62
435964676,0.21,0.71,-0.62
435966768,0.21,0.71,-0.62
435968714,0.21,0.71,-0.62
435970711,0.21,0.71,-0.63
435972674,0.21,0.71,-0.63
435974720,0.21,0.71,-0.63
435976755,0.21,0.71,-0.63
435978745,0.21,0.71,-0.63
435980717,0.21,0.71,-0.63
435982711,0.21,0.71,-0.63
435984720,0.21,0.71,-0.63
435986758,0.21,0.71,-0.63
435988723,0.21,0.71,-0.63
435990721,0.22,0.71,-0.63
435992809,0.22,0.71,-0.63
435994675,0.22,0.71,-0.63
435996676,0.22,0.71,-0.63
435998679,0.22,0.71,-0.63
436000681,0.22,0.71,-0.63
436002705,0.22,0.71,-0.63
436004787,0.22,0.71,-0.63
436006700,0.22,0.71,-0.63
436008672,0.22,0.71,-0.63
436010679,0.21,0.71,-0.63
436012717,0.21,0.71,-0.63
436014741,0.21,0.71,-0.63
436016818,0.21,0.71,-0.63
436018719,0.21,0.71,-0.63
436020719,0.22,0.71,-0.63
436022722,0.22,0.71,-0.63
436024744,0.22,0.71,-0.63
436026721,0.22,0.71,-0.63
436028714,0.22,0.71,-0.63
436030712,0.22,0.71,-0.62
436032711,0.22,0.71,-0.62
436034783,0.22,0.71,-0.62
436036702,0.22,0.71,-0.62
436038676,0.22,0.71,-0.62
436040677,0.21,0.71,-0.62
436042824,0.21,0.71,-0.62
436044679,0.21,0.71,-0.62
436046676,0.21,0.71,-0.62
436048675,0.21,0.71,-0.62
436050669,0.21,0.71,-0.62
436052675,0.22,0.71,-0.62
436054738,0.22,0.71,-0.62
436056718,0.22,0.71,-0.62
436058717,0.22,0.71,-0.62
436060719,0.22,0.71,-0.62
436062739,0.21,0.71,-0.62
436064819,0.21,0.71,-0.62
436066828,0.21,0.71,-0.62
436068716,0.21,0.71,-0.62
436070720,0.21,0.71,-0.62
436072718,0.21,0.71,-0.62
436074714,0.21,0.71,-0.62
436076732,0.21,0.71,-0.62
436078672,0.21,0.71,-0.62
436080671,0.21,0.71,-0.62
436082673,0.22,0.71,-0.63
436084722,0.22,0.71,-0.63
436086687,0.22,0.71,-0.63
436088669,0.22,0.71,-0.63
436090676,0.22,0.71,-0.63
436092782,0.22,0.71,-0.62
436094769,0.22,0.71,-0.62
436096719,0.22,0.71,-0.62
436098718,0.22,0.71,-0.62
436100717,0.22,0.71,-0.62
436102716,0.21,0.71,-0.61
436104714,0.21,0.71,-0.61
436106718,0.21,0.71,-0.61
436108698,0.21,0.71,-0.61
436110787,0.21,0.71,-0.61
436112698,0.21,0.71,-0.62
436114676,0.21,0.71,-0.62
436116783,0.21,0.71,-0.62
436118679,0.21,0.71,-0.62
436120676,0.21,0.71,-0.62
436122675,0.22,0.71,-0.63
436124674,0.22,0.71,-0.63
436126672,0.22,0.71,-0.63
436128669,0.22,0.71,-0.63
436130671,0.22,0.71,-0.63
436132676,0.22,0.71,-0.63
436134727,0.22,0.71,-0.63
436136720,0.22,0.71,-0.63
436138757,0.22,0.71,-0.63
436140729,0.22,0.71,-0.63
436142828,0.22,0.71,-0.63
436144734,0.21,0.71,-0.62
436146738,0.21,0.71,-0.62
436148721,0.21,0.71,-0.62
436150716,0.21,0.71,-0.62
436152710,0.21,0.71,-0.62
436154679,0.22,0.71,-0.62
436156675,0.22,0.71,-0.62
436158679,0.22,0.71,-0.62
436160680,0.22,0.71,-0.62
436162713,0.22,0.71,-0.62
436164679,0.22,0.72,-0.62
436166778,0.22,0.72,-0.62
436168683,0.22,0.72,-0.62
436170676,0.22,0.72,-0.62
436172668,0.22,0.72,-0.62
436174718,0.22,0.71,-0.62
436176725,0.22,0.71,-0.62
436178835,0.22,0.71,-0.62
436180729,0.22,0.71,-0.62
436182714,0.22,0.71,-0.62
436184720,0.21,0.71,-0.62
436186724,0.21,0.71,-0.62
436188740,0.21,0.71,-0.62
436190733,0.21,0.71,-0.62
436192812,0.21,0.71,-0.62
436194679,0.21,0.71,-0.62
436196686,0.21,0.71,-0.62
436198753,0.21,0.71,-0.62
436200694,0.21,0.71,-0.62
436202671,0.21,0.71,-0.62
436204706,0.21,0.71,-0.62
436206720,0.21,0.71,-0.62
436208676,0.21,0.71,-0.62
436210677,0.21,0.71,-0.62
436212677,0.21,0.71,-0.62
436214737,0.22,0.71,-0.63
436216819,0.22,0.71,-0.63
436218718,0.22,0.71,-0.63
436220728,0.22,0.71,-0.63
436222745,0.22,0.71,-0.63
436224721,0.22,0.71,-0.63
436226718,0.21,0.71,-0.63
436228717,0.21,0.71,-0.63
436230734,0.21,0.71,-0.63
436232782,0.21,0.71,-0.63
436234705,0.21,0.71,-0.63
436236675,0.21,0.71,-0.63
436238667,0.21,0.71,-0.63
436240680,0.21,0.71,-0.63
436242817,0.21,0.71,-0.63
436244677,0.21,0.71,-0.63
436246680,0.22,0.71,-0.63
436248667,0.22,0.71,-0.63
436250654,0.22,0.71,-0.63
436252671,0.22,0.71,-0.63
436254737,0.22,0.71,-0.63
436256717,0.21,0.71,-0.63
436258715,0.21,0.71,-0.63
436260720,0.21,0.71,-0.63
436262735,0.21,0.71,-0.63
436264720,0.21,0.71,-0.63
436266805,0.22,0.71,-0.62
436268693,0.22,0.71,-0.62
436270681,0.22,0.71,-0.62
436272676,0.22,0.71,-0.62
436274673,0.22,0.71,-0.62
436276676,0.21,0.71,-0.63
436278712,0.21,0.71,-0.63
436280684,0.21,0.71,-0.63
436282781,0.21,0.71,-0.63
436284707,0.21,0.71,-0.63
436286691,0.21,0.71,-0.62
436288680,0.21,0.71,-0.62
436290679,0.21,0.71,-0.62
436292779,0.21,0.71,-0.62
436294749,0.21,0.71,-0.62
436296745,0.21,0.71,-0.63
436298722,0.21,0.71,-0.63
436300717,0.21,0.71,-0.63
436302726,0.21,0.71,-0.63
436304761,0.21,0.71,-0.63
436306741,0.21,0.71,-0.63
436308718,0.22,0.71,-0.63
436310715,0.22,0.71,-0.63
436312719,0.22,0.71,-0.63
436314683,0.22,0.71,-0.63
436316773,0.22,0.71,-0.63
436318701,0.21,0.71,-0.62
436320745,0.21,0.71,-0.62
436322694,0.21,0.71,-0.62
436324674,0.21,0.71,-0.62
436326673,0.21,0.71,-0.62
436328684,0.21,0.71,-0.61
436330720,0.21,0.71,-0.61
436332671,0.21,0.71,-0.61
436334743,0.21,0.71,-0.61
436336713,0.21,0.71,-0.61
436338731,0.21,0.71,-0.62
436340722,0.21,0.71,-0.62
436342844,0.21,0.71,-0.62
436344723,0.21,0.71,-0.62
436346714,0.21,0.71,-0.62
436348714,0.22,0.71,-0.63
436350713,0.22,0.71,-0.63
436352683,0.22,0.71,-0.63
436354782,0.22,0.71,-0.63
436356706,0.22,0.71,-0.63
436358678,0.21,0.71,-0.63
436360678,0.21,0.71,-0.63
436362709,0.21,0.71,-0.63
436364671,0.21,0.71,-0.63
436366763,0.21,0.71,-0.63
436368687,0.21,0.71,-0.63
436370675,0.21,0.71,-0.63
436372677,0.21,0.71,-0.63
436374732,0.21,0.71,-0.63
436376846,0.21,0.71,-0.63
436378744,0.21,0.71,-0.63
436380723,0.21,0.71,-0.63
436382717,0.21,0.71,-0.63
436384723,0.21,0.71,-0.63
436386774,0.21,0.71,-0.63
436388728,0.22,0.71,-0.63
436390718,0.22,0.71,-0.63
436392824,0.22,0.71,-0.63
436394743,0.22,0.71,-0.63
436396720,0.22,0.71,-0.63
436398675,0.22,0.71,-0.63
436400674,0.22,0.70,-0.64
436402671,0.22,0.70,-0.64
436404725,0.22,0.70,-0.64
436406676,0.22,0.70,-0.64
436408681,0.22,0.70,-0.64
436410676,0.22,0.71,-0.63
436412669,0.22,0.71,-0.63
436414739,0.22,0.71,-0.63
436416816,0.22,0.71,-0.63
436418716,0.22,0.71,-0.63
436420718,0.22,0.70,-0.64
436422717,0.22,0.70,-0.64
436424718,0.22,0.70,-0.64
436426714,0.22,0.70,-0.64
436428677,0.22,0.70,-0.64
436430679,0.22,0.71,-0.63
436432684,0.22,0.71,-0.63
436434671,0.22,0.71,-0.63
436436679,0.22,0.71,-0.63
436438680,0.22,0.71,-0.63
436440682,0.21,0.71,-0.64
436442753,0.21,0.71,-0.64
436444676,0.21,0.71,-0.64
436446680,0.21,0.71,-0.64
436448675,0.21,0.71,-0.64
436450672,0.22,0.70,-0.64
436452668,0.22,0.70,-0.64
436454716,0.22,0.70,-0.64
436456718,0.22,0.70,-0.64
436458717,0.22,0.70,-0.64
436460796,0.22,0.71,-0.63
436462743,0.22,0.71,-0.63
436464717,0.22,0.71,-0.63
436466814,0.22,0.71,-0.63
436468715,0.22,0.71,-0.63
436470676,0.22,0.71,-0.63
436472674,0.22,0.71,-0.63
436474728,0.22,0.71,-0.63
436476724,0.22,0.71,-0.63
436478671,0.22,0.71,-0.63
436480676,0.22,0.71,-0.63
436482683,0.22,0.70,-0.64
436484713,0.22,0.70,-0.64
436486691,0.22,0.70,-0.64
436488678,0.22,0.70,-0.64
436490681,0.22,0.70,-0.64
436492776,0.22,0.71,-0.63
436494726,0.22,0.71,-0.63
436496711,0.22,0.71,-0.63
436498718,0.22,0.71,-0.63
436500721,0.22,0.71,-0.63
436502728,0.21,0.70,-0.64
436504712,0.21,0.70,-0.64
436506717,0.21,0.70,-0.64
436508681,0.21,0.70,-0.64
436510684,0.21,0.70,-0.64
436512761,0.22,0.71,-0.64
436514701,0.22,0.71,-0.64
436516772,0.22,0.71,-0.64
436518681,0.22,0.71,-0.64
436520671,0.22,0.71,-0.64
436522717,0.22,0.70,-0.64
436524717,0.22,0.70,-0.64
436526669,0.22,0.70,-0.64
436528674,0.22,0.70,-0.64
436530678,0.22,0.70,-0.64
436532677,0.22,0.70,-0.64
436534739,0.22,0.70,-0.64
436536717,0.22,0.70,-0.64
436538715,0.22,0.70,-0.64
436540720,0.22,0.70,-0.64
436542842,0.21,0.70,-0.63
436544724,0.21,0.70,-0.63
436546714,0.21,0.70,-0.63
436548719,0.21,0.70,-0.63
436550714,0.21,0.70,-0.63
436552671,0.22,0.70,-0.63
436554669,0.22,0.70,-0.63
436556675,0.22,0.70,-0.63
436558676,0.22,0.70,-0.63
436560679,0.22,0.70,-0.63
436562708,0.22,0.70,-0.63
436564669,0.21,0.71,-0.63
436566752,0.21,0.71,-0.63
436568688,0.21,0.71,-0.63
436570672,0.21,0.71,-0.63
436572676,0.21,0.71,-0.63
436574716,0.21,0.71,-0.64
436576715,0.21,0.71,-0.64
436578720,0.21,0.71,-0.64
436580810,0.21,0.71,-0.64
436582728,0.21,0.71,-0.64
436584721,0.21,0.70,-0.63
436586716,0.21,0.70,-0.63
436588717,0.21,0.70,-0.63
436590678,0.21,0.70,-0.63
436592782,0.21,0.70,-0.63
436594743,0.21,0.70,-0.63
436596713,0.21,0.70,-0.63
436598675,0.21,0.70,-0.63
436600677,0.21,0.70,-0.63
436602683,0.21,0.70,-0.63
436604669,0.22,0.71,-0.64
436606720,0.22,0.71,-0.64
436608674,0.22,0.71,-0.64
436610670,0.22,0.71,-0.64
436612741,0.22,0.71,-0.64
436614742,0.22,0.71,-0.64
436616822,0.22,0.71,-0.64
436618716,0.22,0.71,-0.64
436620716,0.22,0.71,-0.64
436622715,0.22,0.71,-0.64
436624717,0.21,0.71,-0.64
436626712,0.21,0.71,-0.64
436628674,0.21,0.71,-0.64
436630681,0.21,0.71,-0.64
436632674,0.21,0.71,-0.64
436634676,0.22,0.70,-0.64
436636674,0.22,0.70,-0.64
436638679,0.22,0.70,-0.64
436640683,0.22,0.70,-0.64
436642862,0.22,0.70,-0.64
436644694,0.22,0.70,-0.64
436646674,0.22,0.70,-0.64
436648671,0.22,0.70,-0.64
436650670,0.22,0.70,-0.64
436652714,0.22,0.70,-0.64
436654750,0.22,0.70,-0.64
436656737,0.22,0.70,-0.64
436658719,0.22,0.70,-0.64
436660716,0.22,0.70,-0.64
436662785,0.22,0.70,-0.64
436664727,0.22,0.70,-0.64
436666823,0.21,0.70,-0.63
436668719,0.21,0.70,-0.63
436670715,0.21,0.70,-0.63
436672757,0.21,0.70,-0.63
436674709,0.21,0.70,-0.63
436676671,0.22,0.70,-0.65
436678668,0.22,0.70,-0.65
436680672,0.22,0.70,-0.65
436682718,0.22,0.70,-0.65
436684682,0.22,0.70,-0.65
436686709,0.21,0.70,-0.64
436688666,0.21,0.70,-0.64
436690677,0.21,0.70,-0.64
436692780,0.21,0.70,-0.64
436694748,0.21,0.70,-0.64
436696719,0.22,0.70,-0.64
436698713,0.22,0.70,-0.64
436700731,0.22,0.70,-0.64
436702740,0.22,0.70,-0.64
436704725,0.22,0.70,-0.64
436706715,0.22,0.70,-0.64
436708715,0.22,0.70,-0.64
436710718,0.22,0.70,-0.64
436712671,0.22,0.70,-0.64
436714667,0.22,0.70,-0.64
436716771,0.21,0.70,-0.64
436718688,0.21,0.70,-0.64
436720674,0.21,0.70,-0.64
436722716,0.21,0.70,-0.64
436724728,0.21,0.70,-0.64
436726684,0.22,0.70,-0.64
436728678,0.22,0.70,-0.64
436730676,0.22,0.70,-0.64
436732680,0.22,0.70,-0.64
436734719,0.22,0.70,-0.64
436736714,0.22,0.70,-0.64
436738723,0.22,0.70,-0.64
436740761,0.22,0.70,-0.64
436742832,0.22,0.70,-0.64
436744716,0.22,0.70,-0.64
436746712,0.22,0.70,-0.64
436748713,0.21,0.70,-0.63
436750680,0.21,0.70,-0.63
436752667,0.21,0.70,-0.63
436754674,0.21,0.70,-0.63
436756678,0.21,0.70,-0.63
436758685,0.21,0.70,-0.63
436760756,0.21,0.70,-0.63
436762688,0.21,0.70,-0.63
436764682,0.21,0.70,-0.63
436766810,0.21,0.70,-0.63
436768684,0.22,0.70,-0.64
436770686,0.22,0.70,-0.64
436772723,0.22,0.70,-0.64
436774754,0.22,0.70,-0.64
436776716,0.22,0.70,-0.64
436778717,0.22,0.70,-0.64
436780726,0.22,0.70,-0.64
436782744,0.22,0.70,-0.64
436784718,0.22,0.70,-0.64
436786718,0.22,0.70,-0.64
436788715,0.22,0.70,-0.64
436790739,0.22,0.70,-0.64
436792856,0.22,0.70,-0.64
436794702,0.22,0.70,-0.64
436796672,0.22,0.70,-0.64
436798676,0.22,0.70,-0.64
436800696,0.22,0.70,-0.64
436802721,0.22,0.70,-0.64
436804679,0.22,0.70,-0.64
436806669,0.22,0.70,-0.64
436808698,0.21,0.70,-0.64
436810667,0.21,0.70,-0.64
436812679,0.21,0.70,-0.64
436814722,0.21,0.70,-0.64
436816804,0.21,0.70,-0.64
436818712,0.21,0.70,-0.64
436820704,0.22,0.70,-0.64
436822736,0.22,0.70,-0.64
436824713,0.22,0.70,-0.64
436826702,0.22,0.70,-0.64
436828699,0.22,0.70,-0.64
436830740,0.22,0.70,-0.64
436832710,0.22,0.70,-0.64
436834665,0.22,0.70,-0.64
436836666,0.22,0.70,-0.64
436838665,0.22,0.70,-0.64
436840668,0.21,0.70,-0.64
436842807,0.21,0.70,-0.64
436844666,0.21,0.70,-0.64
436846654,0.21,0.70,-0.64
436848664,0.21,0.70,-0.64
436850666,0.21,0.70,-0.65
436852654,0.21,0.70,-0.65
436854723,0.21,0.70,-0.65
436856709,0.21,0.70,-0.65
436858703,0.21,0.70,-0.65
436860703,0.22,0.70,-0.64
436862705,0.22,0.70,-0.64
436864709,0.22,0.70,-0.64
436866821,0.22,0.70,-0.64
436868708,0.22,0.70,-0.64
436870665,0.21,0.70,-0.64
436872653,0.21,0.70,-0.64
436874668,0.21,0.70,-0.64
436876744,0.21,0.70,-0.64
436878705,0.21,0.70,-0.64
436880662,0.21,0.69,-0.64
436882653,0.21,0.69,-0.64
436884663,0.21,0.69,-0.64
436886691,0.21,0.69,-0.64
436888710,0.21,0.69,-0.64
436890704,0.22,0.69,-0.66
436892699,0.22,0.69,-0.66
436894720,0.22,0.69,-0.66
436896708,0.22,0.69,-0.66
436898703,0.22,0.69,-0.66
436900705,0.22,0.69,-0.66
436902721,0.22,0.69,-0.66
436904751,0.22,0.69,-0.66
436906718,0.22,0.69,-0.66
436908705,0.22,0.69,-0.66
436910701,0.22,0.69,-0.66
436912664,0.22,0.69,-0.65
436914652,0.22,0.69,-0.65
436916652,0.22,0.69,-0.65
436918664,0.22,0.69,-0.65
436920667,0.22,0.69,-0.65
436922746,0.22,0.69,-0.65
436924694,0.22,0.69,-0.65
436926654,0.22,0.69,-0.65
436928666,0.22,0.69,-0.65
436930669,0.22,0.69,-0.65
436932718,0.21,0.69,-0.65
436934722,0.21,0.69,-0.65
436936712,0.21,0.69,-0.65
436938704,0.21,0.69,-0.65
436940730,0.21,0.69,-0.65
436942757,0.21,0.69,-0.64
436944713,0.21,0.69,-0.64
436946702,0.21,0.69,-0.64
436948703,0.21,0.69,-0.64
436950700,0.21,0.69,-0.64
436952770,0.21,0.70,-0.64
436954690,0.21,0.70,-0.64
436956663,0.21,0.70,-0.64
436958651,0.21,0.70,-0.64
436960652,0.21,0.70,-0.64
436962716,0.22,0.68,-0.66
436964664,0.22,0.68,-0.66
436966719,0.22,0.68,-0.66
436968664,0.22,0.68,-0.66
436970654,0.22,0.68,-0.66
436972650,0.21,0.69,-0.62
436974728,0.21,0.69,-0.62
436976710,0.21,0.69,-0.62
436978705,0.21,0.69,-0.62
436980705,0.21,0.69,-0.62
436982701,0.21,0.69,-0.62
436984707,0.21,0.68,-0.68
436986710,0.21,0.68,-0.68
436988667,0.21,0.68,-0.68
436990666,0.21,0.68,-0.68
436992734,0.21,0.68,-0.68
436994745,0.22,0.68,-0.66
436996706,0.22,0.68,-0.66
436998674,0.22,0.68,-0.66
437000671,0.22,0.68,-0.66
437002680,0.22,0.68,-0.66
437004672,0.22,0.68,-0.67
437006683,0.22,0.68,-0.67
437008716,0.22,0.68,-0.67
437010672,0.22,0.68,-0.67
437012675,0.22,0.68,-0.67
437014721,0.22,0.67,-0.66
437016733,0.22,0.67,-0.66
437018707,0.22,0.67,-0.66
437020701,0.22,0.67,-0.66
437022708,0.22,0.67,-0.66
437024703,0.21,0.68,-0.67
437026708,0.21,0.68,-0.67
437028670,0.21,0.68,-0.67
437030673,0.21,0.68,-0.67
437032666,0.21,0.68,-0.67
437034672,0.21,0.67,-0.66
437036677,0.21,0.67,-0.66
437038679,0.21,0.67,-0.66
437040742,0.21,0.67,-0.66
437042722,0.21,0.67,-0.66
437044672,0.21,0.67,-0.65
437046674,0.21,0.67,-0.65
437048669,0.21,0.67,-0.65
437050673,0.21,0.67,-0.65
437052671,0.21,0.67,-0.65
437054717,0.21,0.66,-0.66
437056705,0.21,0.66,-0.66
437058703,0.21,0.66,-0.66
437060707,0.21,0.66,-0.66
437062707,0.21,0.66,-0.66
437064729,0.21,0.66,-0.68
437066784,0.21,0.66,-0.68
437068734,0.21,0.66,-0.68
437070681,0.21,0.66,-0.68
437072682,0.21,0.66,-0.68
437074668,0.21,0.66,-0.68
437076677,0.21,0.65,-0.66
437078733,0.21,0.65,-0.66
437080682,0.21,0.65,-0.66
437082674,0.21,0.65,-0.66
437084674,0.21,0.65,-0.66
437086692,0.22,0.64,-0.73
437088714,0.22,0.64,-0.73
437090680,0.22,0.64,-0.73
437092706,0.22,0.64,-0.73
437094729,0.22,0.64,-0.73
437096730,0.21,0.64,-0.73
437098708,0.21,0.64,-0.73
437100709,0.21,0.64,-0.73
437102735,0.21,0.64,-0.73
437104721,0.21,0.64,-0.73
437106709,0.21,0.63,-0.72
437108714,0.21,0.63,-0.72
437110712,0.21,0.63,-0.72
437112665,0.21,0.63,-0.72
437114678,0.21,0.63,-0.72
437116746,0.21,0.63,-0.71
437118712,0.21,0.63,-0.71
437120674,0.21,0.63,-0.71
437122667,0.21,0.63,-0.71
437124677,0.21,0.63,-0.71
437126680,0.21,0.62,-0.71
437128679,0.21,0.62,-0.71
437130709,0.21,0.62,-0.71
437132666,0.21,0.62,-0.71
437134726,0.21,0.62,-0.71
437136714,0.21,0.62,-0.72
437138708,0.21,0.62,-0.72
437140713,0.21,0.62,-0.72
437142752,0.21,0.62,-0.72
437144721,0.21,0.62,-0.72
437146709,0.21,0.62,-0.73
437148713,0.21,0.62,-0.73
437150708,0.21,0.62,-0.73
437152677,0.21,0.62,-0.73
437154676,0.21,0.62,-0.73
437156672,0.21,0.62,-0.73
437158670,0.21,0.62,-0.75
437160672,0.21,0.62,-0.75
437162670,0.21,0.62,-0.75
437164675,0.21,0.62,-0.75
437166700,0.21,0.62,-0.75
437168758,0.21,0.62,-0.72
437170714,0.21,0.62,-0.72
437172678,0.21,0.62,-0.72
437174732,0.21,0.62,-0.72
437176713,0.21,0.62,-0.72
437178733,0.21,0.62,-0.72
437180714,0.21,0.62,-0.72
437182708,0.21,0.62,-0.72
437184713,0.21,0.62,-0.72
437186719,0.21,0.62,-0.72
437188732,0.21,0.61,-0.73
437190727,0.21,0.61,-0.73
437192729,0.21,0.61,-0.73
437194697,0.21,0.61,-0.73
437196678,0.21,0.61,-0.73
437198709,0.21,0.62,-0.73
437200749,0.21,0.62,-0.73
437202693,0.21,0.62,-0.73
437204675,0.21,0.62,-0.73
437206681,0.21,0.62,-0.73
437208708,0.21,0.62,-0.72
437210672,0.21,0.62,-0.72
437212675,0.21,0.62,-0.72
437214729,0.21,0.62,-0.72
437216738,0.21,0.62,-0.72
437218713,0.21,0.62,-0.71
437220723,0.21,0.62,-0.71
437222734,0.21,0.62,-0.71
437224716,0.21,0.62,-0.71
437226706,0.21,0.62,-0.71
437228701,0.21,0.62,-0.72
437230753,0.21,0.62,-0.72
437232719,0.21,0.62,-0.72
437234678,0.21,0.62,-0.72
437236677,0.21,0.62,-0.72
437238666,0.21,0.62,-0.72
437240680,0.21,0.62,-0.73
437242703,0.21,0.62,-0.73
437244675,0.21,0.62,-0.73
437246687,0.21,0.62,-0.73
437248738,0.21,0.62,-0.73
437250684,0.20,0.62,-0.70
437252675,0.20,0.62,-0.70
437254717,0.20,0.62,-0.70
437256776,0.20,0.62,-0.70
437258726,0.20,0.62,-0.70
437260706,0.21,0.62,-0.71
437262709,0.21,0.62,-0.71
437264734,0.21,0.62,-0.71
437266740,0.21,0.62,-0.71
437268707,0.21,0.62,-0.71
437270730,0.21,0.63,-0.71
437272749,0.21,0.63,-0.71
437274744,0.21,0.63,-0.71
437276698,0.21,0.63,-0.71
437278671,0.21,0.63,-0.71
437280674,0.21,0.63,-0.71
437282717,0.21,0.63,-0.71
437284726,0.21,0.63,-0.71
437286687,0.21,0.63,-0.71
437288679,0.21,0.63,-0.71
437290688,0.21,0.63,-0.71
437292739,0.21,0.63,-0.71
437294767,0.21,0.63,-0.71
437296718,0.21,0.63,-0.71
437298712,0.21,0.63,-0.71
437300737,0.21,0.63,-0.72
437302715,0.21,0.63,-0.72
437304720,0.21,0.63,-0.72
437306734,0.21,0.63,-0.72
437308741,0.21,0.63,-0.72
437310711,0.21,0.64,-0.71
437312712,0.21,0.64,-0.71
437314694,0.21,0.64,-0.71
437316697,0.21,0.64,-0.71
437318673,0.21,0.64,-0.71
437320736,0.21,0.64,-0.70
437322702,0.21,0.64,-0.70
437324672,0.21,0.64,-0.70
437326676,0.21,0.64,-0.70
437328676,0.21,0.64,-0.70
437330667,0.21,0.64,-0.70
437332668,0.21,0.64,-0.68
437334715,0.21,0.64,-0.68
437336722,0.21,0.64,-0.68
437338744,0.21,0.64,-0.68
437340719,0.21,0.64,-0.68
437342728,0.21,0.64,-0.69
437344712,0.21,0.64,-0.69
437346715,0.21,0.64,-0.69
437348733,0.21,0.64,-0.69
437350718,0.21,0.64,-0.69
437352693,0.21,0.64,-0.69
437354672,0.21,0.64,-0.69
437356674,0.21,0.64,-0.69
437358676,0.21,0.64,-0.69
437360745,0.21,0.64,-0.69
437362693,0.21,0.64,-0.70
437364678,0.21,0.64,-0.70
437366700,0.21,0.64,-0.70
437368714,0.21,0.64,-0.70
437370708,0.21,0.64,-0.70
437372679,0.21,0.64,-0.70
437374731,0.21,0.64,-0.70
437376703,0.21,0.64,-0.70
437378708,0.21,0.64,-0.70
437380707,0.21,0.64,-0.70
437382710,0.21,0.65,-0.70
437384763,0.21,0.65,-0.70
437386724,0.21,0.65,-0.70
437388709,0.21,0.65,-0.70
437390708,0.21,0.65,-0.70
437392701,0.21,0.65,-0.68
437394674,0.21,0.65,-0.68
437396696,0.21,0.65,-0.68
437398691,0.21,0.65,-0.68
437400661,0.21,0.65,-0.68
437402713,0.21,0.64,-0.66
437404669,0.21,0.64,-0.66
437406666,0.21,0.64,-0.66
437408663,0.21,0.64,-0.66
437410662,0.21,0.64,-0.66
437412677,0.21,0.64,-0.66
437414747,0.21,0.65,-0.68
437416740,0.21,0.65,-0.68
437418706,0.21,0.65,-0.68
437420699,0.21,0.65,-0.68
437422728,0.21,0.65,-0.68
437424725,0.21,0.65,-0.71
437426702,0.21,0.65,-0.71
437428705,0.21,0.65,-0.71
437430735,0.21,0.65,-0.71
437432730,0.21,0.65,-0.71
437434704,0.21,0.65,-0.69
437436670,0.21,0.65,-0.69
437438666,0.21,0.65,-0.69
437440663,0.21,0.65,-0.69
437442693,0.21,0.65,-0.69
437444654,0.21,0.64,-0.69
437446666,0.21,0.64,-0.69
437448662,0.21,0.64,-0.69
437450665,0.21,0.64,-0.69
437452664,0.21,0.64,-0.69
437454664,0.21,0.64,-0.70
437456707,0.21,0.64,-0.70
437458705,0.21,0.64,-0.70
437460704,0.21,0.64,-0.70
437462697,0.21,0.64,-0.70
437464698,0.21,0.64,-0.71
437466713,0.21,0.64,-0.71
437468674,0.21,0.64,-0.71
437470702,0.21,0.64,-0.71
437472665,0.21,0.64,-0.71
437474664,0.21,0.64,-0.71
437476690,0.21,0.64,-0.71
437478748,0.21,0.64,-0.71
437480689,0.21,0.64,-0.71
437482664,0.21,0.64,-0.71
437484652,0.21,0.64,-0.69
437486685,0.21,0.64,-0.69
437488738,0.21,0.64,-0.69
437490693,0.21,0.64,-0.69
437492739,0.21,0.64,-0.69
437494666,0.21,0.64,-0.69
437496726,0.21,0.63,-0.71
437498703,0.21,0.63,-0.71
437500704,0.21,0.63,-0.71
437502702,0.21,0.63,-0.71
437504715,0.21,0.63,-0.71
437506728,0.21,0.64,-0.69
437508731,0.21,0.64,-0.69
437510716,0.21,0.64,-0.69
437512716,0.21,0.64,-0.69
437514691,0.21,0.64,-0.69
437516692,0.21,0.63,-0.70
437518684,0.21,0.63,-0.70
437520727,0.21,0.63,-0.70
437522676,0.21,0.63,-0.70
437524666,0.21,0.63,-0.70
437526663,0.21,0.64,-0.70
437528719,0.21,0.64,-0.70
437530675,0.21,0.64,-0.70
437532663,0.21,0.64,-0.70
437534662,0.21,0.64,-0.70
437536730,0.21,0.62,-0.71
437538707,0.21,0.62,-0.71
437540708,0.21,0.62,-0.71
437542722,0.21,0.62,-0.71
437544704,0.21,0.62,-0.71
437546697,0.21,0.62,-0.73
437548733,0.21,0.62,-0.73
437550730,0.21,0.62,-0.73
437552701,0.21,0.62,-0.73
437554653,0.21,0.62,-0.73
437556669,0.21,0.62,-0.71
437558665,0.21,0.62,-0.71
437560701,0.21,0.62,-0.71
437562733,0.21,0.62,-0.71
437564670,0.21,0.62,-0.71
437566685,0.20,0.62,-0.71
437568722,0.20,0.62,-0.71
437570705,0.20,0.62,-0.71
437572665,0.20,0.62,-0.71
437574664,0.20,0.62,-0.71
437576732,0.20,0.62,-0.71
437578714,0.21,0.62,-0.71
437580713,0.21,0.62,-0.71
437582712,0.21,0.62,-0.71
437584757,0.21,0.62,-0.71
437586719,0.21,0.62,-0.71
437588706,0.21,0.61,-0.73
437590704,0.21,0.61,-0.73
437592821,0.21,0.61,-0.73
437594666,0.21,0.61,-0.73
437596670,0.21,0.61,-0.73
437598665,0.21,0.62,-0.73
437600675,0.21,0.62,-0.73
437602735,0.21,0.62,-0.73
437604685,0.21,0.62,-0.73
437606667,0.21,0.62,-0.73
437608675,0.21,0.61,-0.73
437610703,0.21,0.61,-0.73
437612738,0.21,0.61,-0.73
437614670,0.21,0.61,-0.73
437616740,0.21,0.61,-0.73
437618704,0.21,0.60,-0.73
437620704,0.21,0.60,-0.73
437622694,0.21,0.60,-0.73
437624702,0.21,0.60,-0.73
437626706,0.21,0.60,-0.73
437628664,0.20,0.60,-0.74
437630715,0.20,0.60,-0.74
437632726,0.20,0.60,-0.74
437634686,0.20,0.60,-0.74
437636653,0.20,0.60,-0.74
437638663,0.21,0.60,-0.73
437640653,0.21,0.60,-0.73
437642778,0.21,0.60,-0.73
437644662,0.21,0.60,-0.73
437646664,0.21,0.60,-0.73
437648666,0.20,0.60,-0.73
437650664,0.20,0.60,-0.73
437652674,0.20,0.60,-0.73
437654717,0.20,0.60,-0.73
437656728,0.20,0.60,-0.73
437658709,0.20,0.60,-0.73
437660707,0.20,0.59,-0.74
437662703,0.20,0.59,-0.74
437664707,0.20,0.59,-0.74
437666737,0.20,0.59,-0.74
437668732,0.20,0.59,-0.74
437670733,0.21,0.59,-0.75
437672706,0.21,0.59,-0.75
437674663,0.21,0.59,-0.75
437676677,0.21,0.59,-0.75
437678765,0.21,0.59,-0.75
437680693,0.21,0.58,-0.74
437682667,0.21,0.58,-0.74
437684695,0.21,0.58,-0.74
437686709,0.21,0.58,-0.74
437688664,0.21,0.58,-0.74
437690665,0.21,0.58,-0.75
437692699,0.21,0.58,-0.75
437694654,0.21,0.58,-0.75
437696723,0.21,0.58,-0.75
437698710,0.21,0.58,-0.75
437700706,0.20,0.58,-0.75
437702697,0.20,0.58,-0.75
437704695,0.20,0.58,-0.75
437706698,0.20,0.58,-0.75
437708710,0.20,0.58,-0.75
437710715,0.21,0.57,-0.77
437712737,0.21,0.57,-0.77
437714686,0.21,0.57,-0.77
437716687,0.21,0.57,-0.77
437718662,0.21,0.57,-0.77
437720663,0.20,0.57,-0.75
437722715,0.20,0.57,-0.75
437724693,0.20,0.57,-0.75
437726673,0.20,0.57,-0.75
437728661,0.20,0.57,-0.75
437730661,0.20,0.57,-0.75
437732650,0.20,0.57,-0.75
437734662,0.20,0.57,-0.75
437736726,0.20,0.57,-0.75
437738708,0.20,0.57,-0.75
437740709,0.20,0.57,-0.75
437742730,0.20,0.57,-0.75
437744746,0.20,0.57,-0.75
437746718,0.20,0.57,-0.75
437748706,0.20,0.57,-0.75
437750702,0.20,0.57,-0.75
437752741,0.20,0.56,-0.76
437754704,0.20,0.56,-0.76
437756666,0.20,0.56,-0.76
437758651,0.20,0.56,-0.76
437760667,0.20,0.56,-0.76
437762663,0.20,0.56,-0.77
437764663,0.20,0.56,-0.77
437766652,0.20,0.56,-0.77
437768663,0.20,0.56,-0.77
437770704,0.20,0.56,-0.77
437772653,0.20,0.56,-0.78
437774652,0.20,0.56,-0.78
437776714,0.20,0.56,-0.78
437778708,0.20,0.56,-0.78
437780710,0.20,0.56,-0.78
437782705,0.20,0.55,-0.78
437784701,0.20,0.55,-0.78
437786714,0.20,0.55,-0.78
437788743,0.20,0.55,-0.78
437790712,0.20,0.55,-0.78
437792698,0.20,0.56,-0.78
437794662,0.20,0.56,-0.78
437796662,0.20,0.56,-0.78
437798654,0.20,0.56,-0.78
437800661,0.20,0.56,-0.78
437802712,0.20,0.55,-0.76
437804664,0.20,0.55,-0.76
437806653,0.20,0.55,-0.76
437808662,0.20,0.55,-0.76
437810651,0.20,0.55,-0.76
437812699,0.20,0.56,-0.76
437814669,0.20,0.56,-0.76
437816742,0.20,0.56,-0.76
437818713,0.20,0.56,-0.76
437820705,0.20,0.56,-0.76
437822704,0.20,0.56,-0.77
437824705,0.20,0.56,-0.77
437826709,0.20,0.56,-0.77
437828755,0.20,0.56,-0.77
437830716,0.20,0.56,-0.77
437832693,0.20,0.56,-0.77
437834667,0.20,0.55,-0.77
437836670,0.20,0.55,-0.77
437838745,0.20,0.55,-0.77
437840675,0.20,0.55,-0.77
437842700,0.20,0.55,-0.77
437844678,0.20,0.56,-0.75
437846711,0.20,0.56,-0.75
437848664,0.20,0.56,-0.75
437850652,0.20,0.56,-0.75
437852663,0.20,0.56,-0.75
437854664,0.20,0.56,-0.77
437856726,0.20,0.56,-0.77
437858710,0.20,0.56,-0.77
437860702,0.20,0.56,-0.77
437862725,0.20,0.56,-0.77
437864738,0.20,0.56,-0.76
437866742,0.20,0.56,-0.76
437868708,0.20,0.56,-0.76
437870717,0.20,0.56,-0.76
437872704,0.20,0.56,-0.76
437874662,0.20,0.56,-0.75
437876666,0.20,0.56,-0.75
437878728,0.20,0.56,-0.75
437880709,0.20,0.56,-0.75
437882663,0.20,0.56,-0.75
437884664,0.20,0.56,-0.77
437886683,0.20,0.56,-0.77
437888689,0.20,0.56,-0.77
437890719,0.20,0.56,-0.77
437892704,0.20,0.56,-0.77
437894654,0.20,0.56,-0.75
437896729,0.20,0.56,-0.75
437898710,0.20,0.56,-0.75
437900705,0.20,0.56,-0.75
437902704,0.20,0.56,-0.75
437904728,0.20,0.57,-0.75
437906731,0.20,0.57,-0.75
437908713,0.20,0.57,-0.75
437910706,0.20,0.57,-0.75
437912694,0.20,0.57,-0.75
437914716,0.20,0.57,-0.75
437916717,0.20,0.57,-0.75
437918670,0.20,0.57,-0.75
437920663,0.20,0.57,-0.75
437922654,0.20,0.57,-0.75
437924665,0.20,0.57,-0.75
437926664,0.20,0.56,-0.76
437928653,0.20,0.56,-0.76
437930661,0.20,0.56,-0.76
437932666,0.20,0.56,-0.76
437934663,0.20,0.56,-0.76
437936714,0.20,0.56,-0.76
437938730,0.20,0.56,-0.76
437940766,0.20,0.56,-0.76
437942746,0.20,0.56,-0.76
437944707,0.20,0.56,-0.76
437946705,0.20,0.56,-0.76
437948703,0.20,0.56,-0.76
437950697,0.20,0.56,-0.76
437952661,0.20,0.56,-0.76
437954665,0.20,0.56,-0.76
437956664,0.20,0.57,-0.75
437958654,0.20,0.57,-0.75
437960665,0.20,0.57,-0.75
437962661,0.20,0.57,-0.75
437964667,0.20,0.57,-0.75
437966678,0.20,0.56,-0.75
437968671,0.20,0.56,-0.75
437970705,0.20,0.56,-0.75
437972654,0.20,0.56,-0.75
437974744,0.20,0.56,-0.75
437976726,0.20,0.56,-0.76
437978707,0.20,0.56,-0.76
437980703,0.20,0.56,-0.76
437982698,0.20,0.56,-0.76
437984711,0.20,0.56,-0.76
437986738,0.20,0.57,-0.76
437988718,0.20,0.57,-0.76
437990699,0.20,0.57,-0.76
437992802,0.20,0.57,-0.76
437994672,0.20,0.57,-0.76
437996738,0.20,0.57,-0.76
437998704,0.20,0.57,-0.76
438000670,0.20,0.57,-0.76
438002667,0.20,0.57,-0.76
438004662,0.20,0.57,-0.76
438006674,0.20,0.57,-0.76
438008715,0.20,0.57,-0.75
438010652,0.20,0.57,-0.75
438012653,0.20,0.57,-0.75
438014662,0.20,0.57,-0.75
438016748,0.20,0.57,-0.75
438018731,0.20,0.57,-0.74
438020707,0.20,0.57,-0.74
438022703,0.20,0.57,-0.74
438024703,0.20,0.57,-0.74
438026739,0.20,0.57,-0.74
438028730,0.20,0.57,-0.75
438030714,0.20,0.57,-0.75
438032706,0.20,0.57,-0.75
438034664,0.20,0.57,-0.75
438036700,0.20,0.57,-0.75
438038736,0.21,0.57,-0.77
438040677,0.21,0.57,-0.77
438042775,0.21,0.57,-0.77
438044663,0.21,0.57,-0.77
438046709,0.21,0.57,-0.77
438048691,0.20,0.57,-0.75
438050666,0.20,0.57,-0.75
438052664,0.20,0.57,-0.75
438054653,0.20,0.57,-0.75
438056732,0.20,0.57,-0.75
438058714,0.20,0.57,-0.76
438060709,0.20,0.57,-0.76
438062702,0.20,0.57,-0.76
438064704,0.20,0.57,-0.76
438066728,0.20,0.57,-0.76
438068710,0.20,0.57,-0.75
438070704,0.20,0.57,-0.75
438072663,0.20,0.57,-0.75
438074664,0.20,0.57,-0.75
438076654,0.20,0.57,-0.75
438078662,0.20,0.57,-0.75
438080662,0.20,0.57,-0.76
438082730,0.20,0.57,-0.76
438084716,0.20,0.57,-0.76
438086676,0.20,0.57,-0.76
438088670,0.20,0.57,-0.76
438090667,0.20,0.58,-0.74
438092706,0.20,0.58,-0.74
438094709,0.20,0.58,-0.74
438096726,0.20,0.58,-0.74
438098707,0.20,0.58,-0.74
438100706,0.20,0.57,-0.74
438102733,0.20,0.57,-0.74
438104739,0.20,0.57,-0.74
438106708,0.20,0.57,-0.74
438108714,0.20,0.57,-0.74
438110704,0.20,0.58,-0.74
438112729,0.20,0.58,-0.74
438114710,0.20,0.58,-0.74
438116689,0.20,0.58,-0.74
438118665,0.20,0.58,-0.74
438120674,0.20,0.57,-0.74
438122708,0.20,0.57,-0.74
438124712,0.20,0.57,-0.74
438126698,0.20,0.57,-0.74
438128668,0.20,0.57,-0.74
438130653,0.20,0.57,-0.74
438132664,0.20,0.57,-0.74
438134663,0.20,0.57,-0.74
438136731,0.20,0.57,-0.74
438138703,0.20,0.57,-0.74
438140699,0.21,0.56,-0.77
438142725,0.21,0.56,-0.77
438144760,0.21,0.56,-0.77
438146722,0.21,0.56,-0.77
438148704,0.21,0.56,-0.77
438150705,0.20,0.56,-0.76
438152707,0.20,0.56,-0.76
438154733,0.20,0.56,-0.76
438156681,0.20,0.56,-0.76
438158671,0.20,0.56,-0.76
438160667,0.21,0.57,-0.77
438162712,0.21,0.57,-0.77
438164687,0.21,0.57,-0.77
438166650,0.21,0.57,-0.77
438168667,0.21,0.57,-0.77
438170696,0.21,0.57,-0.77
438172663,0.20,0.56,-0.76
438174680,0.20,0.56,-0.76
438176728,0.20,0.56,-0.76
438178704,0.20,0.56,-0.76
438180706,0.20,0.56,-0.76
438182706,0.20,0.56,-0.76
438184714,0.20,0.56,-0.76
438186712,0.20,0.56,-0.76
438188758,0.20,0.56,-0.76
438190718,0.20,0.56,-0.76
438192731,0.20,0.56,-0.75
438194665,0.20,0.56,-0.75
438196663,0.20,0.56,-0.75
438198729,0.20,0.56,-0.75
438200704,0.20,0.56,-0.75
438202663,0.20,0.55,-0.75
438204662,0.20,0.55,-0.75
438206653,0.20,0.55,-0.75
438208707,0.20,0.55,-0.75
438210661,0.20,0.55,-0.75
438212662,0.20,0.56,-0.76
438214650,0.20,0.56,-0.76
438216742,0.20,0.56,-0.76
438218706,0.20,0.56,-0.76
438220709,0.20,0.56,-0.76
438222732,0.20,0.56,-0.77
438224711,0.20,0.56,-0.77
438226711,0.20,0.56,-0.77
438228711,0.20,0.56,-0.77
438230752,0.20,0.56,-0.77
438232714,0.20,0.55,-0.76
438234665,0.20,0.55,-0.76
438236664,0.20,0.55,-0.76
438238655,0.20,0.55,-0.76
438240785,0.20,0.55,-0.76
438242715,0.20,0.55,-0.74
438244662,0.20,0.55,-0.74
438246651,0.20,0.55,-0.74
438248654,0.20,0.55,-0.74
438250663,0.20,0.55,-0.74
438252652,0.20,0.55,-0.74
438254663,0.21,0.54,-0.95
438256715,0.21,0.54,-0.95
438258711,0.21,0.54,-0.95
438260773,0.21,0.54,-0.95
438262716,0.21,0.54,-0.95
438264707,0.20,0.55,-0.69
438266761,0.20,0.55,-0.69
438268738,0.20,0.55,-0.69
438270720,0.20,0.55,-0.69
438272720,0.20,0.55,-0.69
438274701,0.20,0.55,-0.75
438276676,0.20,0.55,-0.75
438278737,0.20,0.55,-0.75
438280680,0.20,0.55,-0.75
438282662,0.20,0.55,-0.75
438284677,0.20,0.55,-0.78
438286716,0.20,0.55,-0.78
438288653,0.20,0.55,-0.78
438290666,0.20,0.55,-0.78
438292705,0.20,0.55,-0.78
438294661,0.20,0.55,-0.77
438296726,0.20,0.55,-0.77
438298712,0.20,0.55,-0.77
438300703,0.20,0.55,-0.77
438302704,0.20,0.55,-0.77
438304785,0.20,0.55,-0.77
438306727,0.20,0.55,-0.77
438308705,0.20,0.55,-0.77
438310705,0.20,0.55,-0.77
438312687,0.20,0.55,-0.77
438314708,0.20,0.55,-0.77
438316751,0.20,0.55,-0.77
438318675,0.20,0.55,-0.77
438320667,0.20,0.55,-0.77
438322667,0.20,0.55,-0.77
438324702,0.20,0.55,-0.77
438326693,0.20,0.55,-0.77
438328710,0.20,0.55,-0.77
438330665,0.20,0.55,-0.77
438332651,0.20,0.55,-0.77
438334655,0.20,0.55,-0.77
438336728,0.20,0.55,-0.77
438338711,0.20,0.55,-0.77
438340702,0.20,0.55,-0.77
438342757,0.20,0.55,-0.77
438344734,0.20,0.55,-0.77
438346718,0.20,0.55,-0.77
438348708,0.20,0.55,-0.77
438350709,0.20,0.55,-0.77
438352745,0.20,0.55,-0.77
438354700,0.20,0.55,-0.77
438356662,0.20,0.55,-0.77
438358653,0.20,0.55,-0.77
438360653,0.20,0.55,-0.77
438362654,0.20,0.55,-0.77
438364653,0.20,0.55,-0.77
438366651,0.20,0.55,-0.77
438368661,0.20,0.55,-0.77
438370668,0.20,0.55,-0.77
438372699,0.20,0.55,-0.77
438374655,0.20,0.55,-0.77
438376717,0.20,0.55,-0.77
438378705,0.20,0.55,-0.77
438380706,0.20,0.55,-0.77
438382711,0.20,0.55,-0.77
438384777,0.20,0.55,-0.77
438386728,0.20,0.55,-0.76
438388705,0.20,0.55,-0.76
438390706,0.20,0.55,-0.76
438392811,0.20,0.55,-0.76
438394748,0.20,0.55,-0.76
438396681,0.20,0.55,-0.77
438398665,0.20,0.55,-0.77
438400662,0.20,0.55,-0.77
438402692,0.20,0.55,-0.77
438404711,0.20,0.55,-0.77
438406666,0.20,0.55,-0.77
438408666,0.20,0.55,-0.77
438410664,0.20,0.55,-0.77
438412655,0.20,0.55,-0.77
438414666,0.20,0.55,-0.77
438416742,0.20,0.55,-0.77
438418711,0.20,0.55,-0.77
438420702,0.20,0.55,-0.77
438422703,0.20,0.55,-0.77
438424698,0.20,0.55,-0.77
438426720,0.20,0.55,-0.77
438428729,0.20,0.55,-0.77
438430716,0.20,0.55,-0.77
438432712,0.20,0.55,-0.77
438434669,0.20,0.55,-0.77
438436671,0.20,0.55,-0.77
438438677,0.20,0.55,-0.77
438440735,0.20,0.55,-0.77
438442781,0.20,0.55,-0.77
438444663,0.20,0.55,-0.77
438446675,0.20,0.55,-0.77
438448711,0.20,0.55,-0.77
438450655,0.20,0.55,-0.77
438452665,0.20,0.55,-0.77
438454652,0.20,0.55,-0.77
438456720,0.20,0.55,-0.77
438458705,0.20,0.55,-0.77
438460702,0.20,0.55,-0.77
438462696,0.20,0.55,-0.77
438464705,0.20,0.55,-0.77
438466736,0.20,0.55,-0.77
438468779,0.20,0.55,-0.77
438470715,0.20,0.55,-0.77
438472710,0.20,0.55,-0.77
438474654,0.20,0.55,-0.77
438476681,0.20,0.55,-0.77
438478730,0.20,0.55,-0.77
438480707,0.20,0.55,-0.77
438482661,0.20,0.55,-0.77
438484664,0.20,0.55,-0.77
438486682,0.20,0.55,-0.77
438488663,0.20,0.55,-0.77
438490667,0.20,0.55,-0.77
438492742,0.20,0.55,-0.77
438494664,0.20,0.55,-0.77
438496731,0.20,0.55,-0.77
438498709,0.20,0.55,-0.77
438500706,0.20,0.55,-0.77
438502698,0.20,0.55,-0.77
438504724,0.20,0.55,-0.77
438506738,0.20,0.55,-0.77
438508714,0.20,0.55,-0.77
438510704,0.20,0.55,-0.77
438512689,0.20,0.55,-0.77
438514669,0.20,0.55,-0.77
438516693,0.20,0.55,-0.77
438518670,0.20,0.55,-0.77
438520663,0.20,0.55,-0.77
438522666,0.20,0.55,-0.77
438524663,0.20,0.55,-0.77
438526652,0.20,0.55,-0.77
438528691,0.20,0.55,-0.77
438530704,0.20,0.55,-0.79
438532669,0.20,0.55,-0.79
438534664,0.20,0.55,-0.79
438536713,0.20,0.55,-0.79
438538697,0.20,0.55,-0.79
438540704,0.20,0.55,-0.78
438542720,0.20,0.55,-0.78
438544707,0.20,0.55,-0.78
438546704,0.20,0.55,-0.78
438548663,0.20,0.55,-0.78
438550664,0.20,0.55,-0.75
438552666,0.20,0.55,-0.75
438554655,0.20,0.55,-0.75
438556661,0.20,0.55,-0.75
438558665,0.20,0.55,-0.75
438560668,0.20,0.55,-0.76
438562671,0.20,0.55,-0.76
438564665,0.20,0.55,-0.76
438566746,0.20,0.55,-0.76
438568699,0.20,0.55,-0.76
438570653,0.20,0.55,-0.76
438572707,0.20,0.55,-0.76
438574667,0.20,0.55,-0.76
438576716,0.20,0.55,-0.76
438578719,0.20,0.55,-0.76
438580730,0.20,0.55,-0.78
438582717,0.20,0.55,-0.78
438584708,0.20,0.55,-0.78
438586709,0.20,0.55,-0.78
438588718,0.20,0.55,-0.78
438590731,0.20,0.55,-0.78
438592750,0.20,0.55,-0.77
438594700,0.20,0.55,-0.77
438596661,0.20,0.55,-0.77
438598695,0.20,0.55,-0.77
438600716,0.20,0.55,-0.77
438602664,0.20,0.56,-0.77
438604662,0.20,0.56,-0.77
438606669,0.20,0.56,-0.77
438608707,0.20,0.56,-0.77
438610653,0.20,0.56,-0.77
438612730,0.20,0.55,-0.76
438614666,0.20,0.55,-0.76
438616751,0.20,0.55,-0.76
438618709,0.20,0.55,-0.76
438620710,0.20,0.55,-0.76
438622709,0.20,0.56,-0.77
438624712,0.20,0.56,-0.77
438626732,0.20,0.56,-0.77
438628716,0.20,0.56,-0.77
438630705,0.20,0.56,-0.77
438632719,0.20,0.56,-0.77
438634710,0.20,0.56,-0.77
438636702,0.20,0.56,-0.77
438638733,0.20,0.56,-0.77
438640678,0.20,0.56,-0.77
438642699,0.20,0.55,-0.76
438644661,0.20,0.55,-0.76
438646713,0.20,0.55,-0.76
438648663,0.20,0.55,-0.76
438650669,0.20,0.55,-0.76
438652666,0.20,0.56,-0.76
438654663,0.20,0.56,-0.76
438656725,0.20,0.56,-0.76
438658708,0.20,0.56,-0.76
438660703,0.20,0.56,-0.76
438662705,0.20,0.55,-0.76
438664702,0.20,0.55,-0.76
438666731,0.20,0.55,-0.76
438668708,0.20,0.55,-0.76
438670673,0.20,0.55,-0.76
438672703,0.20,0.55,-0.76
438674666,0.20,0.55,-0.76
438676671,0.20,0.55,-0.76
438678753,0.20,0.55,-0.76
438680691,0.20,0.55,-0.76
438682667,0.20,0.55,-0.76
438684665,0.20,0.56,-0.75
438686684,0.20,0.56,-0.75
438688663,0.20,0.56,-0.75
438690664,0.20,0.56,-0.75
438692704,0.20,0.56,-0.75
438694703,0.20,0.56,-0.77
438696736,0.20,0.56,-0.77
438698746,0.20,0.56,-0.77
438700704,0.20,0.56,-0.77
438702705,0.20,0.56,-0.77
438704741,0.20,0.56,-0.75
438706737,0.20,0.56,-0.75
438708706,0.20,0.56,-0.75
438710703,0.20,0.56,-0.75
438712708,0.20,0.56,-0.75
438714661,0.20,0.56,-0.75
438716691,0.20,0.56,-0.75
438718676,0.20,0.56,-0.75
438720667,0.20,0.56,-0.75
438722663,0.20,0.56,-0.75
438724666,0.20,0.56,-0.76
438726684,0.20,0.56,-0.76
438728664,0.20,0.56,-0.76
438730664,0.20,0.56,-0.76
438732664,0.20,0.56,-0.76
438734667,0.21,0.56,-0.75
438736717,0.21,0.56,-0.75
438738753,0.21,0.56,-0.75
438740726,0.21,0.56,-0.75
438742728,0.21,0.56,-0.75
438744706,0.20,0.56,-0.76
438746708,0.20,0.56,-0.76
438748727,0.20,0.56,-0.76
438750716,0.20,0.56,-0.76
438752707,0.20,0.56,-0.76
438754666,0.20,0.56,-0.76
438756674,0.20,0.56,-0.76
438758735,0.20,0.56,-0.76
438760666,0.20,0.56,-0.76
438762663,0.20,0.56,-0.76
438764666,0.20,0.56,-0.76
438766686,0.20,0.56,-0.75
438768722,0.20,0.56,-0.75
438770694,0.20,0.56,-0.75
438772703,0.20,0.56,-0.75
438774662,0.20,0.56,-0.75
438776728,0.20,0.56,-0.75
438778708,0.20,0.56,-0.75
438780709,0.20,0.56,-0.75
438782711,0.20,0.56,-0.75
438784732,0.20,0.56,-0.75
438786714,0.20,0.56,-0.75
438788702,0.20,0.56,-0.75
438790705,0.20,0.56,-0.75
438792832,0.20,0.56,-0.75
438794750,0.20,0.56,-0.75
438796695,0.20,0.56,-0.75
438798666,0.20,0.56,-0.75
438800654,0.20,0.56,-0.75
438802666,0.20,0.56,-0.75
438804716,0.20,0.56,-0.75
438806665,0.20,0.55,-0.77
438808652,0.20,0.55,-0.77
438810654,0.20,0.55,-0.77
438812680,0.20,0.55,-0.77
438814666,0.20,0.55,-0.77
438816750,0.20,0.55,-0.76
438818713,0.20,0.55,-0.76
438820707,0.20,0.55,-0.76
438822707,0.20,0.55,-0.76
438824705,0.20,0.55,-0.76
438826699,0.20,0.55,-0.88
438828705,0.20,0.55,-0.88
438830677,0.20,0.55,-0.88
438832669,0.20,0.55,-0.88
438834664,0.20,0.55,-0.88
438836708,0.20,0.54,-0.72
438838665,0.20,0.54,-0.72
438840665,0.20,0.54,-0.72
438842761,0.20,0.54,-0.72
438844663,0.20,0.54,-0.72
438846664,0.20,0.54,-0.72
438848664,0.20,0.54,-0.75
438850665,0.20,0.54,-0.75
438852669,0.20,0.54,-0.75
438854663,0.20,0.54,-0.75
438856711,0.20,0.54,-0.75
438858735,0.20,0.54,-0.77
438860722,0.20,0.54,-0.77
438862714,0.20,0.54,-0.77
438864708,0.20,0.54,-0.77
438866736,0.20,0.54,-0.77
438868704,0.20,0.55,-0.77
438870719,0.20,0.55,-0.77
438872727,0.20,0.55,-0.77
438874707,0.20,0.55,-0.77
438876665,0.20,0.55,-0.77
438878653,0.20,0.54,-0.77
438880690,0.20,0.54,-0.77
438882715,0.20,0.54,-0.77
438884667,0.20,0.54,-0.77
438886680,0.20,0.54,-0.77
438888663,0.20,0.55,-0.77
438890665,0.20,0.55,-0.77
438892703,0.20,0.55,-0.77
438894673,0.20,0.55,-0.77
438896729,0.20,0.55,-0.77
438898712,0.20,0.55,-0.77
438900707,0.20,0.55,-0.77
438902703,0.20,0.55,-0.77
438904708,0.20,0.55,-0.77
438906705,0.20,0.55,-0.77
438908707,0.20,0.55,-0.77
438910766,0.20,0.55,-0.77
438912686,0.20,0.55,-0.77
438914666,0.20,0.55,-0.77
438916686,0.20,0.55,-0.77
438918665,0.20,0.55,-0.77
438920661,0.20,0.55,-0.77
438922664,0.20,0.55,-0.77
438924667,0.20,0.55,-0.77
438926715,0.20,0.55,-0.77
438928662,0.20,0.55,-0.77
438930663,0.20,0.55,-0.77
438932664,0.20,0.55,-0.77
438934661,0.20,0.55,-0.77
438936730,0.20,0.55,-0.77
438938727,0.20,0.55,-0.77
438940707,0.20,0.55,-0.77
438942726,0.20,0.55,-0.77
438944741,0.20,0.55,-0.77
438946730,0.20,0.55,-0.77
438948710,0.20,0.55,-0.77
438950705,0.21,0.54,-0.77
438952701,0.21,0.54,-0.77
438954666,0.21,0.54,-0.77
438956663,0.21,0.54,-0.77
438958665,0.21,0.54,-0.77
438960674,0.20,0.55,-0.77
438962668,0.20,0.55,-0.77
438964663,0.20,0.55,-0.77
438966686,0.20,0.55,-0.77
438968674,0.20,0.55,-0.77
438970664,0.21,0.55,-0.77
438972665,0.21,0.55,-0.77
438974710,0.21,0.55,-0.77
438976796,0.21,0.55,-0.77
438978726,0.21,0.55,-0.77
438980705,0.20,0.55,-0.77
438982706,0.20,0.55,-0.77
438984704,0.20,0.55,-0.77
438986713,0.20,0.55,-0.77
438988726,0.20,0.55,-0.77
438990720,0.21,0.55,-0.77
438992752,0.21,0.55,-0.77
438994708,0.21,0.55,-0.77
438996670,0.21,0.55,-0.77
438998735,0.21,0.55,-0.77
439000710,0.20,0.55,-0.77
439002675,0.20,0.55,-0.77
439004667,0.20,0.55,-0.77
439006681,0.20,0.55,-0.77
439008716,0.20,0.55,-0.77
439010677,0.20,0.55,-0.77
439012670,0.20,0.55,-0.77
439014679,0.20,0.55,-0.77
439016701,0.20,0.55,-0.77
439018720,0.20,0.55,-0.77
439020710,0.20,0.55,-0.77
439022708,0.21,0.54,-0.77
439024703,0.21,0.54,-0.77
439026712,0.21,0.54,-0.77
439028732,0.21,0.54,-0.77
439030722,0.21,0.54,-0.77
439032716,0.21,0.55,-0.77
439034703,0.21,0.55,-0.77
439036678,0.21,0.55,-0.77
439038675,0.21,0.55,-0.77
439040670,0.21,0.55,-0.77
439042702,0.21,0.55,-0.77
439044672,0.21,0.55,-0.77
439046677,0.21,0.55,-0.77
439048678,0.21,0.55,-0.77
439050675,0.21,0.55,-0.77
439052737,0.21,0.55,-0.77
439054698,0.21,0.55,-0.77
439056672,0.21,0.55,-0.77
439058714,0.21,0.55,-0.77
439060708,0.21,0.55,-0.77
439062704,0.21,0.55,-0.77
439064711,0.21,0.55,-0.77
439066738,0.21,0.55,-0.77
439068710,0.21,0.55,-0.77
439070702,0.21,0.55,-0.77
439072680,0.20,0.55,-0.77
439074707,0.20,0.55,-0.77
439076680,0.20,0.55,-0.77
439078670,0.20,0.55,-0.77
439080680,0.20,0.55,-0.77
439082774,0.21,0.55,-0.76
439084698,0.21,0.55,-0.76
439086689,0.21,0.55,-0.76
439088680,0.21,0.55,-0.76
439090680,0.21,0.55,-0.76
439092744,0.20,0.55,-0.76
439094699,0.20,0.55,-0.76
439096676,0.20,0.55,-0.76
439098728,0.20,0.55,-0.76
439100707,0.20,0.55,-0.76
439102708,0.20,0.55,-0.76
439104728,0.20,0.55,-0.76
439106732,0.20,0.55,-0.76
439108719,0.20,0.55,-0.76
439110706,0.20,0.55,-0.76
439112710,0.20,0.55,-0.76
439114703,0.21,0.55,-0.77
439116700,0.21,0.55,-0.77
439118675,0.21,0.55,-0.77
439120679,0.21,0.55,-0.77
439122676,0.21,0.55,-0.77
439124700,0.21,0.55,-0.77
439126727,0.21,0.55,-0.77
439128687,0.21,0.55,-0.77
439130675,0.21,0.55,-0.77
439132671,0.21,0.55,-0.77
439134672,0.21,0.55,-0.77
439136672,0.21,0.55,-0.77
439138752,0.21,0.55,-0.77
439140725,0.21,0.55,-0.77
439142738,0.21,0.55,-0.77
439144713,0.21,0.54,-0.76
439146732,0.21,0.54,-0.76
439148710,0.21,0.54,-0.76
439150710,0.21,0.54,-0.76
439152708,0.21,0.54,-0.76
439154718,0.21,0.55,-0.77
439156731,0.21,0.55,-0.77
439158695,0.21,0.55,-0.77
439160675,0.21,0.55,-0.77
439162672,0.21,0.55,-0.77
439164670,0.21,0.55,-0.76
439166747,0.21,0.55,-0.76
439168686,0.21,0.55,-0.76
439170672,0.21,0.55,-0.76
439172671,0.21,0.55,-0.76
439174700,0.21,0.54,-0.76
439176667,0.21,0.54,-0.76
439178733,0.21,0.54,-0.76
439180714,0.21,0.54,-0.76
439182712,0.21,0.54,-0.76
439184711,0.21,0.54,-0.76
439186712,0.21,0.55,-0.77
439188706,0.21,0.55,-0.77
439190714,0.21,0.55,-0.77
439192784,0.21,0.55,-0.77
439194735,0.21,0.55,-0.77
439196720,0.21,0.55,-0.76
439198691,0.21,0.55,-0.76
439200663,0.21,0.55,-0.76
439202655,0.21,0.55,-0.76
439204665,0.21,0.55,-0.76
439206709,0.21,0.55,-0.77
439208661,0.21,0.55,-0.77
439210654,0.21,0.55,-0.77
439212666,0.21,0.55,-0.77
439214663,0.21,0.55,-0.77
439216651,0.21,0.55,-0.76
439218726,0.21,0.55,-0.76
439220713,0.21,0.55,-0.76
439222709,0.21,0.55,-0.76
439224736,0.21,0.55,-0.76
439226718,0.22,0.55,-0.76
439228712,0.22,0.55,-0.76
439230703,0.22,0.55,-0.76
439232707,0.22,0.55,-0.76
439234716,0.22,0.55,-0.76
439236732,0.22,0.55,-0.76
439238677,0.22,0.55,-0.76
439240663,0.22,0.55,-0.76
439242776,0.22,0.55,-0.76
439244680,0.22,0.55,-0.76
439246704,0.21,0.55,-0.76
439248665,0.21,0.55,-0.76
439250663,0.21,0.55,-0.76
439252655,0.21,0.55,-0.76
439254667,0.21,0.55,-0.76
439256668,0.21,0.55,-0.76
439258720,0.21,0.55,-0.76
439260709,0.21,0.55,-0.76
439262704,0.21,0.55,-0.76
439264702,0.21,0.55,-0.76
439266733,0.21,0.55,-0.76
439268788,0.22,0.55,-0.76
439270728,0.22,0.55,-0.76
439272708,0.22,0.55,-0.76
439274697,0.22,0.55,-0.76
439276651,0.22,0.55,-0.76
439278740,0.22,0.55,-0.76
439280696,0.22,0.55,-0.76
439282665,0.22,0.55,-0.76
439284663,0.22,0.55,-0.76
439286709,0.22,0.55,-0.76
439288710,0.21,0.55,-0.76
439290667,0.21,0.55,-0.76
439292701,0.21,0.55,-0.76
439294652,0.21,0.55,-0.76
439296661,0.21,0.55,-0.76
439298733,0.22,0.56,-0.77
439300707,0.22,0.56,-0.77
439302707,0.22,0.56,-0.77
439304709,0.22,0.56,-0.77
439306710,0.22,0.56,-0.77
439308748,0.22,0.55,-0.77
439310719,0.22,0.55,-0.77
439312708,0.22,0.55,-0.77
439314704,0.22,0.55,-0.77
439316687,0.22,0.55,-0.77
439318674,0.22,0.55,-0.75
439320666,0.22,0.55,-0.75
439322675,0.22,0.55,-0.75
439324739,0.22,0.55,-0.75
439326677,0.22,0.55,-0.75
439328663,0.23,0.55,-0.76
439330676,0.23,0.55,-0.76
439332712,0.23,0.55,-0.76
439334665,0.23,0.55,-0.76
439336661,0.23,0.55,-0.76
439338725,0.22,0.56,-0.77
439340709,0.22,0.56,-0.77
439342723,0.22,0.56,-0.77
439344703,0.22,0.56,-0.77
439346705,0.22,0.56,-0.77
439348726,0.22,0.56,-0.77
439350704,0.22,0.55,-0.75
439352702,0.22,0.55,-0.75
439354671,0.22,0.55,-0.75
439356666,0.22,0.55,-0.75
439358775,0.22,0.55,-0.75
439360692,0.23,0.55,-0.76
439362664,0.23,0.55,-0.76
439364665,0.23,0.55,-0.76
439366686,0.23,0.55,-0.76
439368667,0.23,0.55,-0.76
439370661,0.23,0.56,-0.75
439372665,0.23,0.56,-0.75
439374696,0.23,0.56,-0.75
439376663,0.23,0.56,-0.75
439378721,0.23,0.56,-0.75
439380711,0.23,0.56,-0.76
439382757,0.23,0.56,-0.76
439384721,0.23,0.56,-0.76
439386706,0.23,0.56,-0.76
439388705,0.23,0.56,-0.76
439390735,0.21,0.67,-0.69
439392746,0.21,0.67,-0.69
439394708,0.21,0.67,-0.69
439396704,0.21,0.67,-0.69
439398733,0.21,0.67,-0.69
439400707,0.24,0.45,-0.99
439402669,0.24,0.45,-0.99
439404654,0.24,0.45,-0.99
439406666,0.24,0.45,-0.99
439408651,0.24,0.45,-0.99
439410665,0.23,0.55,-0.80
439412689,0.23,0.55,-0.80
439414714,0.23,0.55,-0.80
439416687,0.23,0.55,-0.80
439418726,0.23,0.55,-0.80
439420710,0.23,0.55,-0.76
439422702,0.23,0.55,-0.76
439424704,0.23,0.55,-0.76
439426705,0.23,0.55,-0.76
439428705,0.23,0.55,-0.76
439430718,0.23,0.55,-0.76
439432738,0.24,0.55,-0.76
439434670,0.24,0.55,-0.76
439436663,0.24,0.55,-0.76
439438654,0.24,0.55,-0.76
439440654,0.24,0.55,-0.76
439442694,0.24,0.55,-0.75
439444661,0.24,0.55,-0.75
439446662,0.24,0.55,-0.75
439448665,0.24,0.55,-0.75
439450705,0.24,0.55,-0.75
439452714,0.23,0.55,-0.76
439454655,0.23,0.55,-0.76
439456653,0.23,0.55,-0.76
439458729,0.23,0.55,-0.76
439460705,0.23,0.55,-0.76
439462706,0.24,0.55,-0.75
439464703,0.24,0.55,-0.75
439466734,0.24,0.55,-0.75
439468725,0.24,0.55,-0.75
439470718,0.24,0.55,-0.75
439472710,0.24,0.55,-0.76
439474712,0.24,0.55,-0.76
439476700,0.24,0.55,-0.76
439478752,0.24,0.55,-0.76
439480687,0.24,0.55,-0.76
439482663,0.24,0.55,-0.76
439484688,0.24,0.55,-0.76
439486706,0.24,0.55,-0.76
439488651,0.24,0.55,-0.76
439490688,0.24,0.55,-0.76
439492702,0.23,0.55,-0.75
439494655,0.23,0.55,-0.75
439496663,0.23,0.55,-0.75
439498726,0.23,0.55,-0.75
439500711,0.23,0.55,-0.75
439502705,0.24,0.55,-0.75
439504708,0.24,0.55,-0.75
439506704,0.24,0.55,-0.75
439508715,0.24,0.55,-0.75
439510768,0.24,0.55,-0.75
439512716,0.24,0.55,-0.76
439514701,0.24,0.55,-0.76
439516688,0.24,0.55,-0.76
439518667,0.24,0.55,-0.76
439520763,0.24,0.55,-0.76
439522688,0.24,0.55,-0.76
439524655,0.23,0.55,-0.75
439526654,0.23,0.55,-0.75
439528670,0.23,0.55,-0.75
439530708,0.23,0.55,-0.75
439532662,0.23,0.55,-0.75
439534664,0.24,0.55,-0.75
439536663,0.24,0.55,-0.75
439538727,0.24,0.55,-0.75
439540707,0.24,0.55,-0.75
439542717,0.24,0.55,-0.75
439544712,0.24,0.55,-0.76
439546739,0.24,0.55,-0.76
439548725,0.24,0.55,-0.76
439550712,0.24,0.55,-0.76
439552703,0.24,0.55,-0.76
439554700,0.24,0.56,-0.76
439556663,0.24,0.56,-0.76
439558654,0.24,0.56,-0.76
439560667,0.24,0.56,-0.76
439562662,0.24,0.56,-0.76
439564663,0.24,0.55,-0.76
439566688,0.24,0.55,-0.76
439568664,0.24,0.55,-0.76
439570655,0.24,0.55,-0.76
439572663,0.24,0.55,-0.76
439574749,0.24,0.55,-0.77
439576695,0.24,0.55,-0.77
439578718,0.24,0.55,-0.77
439580706,0.24,0.55,-0.77
439582704,0.24,0.55,-0.77
439584702,0.24,0.55,-0.75
439586710,0.24,0.55,-0.75
439588704,0.24,0.55,-0.75
439590729,0.24,0.55,-0.75
439592739,0.24,0.55,-0.75
439594653,0.24,0.55,-0.75
439596652,0.24,0.55,-0.75
439598654,0.24,0.55,-0.75
439600665,0.24,0.55,-0.75
439602711,0.24,0.55,-0.75
439604709,0.24,0.55,-0.75
439606665,0.24,0.55,-0.76
439608654,0.24,0.55,-0.76
439610663,0.24,0.55,-0.76
439612729,0.24,0.55,-0.76
439614666,0.24,0.55,-0.76
439616693,0.24,0.55,-0.75
439618723,0.24,0.55,-0.75
439620711,0.24,0.55,-0.75
439622709,0.24,0.55,-0.75
439624721,0.24,0.55,-0.75
439626736,0.24,0.55,-0.75
439628718,0.24,0.55,-0.75
439630703,0.24,0.55,-0.75
439632697,0.24,0.55,-0.75
439634712,0.24,0.55,-0.75
439636723,0.24,0.55,-0.75
439638673,0.24,0.55,-0.75
439640653,0.24,0.55,-0.75
439642693,0.24,0.55,-0.75
439644662,0.24,0.55,-0.75
439646693,0.24,0.55,-0.75
439648717,0.24,0.55,-0.75
439650664,0.24,0.55,-0.75
439652655,0.24,0.55,-0.75
439654672,0.24,0.55,-0.75
439656701,0.24,0.55,-0.75
439658730,0.24,0.55,-0.75
439660705,0.24,0.55,-0.75
439662699,0.24,0.55,-0.75
439664721,0.24,0.55,-0.75
439666746,0.25,0.55,-0.76
439668710,0.25,0.55,-0.76
439670706,0.25,0.55,-0.76
439672704,0.25,0.55,-0.76
439674762,0.25,0.55,-0.76
439676724,0.24,0.55,-0.75
439678664,0.24,0.55,-0.75
439680654,0.24,0.55,-0.75
439682701,0.24,0.55,-0.75
439684724,0.24,0.55,-0.75
439686683,0.24,0.55,-0.75
439688662,0.24,0.55,-0.76
439690716,0.24,0.55,-0.76
439692712,0.24,0.55,-0.76
439694668,0.24,0.55,-0.76
439696667,0.24,0.55,-0.76
439698727,0.24,0.55,-0.75
439700705,0.24,0.55,-0.75
439702705,0.24,0.55,-0.75
439704727,0.24,0.55,-0.75
439706735,0.24,0.55,-0.75
439708712,0.24,0.56,-0.76
439710704,0.24,0.56,-0.76
439712700,0.24,0.56,-0.76
439714702,0.24,0.56,-0.76
439716652,0.24,0.56,-0.76
439718666,0.24,0.55,-0.76
439720669,0.24,0.55,-0.76
439722666,0.24,0.55,-0.76
439724664,0.24,0.55,-0.76
439726681,0.24,0.55,-0.76
439728654,0.24,0.55,-0.75
439730665,0.24,0.55,-0.75
439732662,0.24,0.55,-0.75
439734662,0.24,0.55,-0.75
439736662,0.24,0.55,-0.75
439738712,0.24,0.55,-0.75
439740710,0.24,0.55,-0.75
439742710,0.24,0.55,-0.75
439744708,0.24,0.55,-0.75
439746704,0.24,0.55,-0.75
439748702,0.24,0.55,-0.76
439750667,0.24,0.55,-0.76
439752678,0.24,0.55,-0.76
439754771,0.24,0.55,-0.76
439756688,0.24,0.55,-0.76
439758665,0.24,0.55,-0.75
439760661,0.24,0.55,-0.75
439762655,0.24,0.55,-0.75
439764655,0.24,0.55,-0.75
439766685,0.24,0.55,-0.75
439768655,0.24,0.55,-0.75
439770654,0.24,0.55,-0.75
439772662,0.24,0.55,-0.75
439774694,0.24,0.55,-0.75
439776727,0.24,0.55,-0.75
439778736,0.24,0.55,-0.75
439780714,0.24,0.55,-0.75
439782709,0.24,0.55,-0.75
439784728,0.24,0.55,-0.75
439786733,0.24,0.55,-0.75
439788714,0.24,0.55,-0.75
439790710,0.24,0.55,-0.76
439792728,0.24,0.55,-0.76
439794791,0.24,0.55,-0.76
439796718,0.24,0.55,-0.76
439798669,0.24,0.55,-0.76
439800667,0.24,0.55,-0.75
439802737,0.24,0.55,-0.75
439804703,0.24,0.55,-0.75
439806664,0.24,0.55,-0.75
439808653,0.24,0.55,-0.75
439810655,0.25,0.55,-0.76
439812690,0.25,0.55,-0.76
439814652,0.25,0.55,-0.76
439816685,0.25,0.55,-0.76
439818721,0.25,0.55,-0.76
439820711,0.24,0.55,-0.76
439822731,0.24,0.55,-0.76
439824714,0.24,0.55,-0.76
439826705,0.24,0.55,-0.76
439828711,0.24,0.55,-0.76
439830762,0.24,0.55,-0.75
439832714,0.24,0.55,-0.75
439834697,0.24,0.55,-0.75
439836654,0.24,0.55,-0.75
439838725,0.24,0.55,-0.75
439840709,0.24,0.55,-0.77
439842692,0.24,0.55,-0.77
439844665,0.24,0.55,-0.77
439846664,0.24,0.55,-0.77
439848674,0.24,0.55,-0.77
439850714,0.24,0.55,-0.77
439852654,0.24,0.55,-0.76
439854666,0.24,0.55,-0.76
439856666,0.24,0.55,-0.76
439858725,0.24,0.55,-0.76
439860707,0.24,0.55,-0.76
439862705,0.24,0.55,-0.76
439864702,0.24,0.55,-0.76
439866728,0.24,0.55,-0.76
439868707,0.24,0.55,-0.76
439870702,0.24,0.55,-0.76
439872669,0.24,0.55,-0.75
439874754,0.24,0.55,-0.75
439876706,0.24,0.55,-0.75
439878666,0.24,0.55,-0.75
439880665,0.24,0.55,-0.75
439882665,0.24,0.55,-0.75
439884715,0.24,0.55,-0.75
439886698,0.24,0.55,-0.75
439888664,0.24,0.55,-0.75
439890666,0.24,0.55,-0.75
439892700,0.24,0.55,-0.76
439894665,0.24,0.55,-0.76
439896669,0.24,0.55,-0.76
439898727,0.24,0.55,-0.76
439900710,0.24,0.55,-0.76
439902705,0.24,0.55,-0.75
439904712,0.24,0.55,-0.75
439906737,0.24,0.55,-0.75
439908713,0.24,0.55,-0.75
439910708,0.24,0.55,-0.75
439912707,0.24,0.55,-0.75
439914736,0.24,0.55,-0.75
439916731,0.24,0.55,-0.75
439918663,0.24,0.55,-0.75
439920663,0.24,0.55,-0.75
439922654,0.24,0.55,-0.76
439924654,0.24,0.55,-0.76
439926671,0.24,0.55,-0.76
439928714,0.24,0.55,-0.76
439930662,0.24,0.55,-0.76
439932655,0.24,0.55,-0.76
439934661,0.24,0.55,-0.76
439936662,0.24,0.55,-0.76
439938724,0.24,0.55,-0.76
439940708,0.24,0.55,-0.76
439942730,0.24,0.55,-0.76
439944714,0.24,0.55,-0.76
439946731,0.24,0.55,-0.76
439948713,0.24,0.55,-0.76
439950708,0.24,0.55,-0.76
439952704,0.24,0.55,-0.76
439954698,0.24,0.55,-0.75
439956697,0.24,0.55,-0.75
439958761,0.24,0.55,-0.75
439960687,0.24,0.55,-0.75
439962664,0.24,0.55,-0.75
439964670,0.24,0.55,-0.76
439966724,0.24,0.55,-0.76
439968684,0.24,0.55,-0.76
439970713,0.24,0.55,-0.76
439972664,0.24,0.55,-0.76
439974667,0.24,0.55,-0.76
439976698,0.24,0.55,-0.76
439978733,0.24,0.55,-0.76
439980712,0.24,0.55,-0.76
439982705,0.24,0.55,-0.76
439984710,0.24,0.55,-0.76
439986826,0.24,0.55,-0.76
439988721,0.24,0.55,-0.76
439990707,0.24,0.55,-0.76
439992732,0.24,0.55,-0.76
439994707,0.24,0.55,-0.76
439996670,0.24,0.55,-0.76
439998665,0.24,0.55,-0.76
440000664,0.24,0.55,-0.76
440002662,0.24,0.55,-0.76
440004666,0.24,0.55,-0.76
440006669,0.24,0.55,-0.76
440008667,0.24,0.55,-0.76
440010673,0.24,0.55,-0.76
440012662,0.24,0.55,-0.76
440014670,0.23,0.55,-0.76
440016759,0.23,0.55,-0.76
440018711,0.23,0.55,-0.76
440020705,0.23,0.55,-0.76
440022704,0.23,0.55,-0.76
440024704,0.23,0.55,-0.76
440026702,0.24,0.55,-0.76
440028706,0.24,0.55,-0.76
440030666,0.24,0.55,-0.76
440032666,0.24,0.55,-0.76
440034667,0.24,0.55,-0.76
440036662,0.23,0.55,-0.76
440038663,0.23,0.55,-0.76
440040664,0.23,0.55,-0.76
440042745,0.23,0.55,-0.76
440044666,0.23,0.55,-0.76
440046668,0.23,0.55,-0.76
440048666,0.23,0.55,-0.76
440050667,0.23,0.55,-0.76
440052670,0.23,0.55,-0.76
440054667,0.23,0.55,-0.76
440056665,0.23,0.55,-0.75
440058715,0.23,0.55,-0.75
440060807,0.23,0.55,-0.75
440062722,0.23,0.55,-0.75
440064708,0.23,0.55,-0.75
440066800,0.24,0.55,-0.76
440068712,0.24,0.55,-0.76
440070710,0.24,0.55,-0.76
440072719,0.24,0.55,-0.76
440074705,0.24,0.55,-0.76
440076806,0.24,0.55,-0.75
440078693,0.24,0.55,-0.75
440080684,0.24,0.55,-0.75
440082666,0.24,0.55,-0.75
440084663,0.24,0.55,-0.75
440086689,0.23,0.55,-0.76
440088716,0.23,0.55,-0.76
440090664,0.23,0.55,-0.76
440092771,0.23,0.55,-0.76
440094664,0.23,0.55,-0.76
440096665,0.24,0.55,-0.76
440098725,0.24,0.55,-0.76
440100713,0.24,0.55,-0.76
440102707,0.24,0.55,-0.76
440104705,0.24,0.55,-0.76
440106697,0.24,0.55,-0.76
440108706,0.24,0.55,-0.76
440110705,0.24,0.55,-0.76
440112667,0.24,0.55,-0.76
440114786,0.24,0.55,-0.76
440116795,0.24,0.55,-0.76
440118675,0.23,0.55,-0.76
440120665,0.23,0.55,-0.76
440122664,0.23,0.55,-0.76
440124654,0.23,0.55,-0.76
440126714,0.23,0.55,-0.76
440128670,0.24,0.55,-0.75
440130667,0.24,0.55,-0.75
440132662,0.24,0.55,-0.75
440134667,0.24,0.55,-0.75
440136664,0.24,0.55,-0.75
440138727,0.24,0.55,-0.76
440140713,0.24,0.55,-0.76
440142805,0.24,0.55,-0.76
440144712,0.24,0.55,-0.76
440146742,0.24,0.55,-0.76
440148721,0.23,0.55,-0.76
440150709,0.23,0.55,-0.76
440152704,0.23,0.55,-0.76
440154703,0.23,0.55,-0.76
440156669,0.23,0.55,-0.76
440158670,0.23,0.55,-0.76
440160667,0.23,0.55,-0.76
440162664,0.23,0.55,-0.76
440164664,0.23,0.55,-0.76
440166762,0.23,0.55,-0.76
440168672,0.23,0.55,-0.76
440170731,0.23,0.55,-0.76
440172707,0.23,0.55,-0.76
440174663,0.23,0.55,-0.76
440176664,0.23,0.55,-0.76
440178720,0.23,0.55,-0.76
440180751,0.23,0.55,-0.76
440182731,0.23,0.55,-0.76
440184712,0.23,0.55,-0.76
440186711,0.23,0.55,-0.76
440188719,0.23,0.55,-0.76
440190733,0.23,0.55,-0.75
440192822,0.23,0.55,-0.75
440194706,0.23,0.55,-0.75
440196710,0.23,0.55,-0.75
440198739,0.23,0.55,-0.75
440200703,0.23,0.55,-0.76
440202664,0.23,0.55,-0.76
440204667,0.23,0.55,-0.76
440206665,0.23,0.55,-0.76
440208714,0.23,0.55,-0.76
440210662,0.23,0.55,-0.76
440212665,0.23,0.55,-0.76
440214661,0.23,0.55,-0.76
440216759,0.23,0.55,-0.76
440218737,0.23,0.55,-0.76
440220714,0.24,0.55,-0.76
440222710,0.24,0.55,-0.76
440224710,0.24,0.55,-0.76
440226802,0.24,0.55,-0.76
440228723,0.24,0.55,-0.76
440230712,0.23,0.55,-0.75
440232703,0.23,0.55,-0.75
440234728,0.23,0.55,-0.75
440236701,0.23,0.55,-0.75
440238666,0.23,0.55,-0.75
440240662,0.24,0.55,-0.76
440242769,0.24,0.55,-0.76
440244713,0.24,0.55,-0.76
440246665,0.24,0.55,-0.76
440248652,0.24,0.55,-0.76
440250651,0.24,0.55,-0.76
440252664,0.24,0.55,-0.76
440254651,0.24,0.55,-0.76
440256664,0.24,0.55,-0.76
440258718,0.24,0.55,-0.76
440260710,0.24,0.55,-0.75
440262706,0.24,0.55,-0.75
440264697,0.24,0.55,-0.75
440266797,0.24,0.55,-0.75
440268715,0.24,0.55,-0.75
440270728,0.23,0.55,-0.76
440272707,0.23,0.55,-0.76
440274709,0.23,0.55,-0.76
440276734,0.23,0.55,-0.76
440278689,0.23,0.55,-0.76
440280697,0.23,0.55,-0.76
440282662,0.23,0.55,-0.76
440284669,0.23,0.55,-0.76
440286722,0.23,0.55,-0.76
440288688,0.23,0.55,-0.76
440290666,0.23,0.55,-0.76
440292769,0.23,0.55,-0.76
440294661,0.23,0.55,-0.76
440296665,0.23,0.55,-0.76
440298729,0.23,0.55,-0.76
440300703,0.23,0.55,-0.76
440302702,0.23,0.55,-0.76
440304724,0.23,0.55,-0.76
440306737,0.23,0.55,-0.76
440308715,0.23,0.55,-0.76
440310707,0.23,0.55,-0.76
440312702,0.23,0.55,-0.76
440314700,0.23,0.55,-0.76
440316759,0.23,0.55,-0.76
440318678,0.23,0.55,-0.76
440320655,0.23,0.55,-0.76
440322666,0.24,0.55,-0.76
440324663,0.24,0.55,-0.76
440326662,0.24,0.55,-0.76
440328663,0.24,0.55,-0.76
440330661,0.24,0.55,-0.76
440332663,0.23,0.55,-0.76
440334663,0.23,0.55,-0.76
440336665,0.23,0.55,-0.76
440338711,0.23,0.55,-0.76
440340703,0.23,0.55,-0.76
440342777,0.24,0.55,-0.76
440344706,0.24,0.55,-0.76
440346702,0.24,0.55,-0.76
440348707,0.24,0.55,-0.76
440350668,0.24,0.55,-0.76
440352662,0.23,0.55,-0.76
440354703,0.23,0.55,-0.76
440356745,0.23,0.55,-0.76
440358687,0.23,0.55,-0.76
440360662,0.23,0.55,-0.76
440362654,0.23,0.55,-0.76
440364662,0.23,0.55,-0.76
440366653,0.23,0.55,-0.76
440368667,0.23,0.55,-0.76
440370662,0.23,0.55,-0.76
440372699,0.23,0.55,-0.76
440374666,0.23,0.55,-0.75
440376652,0.23,0.55,-0.75
440378718,0.23,0.55,-0.75
440380729,0.23,0.55,-0.75
440382787,0.23,0.55,-0.75
440384724,0.23,0.55,-0.76
440386709,0.23,0.55,-0.76
440388707,0.23,0.55,-0.76
440390712,0.23,0.55,-0.76
440392835,0.23,0.55,-0.76
440394715,0.24,0.55,-0.76
440396707,0.24,0.55,-0.76
440398662,0.24,0.55,-0.76
440400663,0.24,0.55,-0.76
440402682,0.24,0.55,-0.76
440404666,0.23,0.55,-0.76
440406788,0.23,0.55,-0.76
440408689,0.23,0.55,-0.76
440410661,0.23,0.55,-0.76
440412652,0.23,0.55,-0.76
440414661,0.23,0.55,-0.75
440416788,0.23,0.55,-0.75
440418737,0.23,0.55,-0.75
440420734,0.23,0.55,-0.75
440422707,0.23,0.55,-0.75
440424703,0.23,0.55,-0.76
440426733,0.23,0.55,-0.76
440428727,0.23,0.55,-0.76
440430703,0.23,0.55,-0.76
440432695,0.23,0.55,-0.76
440434705,0.23,0.55,-0.76
440436743,0.23,0.55,-0.76
440438694,0.23,0.55,-0.76
440440665,0.23,0.55,-0.76
440442779,0.23,0.55,-0.76
440444666,0.23,0.55,-0.76
440446716,0.23,0.55,-0.76
440448669,0.23,0.55,-0.76
440450662,0.23,0.55,-0.76
440452665,0.23,0.55,-0.76
440454665,0.23,0.55,-0.76
440456667,0.23,0.55,-0.75
440458728,0.23,0.55,-0.75
440460704,0.23,0.55,-0.75
440462703,0.23,0.55,-0.75
440464706,0.23,0.55,-0.75
440466805,0.23,0.55,-0.76
440468713,0.23,0.55,-0.76
440470700,0.23,0.55,-0.76
440472670,0.23,0.55,-0.76
440474716,0.23,0.55,-0.76
440476680,0.23,0.55,-0.76
440478673,0.23,0.55,-0.76
440480696,0.23,0.55,-0.76
440482653,0.23,0.55,-0.76
440484654,0.23,0.55,-0.76
440486730,0.23,0.55,-0.75
440488713,0.23,0.55,-0.75
440490672,0.23,0.55,-0.75
440492772,0.23,0.55,-0.75
440494669,0.23,0.55,-0.75
440496666,0.23,0.55,-0.76
440498745,0.23,0.55,-0.76
440500729,0.23,0.55,-0.76
440502707,0.23,0.55,-0.76
440504706,0.23,0.55,-0.76
440506698,0.23,0.55,-0.76
440508733,0.23,0.55,-0.76
440510721,0.23,0.55,-0.76
440512714,0.23,0.55,-0.76
440514705,0.23,0.55,-0.76
440516767,0.23,0.55,-0.77
440518710,0.23,0.55,-0.77
440520722,0.23,0.55,-0.77
440522653,0.23,0.55,-0.77
440524655,0.23,0.55,-0.77
440526664,0.23,0.55,-0.77
440528672,0.23,0.55,-0.76
440530712,0.23,0.55,-0.76
440532665,0.23,0.55,-0.76
440534670,0.23,0.55,-0.76
440536664,0.23,0.55,-0.76
440538724,0.23,0.55,-0.76
440540709,0.23,0.55,-0.76
440542799,0.23,0.55,-0.76
440544701,0.23,0.55,-0.76
440546708,0.23,0.55,-0.76
440548702,0.23,0.55,-0.75
440550706,0.23,0.55,-0.75
440552724,0.23,0.55,-0.75
440554708,0.23,0.55,-0.75
440556664,0.23,0.55,-0.75
440558654,0.23,0.55,-0.75
440560653,0.23,0.55,-0.75
440562661,0.23,0.55,-0.75
440564665,0.23,0.55,-0.75
440566782,0.23,0.55,-0.75
440568714,0.23,0.55,-0.76
440570666,0.23,0.55,-0.76
440572664,0.23,0.55,-0.76
440574662,0.23,0.55,-0.76
440576695,0.23,0.55,-0.76
440578745,0.23,0.55,-0.76
440580738,0.23,0.55,-0.76
440582711,0.23,0.55,-0.76
440584711,0.23,0.55,-0.76
440586723,0.23,0.55,-0.76
440588726,0.23,0.55,-0.76
440590718,0.23,0.55,-0.76
440592803,0.23,0.55,-0.76
440594704,0.23,0.55,-0.76
440596713,0.23,0.55,-0.76
440598737,0.23,0.55,-0.76
440600685,0.23,0.55,-0.76
440602665,0.23,0.55,-0.76
440604664,0.23,0.55,-0.76
440606674,0.23,0.55,-0.76
440608712,0.23,0.55,-0.76
440610661,0.23,0.55,-0.75
440612726,0.23,0.55,-0.75
440614666,0.23,0.55,-0.75
440616757,0.23,0.55,-0.75
440618736,0.23,0.55,-0.75
440620709,0.23,0.55,-0.76
440622704,0.23,0.55,-0.76
440624705,0.23,0.55,-0.76
440626704,0.23,0.55,-0.76
440628701,0.23,0.55,-0.76
440630707,0.23,0.56,-0.76
440632669,0.23,0.56,-0.76
440634664,0.23,0.56,-0.76
440636662,0.23,0.56,-0.76
440638667,0.23,0.56,-0.76
440640667,0.23,0.55,-0.76
440642759,0.23,0.55,-0.76
440644665,0.23,0.55,-0.76
440646670,0.23,0.55,-0.76
440648663,0.23,0.55,-0.76
440650654,0.23,0.55,-0.75
440652662,0.23,0.55,-0.75
440654663,0.23,0.55,-0.75
440656669,0.23,0.55,-0.75
440658711,0.23,0.55,-0.75
440660734,0.23,0.55,-0.76
440662730,0.23,0.55,-0.76
440664710,0.23,0.55,-0.76
440666808,0.23,0.55,-0.76
440668710,0.23,0.55,-0.76
440670707,0.23,0.56,-0.75
440672708,0.23,0.56,-0.75
440674721,0.23,0.56,-0.75
440676709,0.23,0.56,-0.75
440678668,0.23,0.56,-0.75
440680695,0.23,0.55,-0.76
440682652,0.23,0.55,-0.76
440684668,0.23,0.55,-0.76
440686683,0.23,0.55,-0.76
440688669,0.23,0.55,-0.76
440690673,0.23,0.55,-0.76
440692824,0.23,0.55,-0.76
440694654,0.23,0.55,-0.76
440696654,0.23,0.55,-0.76
440698726,0.23,0.55,-0.76
440700709,0.23,0.55,-0.76
440702708,0.23,0.55,-0.76
440704703,0.23,0.55,-0.76
440706706,0.23,0.55,-0.76
440708704,0.23,0.55,-0.76
440710707,0.23,0.55,-0.76
440712670,0.23,0.55,-0.76
440714664,0.23,0.55,-0.76
440716750,0.23,0.55,-0.76
440718674,0.23,0.55,-0.76
440720671,0.23,0.55,-0.76
440722740,0.23,0.55,-0.75
440724706,0.23,0.55,-0.75
440726683,0.23,0.55,-0.75
440728653,0.23,0.55,-0.75
440730663,0.23,0.55,-0.75
440732664,0.23,0.55,-0.76
440734691,0.23,0.55,-0.76
440736707,0.23,0.55,-0.76
440738723,0.23,0.55,-0.76
440740712,0.23,0.55,-0.76
440742809,0.23,0.55,-0.76
440744731,0.23,0.55,-0.76
440746733,0.23,0.55,-0.76
440748716,0.23,0.55,-0.76
440750702,0.23,0.55,-0.76
440752708,0.23,0.55,-0.76
440754705,0.23,0.55,-0.76
440756665,0.23,0.55,-0.76
440758670,0.23,0.55,-0.76
440760666,0.23,0.55,-0.76
440762666,0.23,0.55,-0.76
440764662,0.23,0.55,-0.76
440766766,0.23,0.55,-0.76
440768811,0.23,0.55,-0.76
440770688,0.23,0.55,-0.76
440772653,0.23,0.55,-0.76
440774667,0.23,0.55,-0.76
440776667,0.23,0.55,-0.76
440778740,0.23,0.55,-0.76
440780750,0.23,0.55,-0.76
440782734,0.23,0.55,-0.76
440784705,0.23,0.55,-0.76
440786715,0.23,0.55,-0.76
440788729,0.23,0.55,-0.76
440790718,0.23,0.55,-0.76
440792808,0.23,0.55,-0.76
440794708,0.23,0.55,-0.76
440796785,0.23,0.55,-0.76
440798726,0.23,0.55,-0.76
440800708,0.23,0.55,-0.76
440802663,0.23,0.55,-0.76
440804730,0.23,0.55,-0.76
440806704,0.23,0.55,-0.76
440808663,0.23,0.55,-0.76
440810667,0.23,0.55,-0.76
440812685,0.23,0.55,-0.76
440814662,0.23,0.55,-0.75
440816654,0.23,0.55,-0.75
440818730,0.23,0.55,-0.75
440820706,0.23,0.55,-0.75
440822708,0.23,0.55,-0.75
440824703,0.23,0.55,-0.76
440826704,0.23,0.55,-0.76
440828705,0.23,0.55,-0.76
440830703,0.23,0.55,-0.76
440832671,0.23,0.55,-0.76
440834653,0.23,0.55,-0.76
440836697,0.23,0.55,-0.76
440838731,0.23,0.55,-0.76
440840683,0.23,0.55,-0.76
440842772,0.23,0.55,-0.76
440844662,0.23,0.55,-0.76
440846654,0.23,0.55,-0.76
440848699,0.23,0.55,-0.76
440850710,0.23,0.55,-0.76
440852662,0.23,0.55,-0.76
440854664,0.23,0.55,-0.76
440856653,0.23,0.55,-0.76
440858727,0.23,0.55,-0.76
440860724,0.23,0.55,-0.76
440862705,0.23,0.55,-0.76
440864738,0.23,0.55,-0.76
440866825,0.23,0.55,-0.76
440868718,0.23,0.55,-0.76
440870711,0.23,0.55,-0.76
440872701,0.23,0.55,-0.76
440874702,0.23,0.55,-0.76
440876665,0.23,0.55,-0.76
440878665,0.23,0.55,-0.76
440880702,0.23,0.55,-0.76
440882662,0.23,0.55,-0.76
440884737,0.23,0.55,-0.76
440886741,0.23,0.55,-0.76
440888696,0.23,0.55,-0.76
440890669,0.23,0.55,-0.76
440892778,0.23,0.55,-0.76
440894663,0.23,0.55,-0.76
440896714,0.23,0.55,-0.76
440898720,0.23,0.55,-0.76
440900716,0.23,0.55,-0.76
440902700,0.23,0.55,-0.76
440904699,0.23,0.55,-0.76
440906703,0.23,0.55,-0.76
440908698,0.23,0.55,-0.76
440910707,0.23,0.55,-0.76
440912666,0.23,0.55,-0.76
440914653,0.23,0.55,-0.76
440916654,0.23,0.55,-0.75
440918682,0.23,0.55,-0.75
440920729,0.23,0.55,-0.75
440922702,0.23,0.55,-0.75
440924652,0.23,0.55,-0.75
440926665,0.23,0.55,-0.76
440928662,0.23,0.55,-0.76
440930662,0.23,0.55,-0.76
440932662,0.23,0.55,-0.76
440934653,0.23,0.55,-0.76
440936655,0.23,0.55,-0.76
440938722,0.23,0.55,-0.76
440940730,0.23,0.55,-0.76
440942823,0.23,0.55,-0.76
440944708,0.23,0.55,-0.76
440946702,0.23,0.55,-0.76
440948699,0.23,0.55,-0.76
440950701,0.23,0.55,-0.76
440952699,0.23,0.55,-0.76
440954665,0.23,0.55,-0.76
440956654,0.23,0.55,-0.76
440958662,0.23,0.55,-0.76
440960671,0.23,0.55,-0.76
440962780,0.23,0.55,-0.76
440964686,0.23,0.55,-0.76
440966756,0.23,0.55,-0.76
440968671,0.23,0.55,-0.76
440970663,0.23,0.55,-0.76
440972662,0.23,0.55,-0.76
440974667,0.23,0.55,-0.76
440976685,0.23,0.55,-0.76
440978743,0.23,0.55,-0.76
440980732,0.23,0.55,-0.76
440982715,0.23,0.55,-0.76
440984711,0.23,0.55,-0.76
440986729,0.23,0.55,-0.76
440988736,0.23,0.55,-0.75
440990731,0.23,0.55,-0.75
440992838,0.23,0.55,-0.75
440994712,0.23,0.55,-0.75
440996708,0.23,0.55,-0.75
440998726,0.23,0.55,-0.76
441000731,0.23,0.55,-0.76
441002709,0.23,0.55,-0.76
441004677,0.23,0.55,-0.76
441006677,0.23,0.55,-0.76
441008672,0.23,0.55,-0.76
441010737,0.23,0.55,-0.76
441012709,0.23,0.55,-0.76
441014676,0.23,0.55,-0.76
441016771,0.23,0.55,-0.76
441018726,0.23,0.55,-0.76
441020729,0.23,0.55,-0.76
441022722,0.23,0.55,-0.76
441024709,0.23,0.55,-0.76
441026710,0.23,0.55,-0.76
441028735,0.23,0.55,-0.76
441030713,0.23,0.55,-0.76
441032703,0.23,0.55,-0.76
441034709,0.23,0.55,-0.76
441036692,0.23,0.55,-0.76
441038680,0.23,0.55,-0.76
441040691,0.23,0.56,-0.76
441042882,0.23,0.56,-0.76
441044696,0.23,0.56,-0.76
441046677,0.23,0.56,-0.76
441048671,0.23,0.56,-0.76
441050700,0.23,0.55,-0.76
441052711,0.23,0.55,-0.76
441054676,0.23,0.55,-0.76
441056676,0.23,0.55,-0.76
441058722,0.23,0.55,-0.76
441060714,0.23,0.56,-0.76
441062711,0.23,0.56,-0.76
441064707,0.23,0.56,-0.76
441066806,0.23,0.56,-0.76
441068713,0.23,0.56,-0.76
441070707,0.23,0.55,-0.76
441072668,0.23,0.55,-0.76
441074719,0.23,0.55,-0.76
441076731,0.23,0.55,-0.76
441078684,0.23,0.55,-0.76
441080698,0.23,0.55,-0.76
441082676,0.23,0.55,-0.76
441084677,0.23,0.55,-0.76
441086724,0.23,0.55,-0.76
441088691,0.23,0.55,-0.76
441090707,0.23,0.55,-0.76
441092778,0.23,0.55,-0.76
441094670,0.23,0.55,-0.76
441096672,0.23,0.55,-0.76
441098730,0.23,0.55,-0.76
441100711,0.23,0.55,-0.76
441102708,0.23,0.55,-0.76
441104724,0.23,0.55,-0.76
441106756,0.23,0.55,-0.76
441108720,0.23,0.55,-0.76
441110707,0.23,0.55,-0.76
441112709,0.23,0.55,-0.76
441114707,0.23,0.55,-0.76
441116761,0.23,0.55,-0.76
441118682,0.23,0.55,-0.76
441120679,0.23,0.55,-0.76
441122685,0.23,0.55,-0.76
441124742,0.23,0.55,-0.76
441126686,0.23,0.55,-0.76
441128670,0.23,0.55,-0.76
441130673,0.23,0.55,-0.76
441132724,0.23,0.55,-0.75
441134693,0.23,0.55,-0.75
441136675,0.23,0.55,-0.75
441138722,0.23,0.55,-0.75
441140708,0.23,0.55,-0.75
441142806,0.23,0.55,-0.76
441144707,0.23,0.55,-0.76
441146736,0.23,0.55,-0.76
441148715,0.23,0.55,-0.76
441150712,0.23,0.55,-0.76
441152703,0.23,0.55,-0.76
441154745,0.23,0.55,-0.76
441156716,0.23,0.55,-0.76
441158681,0.23,0.55,-0.76
441160675,0.23,0.55,-0.76
441162677,0.23,0.55,-0.76
441164682,0.23,0.55,-0.76
441166815,0.23,0.55,-0.76
441168676,0.23,0.55,-0.76
441170671,0.23,0.55,-0.76
441172667,0.23,0.55,-0.76
441174668,0.23,0.55,-0.76
441176700,0.23,0.55,-0.76
441178737,0.23,0.55,-0.76
441180758,0.23,0.55,-0.76
441182714,0.23,0.55,-0.76
441184712,0.23,0.55,-0.76
441186715,0.23,0.55,-0.76
441188737,0.23,0.55,-0.76
441190721,0.23,0.55,-0.76
441192837,0.23,0.55,-0.76
441194718,0.23,0.55,-0.76
441196712,0.23,0.55,-0.76
441198704,0.23,0.55,-0.76
441200662,0.23,0.55,-0.76
441202663,0.23,0.55,-0.76
441204655,0.23,0.55,-0.76
441206676,0.23,0.55,-0.76
441208775,0.23,0.55,-0.76
441210689,0.23,0.55,-0.76
441212653,0.23,0.55,-0.76
441214654,0.23,0.55,-0.76
441216761,0.23,0.55,-0.76
441218723,0.23,0.55,-0.76
441220701,0.23,0.55,-0.76
441222705,0.23,0.55,-0.76
441224702,0.23,0.55,-0.76
441226707,0.23,0.55,-0.76
441228704,0.23,0.55,-0.76
441230714,0.23,0.55,-0.76
441232788,0.23,0.55,-0.76
441234691,0.23,0.55,-0.75
441236666,0.23,0.55,-0.75
441238663,0.23,0.55,-0.75
441240667,0.23,0.55,-0.75
441242793,0.23,0.55,-0.75
441244713,0.23,0.55,-0.76
441246664,0.23,0.55,-0.76
441248661,0.23,0.55,-0.76
441250661,0.23,0.55,-0.76
441252654,0.23,0.55,-0.76
441254665,0.23,0.55,-0.76
441256667,0.23,0.55,-0.76
441258728,0.23,0.55,-0.76
441260703,0.23,0.55,-0.76
441262698,0.23,0.55,-0.76
441264710,0.23,0.55,-0.76
441266827,0.23,0.55,-0.76
441268718,0.23,0.55,-0.76
441270705,0.23,0.55,-0.76
441272703,0.23,0.55,-0.76
441274705,0.23,0.55,-0.76
441276666,0.23,0.55,-0.76
441278655,0.23,0.55,-0.76
441280702,0.23,0.55,-0.76
441282653,0.23,0.55,-0.76
441284664,0.23,0.55,-0.76
441286682,0.23,0.55,-0.75
441288663,0.23,0.55,-0.75
441290652,0.23,0.55,-0.75
441292764,0.23,0.55,-0.75
441294664,0.23,0.55,-0.75
441296715,0.23,0.55,-0.76
441298733,0.23,0.55,-0.76
441300727,0.23,0.55,-0.76
441302701,0.23,0.55,-0.76
441304699,0.23,0.55,-0.76
441306705,0.23,0.55,-0.76
441308708,0.23,0.55,-0.76
441310703,0.23,0.55,-0.76
441312701,0.23,0.55,-0.76
441314653,0.23,0.55,-0.76
441316824,0.23,0.55,-0.76
441318699,0.23,0.55,-0.76
441320669,0.23,0.55,-0.76
441322661,0.23,0.55,-0.76
441324664,0.23,0.55,-0.76
441326673,0.23,0.55,-0.76
441328713,0.23,0.55,-0.76
441330666,0.23,0.55,-0.76
441332650,0.23,0.55,-0.76
441334664,0.23,0.55,-0.76
441336654,0.23,0.55,-0.76
441338654,0.23,0.55,-0.76
441340730,0.23,0.55,-0.76
441342812,0.23,0.55,-0.76
441344704,0.23,0.55,-0.76
441346705,0.23,0.55,-0.76
441348712,0.23,0.55,-0.76
441350746,0.23,0.55,-0.76
441352739,0.23,0.55,-0.76
441354705,0.23,0.55,-0.76
441356704,0.23,0.55,-0.76
441358667,0.23,0.55,-0.76
441360665,0.23,0.55,-0.76
441362670,0.23,0.55,-0.76
441364668,0.23,0.55,-0.76
441366756,0.23,0.55,-0.76
441368678,0.23,0.55,-0.76
441370667,0.23,0.55,-0.76
441372654,0.23,0.55,-0.76
441374732,0.23,0.55,-0.76
441376705,0.23,0.55,-0.76
441378669,0.23,0.55,-0.75
441380735,0.23,0.55,-0.75
441382710,0.23,0.55,-0.75
441384709,0.23,0.55,-0.75
441386766,0.23,0.55,-0.75
441388721,0.23,0.55,-0.76
441390706,0.23,0.55,-0.76
441392803,0.23,0.55,-0.76
441394710,0.23,0.55,-0.76
441396731,0.23,0.55,-0.76
441398714,0.23,0.55,-0.76
441400671,0.23,0.55,-0.76
441402667,0.23,0.55,-0.76
441404667,0.23,0.55,-0.76
441406731,0.23,0.55,-0.76
441408701,0.23,0.55,-0.76
441410665,0.23,0.55,-0.76
441412655,0.23,0.55,-0.76
441414707,0.23,0.55,-0.76
441416757,0.23,0.55,-0.76
441418673,0.23,0.55,-0.76
441420733,0.23,0.55,-0.76
441422709,0.23,0.55,-0.76
441424707,0.23,0.55,-0.76
441426728,0.23,0.55,-0.76
441428733,0.23,0.55,-0.76
441430718,0.23,0.55,-0.76
441432705,0.23,0.55,-0.76
441434700,0.23,0.55,-0.76
441436707,0.23,0.55,-0.76
441438731,0.23,0.55,-0.75
441440683,0.23,0.55,-0.75
441442763,0.23,0.55,-0.75
441444662,0.23,0.55,-0.75
441446708,0.23,0.55,-0.75
441448694,0.23,0.55,-0.75
441450675,0.23,0.55,-0.75
441452667,0.23,0.55,-0.75
441454663,0.23,0.55,-0.75
441456654,0.23,0.55,-0.75
441458663,0.23,0.55,-0.75
441460731,0.23,0.55,-0.76
441462709,0.23,0.55,-0.76
441464703,0.23,0.55,-0.76
441466815,0.23,0.55,-0.76
441468739,0.23,0.55,-0.76
441470721,0.23,0.55,-0.76
441472706,0.23,0.55,-0.76
441474707,0.23,0.55,-0.76
441476731,0.23,0.55,-0.76
441478709,0.23,0.55,-0.76
441480694,0.23,0.55,-0.76
441482663,0.23,0.55,-0.76
441484667,0.23,0.55,-0.76
441486687,0.23,0.55,-0.76
441488661,0.23,0.55,-0.76
441490692,0.23,0.55,-0.76
441492787,0.23,0.55,-0.76
441494700,0.23,0.55,-0.76
441496717,0.23,0.55,-0.76
441498703,0.23,0.55,-0.76
441500738,0.23,0.55,-0.75
441502711,0.23,0.55,-0.75
441504709,0.23,0.55,-0.75
441506706,0.23,0.55,-0.75
441508704,0.23,0.55,-0.75
441510703,0.23,0.55,-0.76
441512708,0.23,0.55,-0.76
441514667,0.23,0.55,-0.76
441516782,0.23,0.55,-0.76
441518676,0.23,0.55,-0.76
441520665,0.23,0.55,-0.76
441522667,0.23,0.55,-0.76
441524667,0.23,0.55,-0.76
441526670,0.23,0.55,-0.76
441528665,0.23,0.55,-0.76
441530662,0.23,0.55,-0.76
441532654,0.23,0.55,-0.76
441534665,0.23,0.55,-0.76
441536672,0.23,0.55,-0.76
441538669,0.23,0.55,-0.76
441540705,0.23,0.55,-0.76
441542777,0.23,0.55,-0.76
441544728,0.23,0.55,-0.76
441546815,0.23,0.55,-0.76
441548722,0.23,0.55,-0.76
441550705,0.23,0.55,-0.76
441552707,0.23,0.55,-0.76
441554708,0.23,0.55,-0.76
441556655,0.23,0.55,-0.76
441558666,0.23,0.55,-0.76
441560731,0.23,0.55,-0.76
441562688,0.23,0.55,-0.76
441564663,0.23,0.55,-0.76
441566761,0.23,0.55,-0.76
441568715,0.23,0.55,-0.76
441570708,0.23,0.55,-0.76
441572662,0.23,0.55,-0.76
441574652,0.23,0.55,-0.76
441576662,0.23,0.55,-0.76
441578663,0.23,0.55,-0.76
441580830,0.23,0.55,-0.76
441582712,0.23,0.55,-0.76
441584709,0.23,0.55,-0.76
441586716,0.23,0.55,-0.76
441588731,0.23,0.55,-0.76
441590718,0.23,0.55,-0.76
441592804,0.23,0.55,-0.76
441594711,0.23,0.55,-0.76
441596706,0.23,0.55,-0.76
441598664,0.23,0.55,-0.76
441600694,0.23,0.55,-0.76
441602706,0.23,0.55,-0.76
441604666,0.23,0.55,-0.76
441606666,0.23,0.55,-0.76
441608666,0.23,0.55,-0.76
441610669,0.23,0.55,-0.76
441612739,0.23,0.55,-0.76
441614674,0.23,0.55,-0.76
441616759,0.23,0.55,-0.76
441618774,0.23,0.55,-0.76
441620724,0.23,0.55,-0.76
441622706,0.23,0.55,-0.76
441624703,0.23,0.55,-0.75
441626722,0.23,0.55,-0.75
441628724,0.23,0.55,-0.75
441630715,0.23,0.55,-0.75
441632708,0.23,0.55,-0.75
441634702,0.24,0.55,-0.76
441636690,0.24,0.55,-0.76
441638741,0.24,0.55,-0.76
441640671,0.24,0.55,-0.76
441642768,0.24,0.55,-0.76
441644665,0.23,0.55,-0.76
441646719,0.23,0.55,-0.76
441648672,0.23,0.55,-0.76
441650664,0.23,0.55,-0.76
441652653,0.23,0.55,-0.76
441654655,0.23,0.55,-0.76
441656652,0.23,0.55,-0.76
441658662,0.23,0.55,-0.76
441660730,0.23,0.55,-0.76
441662710,0.23,0.55,-0.76
441664703,0.23,0.56,-0.76
441666804,0.23,0.56,-0.76
441668712,0.23,0.56,-0.76
441670708,0.23,0.56,-0.76
441672728,0.23,0.56,-0.76
441674780,0.23,0.55,-0.76
441676696,0.23,0.55,-0.76
441678667,0.23,0.55,-0.76
441680693,0.23,0.55,-0.76
441682670,0.23,0.55,-0.76
441684695,0.23,0.55,-0.76
441686710,0.23,0.55,-0.76
441688667,0.23,0.55,-0.76
441690667,0.23,0.55,-0.76
441692778,0.23,0.55,-0.76
441694665,0.23,0.55,-0.76
441696662,0.23,0.55,-0.76
441698661,0.23,0.55,-0.76
441700725,0.23,0.55,-0.76
441702713,0.23,0.55,-0.76
441704731,0.23,0.55,-0.76
441706703,0.23,0.55,-0.76
441708707,0.23,0.55,-0.76
441710705,0.23,0.55,-0.76
441712702,0.23,0.55,-0.76
441714704,0.23,0.55,-0.76
441716759,0.23,0.55,-0.76
441718729,0.23,0.55,-0.76
441720708,0.23,0.55,-0.76
441722661,0.23,0.55,-0.76
441724665,0.23,0.55,-0.76
441726676,0.23,0.55,-0.76
441728670,0.23,0.55,-0.76
441730714,0.23,0.55,-0.76
441732670,0.23,0.55,-0.76
441734669,0.23,0.55,-0.76
441736663,0.23,0.55,-0.76
441738651,0.23,0.55,-0.76
441740727,0.23,0.55,-0.76
441742811,0.23,0.55,-0.76
441744709,0.23,0.55,-0.76
441746733,0.23,0.55,-0.76
441748735,0.23,0.55,-0.76
441750711,0.23,0.55,-0.76
441752710,0.23,0.55,-0.76
441754698,0.23,0.55,-0.76
441756724,0.23,0.55,-0.75
441758714,0.23,0.55,-0.75
441760667,0.23,0.55,-0.75
441762666,0.23,0.55,-0.75
441764662,0.23,0.55,-0.75
441766759,0.23,0.55,-0.77
441768674,0.23,0.55,-0.77
441770661,0.23,0.55,-0.77
441772662,0.23,0.55,-0.77
441774664,0.23,0.55,-0.77
441776653,0.23,0.55,-0.76
441778676,0.23,0.55,-0.76
441780735,0.23,0.55,-0.76
441782708,0.23,0.55,-0.76
441784710,0.23,0.55,-0.76
441786712,0.23,0.55,-0.76
441788701,0.23,0.55,-0.76
441790706,0.23,0.55,-0.76
441792794,0.23,0.55,-0.76
441794669,0.23,0.55,-0.76
441796667,0.23,0.55,-0.76
441798725,0.23,0.55,-0.75
441800714,0.23,0.55,-0.75
441802670,0.23,0.55,-0.75
441804666,0.23,0.55,-0.75
441806665,0.23,0.55,-0.75
441808669,0.23,0.55,-0.75
441810706,0.23,0.55,-0.75
441812684,0.23,0.55,-0.75
441814652,0.23,0.55,-0.75
441816753,0.23,0.55,-0.75
441818674,0.23,0.55,-0.76
441820714,0.23,0.55,-0.76
441822706,0.23,0.55,-0.76
441824702,0.23,0.55,-0.76
441826697,0.23,0.55,-0.76
441828702,0.23,0.55,-0.75
441830703,0.23,0.55,-0.75
441832673,0.23,0.55,-0.75
441834669,0.23,0.55,-0.75
441836674,0.23,0.55,-0.75
441838759,0.23,0.55,-0.76
441840690,0.23,0.55,-0.76
441842770,0.23,0.55,-0.76
441844681,0.23,0.55,-0.76
441846654,0.23,0.55,-0.76
441848655,0.23,0.55,-0.76
441850662,0.23,0.55,-0.76
441852663,0.23,0.55,-0.76
441854653,0.23,0.55,-0.76
441856666,0.23,0.55,-0.76
441858710,0.23,0.55,-0.76
441860719,0.23,0.55,-0.76
441862712,0.23,0.55,-0.76
441864707,0.23,0.55,-0.76
441866806,0.23,0.55,-0.76
441868742,0.23,0.55,-0.76
441870730,0.23,0.55,-0.76
441872708,0.23,0.55,-0.76
441874710,0.23,0.55,-0.76
441876702,0.23,0.55,-0.76
441878732,0.23,0.55,-0.76
441880713,0.23,0.55,-0.76
441882655,0.23,0.55,-0.76
441884665,0.23,0.55,-0.76
441886685,0.23,0.55,-0.76
441888661,0.23,0.55,-0.76
441890715,0.23,0.55,-0.75
441892807,0.23,0.55,-0.75
441894664,0.23,0.55,-0.75
441896653,0.23,0.55,-0.75
441898653,0.23,0.55,-0.75
441900726,0.23,0.55,-0.76
441902705,0.23,0.55,-0.76
441904703,0.23,0.55,-0.76
441906706,0.23,0.55,-0.76
441908728,0.23,0.55,-0.76
441910728,0.23,0.55,-0.75
441912712,0.23,0.55,-0.75
441914704,0.23,0.55,-0.75
441916806,0.23,0.55,-0.75
441918704,0.23,0.55,-0.75
441920753,0.23,0.55,-0.76
441922687,0.23,0.55,-0.76
441924664,0.23,0.55,-0.76
441926665,0.23,0.55,-0.76
441928713,0.23,0.55,-0.76
441930666,0.23,0.55,-0.76
441932663,0.23,0.55,-0.76
441934665,0.23,0.55,-0.76
441936653,0.23,0.55,-0.76
441938664,0.23,0.55,-0.76
441940732,0.23,0.55,-0.76
441942806,0.23,0.55,-0.76
441944711,0.23,0.55,-0.76
441946708,0.23,0.55,-0.76
441948707,0.23,0.55,-0.76
441950705,0.23,0.55,-0.76
441952743,0.23,0.55,-0.76
441954731,0.23,0.55,-0.76
441956709,0.23,0.55,-0.76
441958662,0.23,0.55,-0.76
441960662,0.23,0.55,-0.76
441962665,0.23,0.55,-0.76
441964663,0.23,0.55,-0.76
441966758,0.23,0.55,-0.76
441968674,0.23,0.55,-0.76
441970665,0.23,0.55,-0.76
441972665,0.23,0.55,-0.76
441974668,0.23,0.55,-0.76
441976698,0.23,0.55,-0.76
441978771,0.23,0.55,-0.76
441980732,0.23,0.55,-0.76
441982709,0.23,0.55,-0.75
441984710,0.23,0.55,-0.75
441986764,0.23,0.55,-0.75
441988729,0.23,0.55,-0.75
441990710,0.23,0.55,-0.75
441992808,0.23,0.55,-0.76
441994713,0.23,0.55,-0.76
441996744,0.23,0.55,-0.76
441998726,0.23,0.55,-0.76
442000665,0.23,0.55,-0.76
442002667,0.23,0.55,-0.76
442004662,0.23,0.55,-0.76
442006663,0.23,0.55,-0.76
442008665,0.23,0.55,-0.76
442010705,0.23,0.55,-0.76
442012665,0.23,0.55,-0.76
442014663,0.23,0.55,-0.76
442016655,0.23,0.55,-0.76
442018672,0.23,0.55,-0.76
442020734,0.23,0.55,-0.76
442022726,0.23,0.55,-0.76
442024703,0.23,0.55,-0.76
442026713,0.23,0.55,-0.76
442028730,0.23,0.55,-0.76
442030714,0.23,0.55,-0.76
442032706,0.23,0.55,-0.76
442034698,0.23,0.55,-0.76
442036747,0.23,0.55,-0.76
442038722,0.23,0.55,-0.76
442040710,0.23,0.55,-0.76
442042775,0.23,0.55,-0.76
442044723,0.23,0.55,-0.75
442046714,0.23,0.55,-0.75
442048663,0.23,0.55,-0.75
442050655,0.23,0.55,-0.75
442052674,0.23,0.55,-0.75
442054712,0.23,0.55,-0.76
442056664,0.23,0.55,-0.76
442058662,0.23,0.55,-0.76
442060665,0.23,0.55,-0.76
442062728,0.23,0.55,-0.76
442064713,0.23,0.55,-0.76
442066806,0.23,0.55,-0.76
442068711,0.23,0.55,-0.76
442070706,0.23,0.55,-0.76
442072737,0.23,0.55,-0.76
442074726,0.23,0.55,-0.76
442076702,0.23,0.55,-0.76
442078708,0.23,0.55,-0.76
442080705,0.23,0.55,-0.76
442082733,0.23,0.55,-0.76
442084690,0.23,0.55,-0.75
442086684,0.23,0.55,-0.75
442088672,0.23,0.55,-0.75
442090715,0.23,0.55,-0.75
442092778,0.23,0.55,-0.75
442094669,0.23,0.55,-0.76
442096654,0.23,0.55,-0.76
442098661,0.23,0.55,-0.76
442100654,0.23,0.55,-0.76
442102733,0.23,0.55,-0.76
442104708,0.23,0.55,-0.76
442106706,0.23,0.55,-0.76
442108698,0.23,0.55,-0.76
442110707,0.23,0.55,-0.76
442112715,0.23,0.55,-0.76
442114725,0.23,0.55,-0.76
442116791,0.23,0.55,-0.76
442118671,0.23,0.55,-0.76
442120663,0.23,0.55,-0.76
442122665,0.23,0.55,-0.76
442124663,0.23,0.55,-0.76
442126663,0.23,0.55,-0.76
442128654,0.23,0.55,-0.76
442130667,0.23,0.55,-0.76
442132664,0.23,0.55,-0.76
442134665,0.23,0.55,-0.76
442136652,0.23,0.55,-0.76
442138665,0.23,0.55,-0.76
442140670,0.23,0.55,-0.76
442142785,0.23,0.55,-0.76
442144703,0.23,0.55,-0.76
442146703,0.23,0.55,-0.76
442148708,0.23,0.55,-0.76
442150706,0.23,0.55,-0.76
442152705,0.23,0.55,-0.76
442154667,0.23,0.55,-0.76
442156747,0.23,0.55,-0.76
442158693,0.23,0.55,-0.76
442160665,0.23,0.55,-0.76
442162655,0.23,0.55,-0.76
442164664,0.23,0.55,-0.76
442166758,0.23,0.55,-0.75
442168703,0.23,0.55,-0.75
442170663,0.23,0.55,-0.75
442172679,0.23,0.55,-0.75
442174714,0.23,0.55,-0.75
442176667,0.23,0.55,-0.75
442178654,0.23,0.55,-0.75
442180697,0.23,0.55,-0.75
442182728,0.23,0.55,-0.75
442184718,0.23,0.55,-0.75
442186709,0.23,0.55,-0.76
442188709,0.23,0.55,-0.76
442190726,0.23,0.55,-0.76
442192839,0.23,0.55,-0.76
442194719,0.23,0.55,-0.76
442196705,0.23,0.55,-0.76
442198708,0.23,0.55,-0.76
442200669,0.23,0.55,-0.76
442202665,0.23,0.55,-0.76
442204695,0.23,0.55,-0.76
442206731,0.23,0.55,-0.76
442208673,0.23,0.55,-0.76
442210664,0.23,0.55,-0.76
442212664,0.23,0.55,-0.76
442214693,0.23,0.55,-0.76
442216818,0.23,0.55,-0.76
442218707,0.23,0.55,-0.76
442220661,0.23,0.55,-0.76
442222717,0.23,0.55,-0.76
442224712,0.23,0.55,-0.76
442226704,0.23,0.55,-0.76
442228724,0.23,0.55,-0.75
442230724,0.23,0.55,-0.75
442232710,0.23,0.55,-0.75
442234710,0.23,0.55,-0.75
442236704,0.23,0.55,-0.75
442238788,0.23,0.55,-0.76
442240718,0.23,0.55,-0.76
442242777,0.23,0.55,-0.76
442244664,0.23,0.55,-0.76
442246669,0.23,0.55,-0.76
442248671,0.23,0.55,-0.76
442250665,0.23,0.55,-0.76
442252664,0.23,0.55,-0.76
442254653,0.23,0.55,-0.76
442256665,0.23,0.55,-0.76
442258655,0.23,0.55,-0.76
442260661,0.23,0.55,-0.76
442262709,0.23,0.55,-0.76
442264708,0.23,0.55,-0.76
442266778,0.23,0.55,-0.76
442268727,0.23,0.55,-0.75
442270727,0.23,0.55,-0.75
442272722,0.23,0.55,-0.75
442274706,0.23,0.55,-0.75
442276706,0.23,0.55,-0.75
442278683,0.23,0.55,-0.76
442280712,0.23,0.55,-0.76
442282735,0.23,0.55,-0.76
442284667,0.23,0.55,-0.76
442286678,0.23,0.55,-0.76
442288672,0.23,0.55,-0.76
442290653,0.23,0.55,-0.76
442292783,0.23,0.55,-0.76
442294716,0.23,0.55,-0.76
442296653,0.23,0.55,-0.76
442298651,0.23,0.55,-0.76
442300654,0.23,0.55,-0.76
442302730,0.23,0.55,-0.76
442304703,0.23,0.55,-0.76
442306709,0.23,0.55,-0.76
442308715,0.23,0.55,-0.76
442310736,0.23,0.55,-0.76
442312728,0.23,0.55,-0.76
442314711,0.23,0.55,-0.76
442316807,0.23,0.55,-0.76
442318721,0.23,0.55,-0.76
442320702,0.23,0.55,-0.76
442322806,0.23,0.55,-0.76
442324691,0.23,0.55,-0.76
442326654,0.23,0.55,-0.76
442328655,0.23,0.55,-0.76
442330675,0.23,0.55,-0.76
442332711,0.23,0.55,-0.76
442334666,0.23,0.55,-0.76
442336665,0.23,0.55,-0.76
442338669,0.23,0.55,-0.76
442340663,0.23,0.55,-0.76
442302730,0.23,0.55,-0.76
442304703,0.23,0.55,-0.76
442306709,0.23,0.55,-0.76
442308715,0.23,0.55,-0.76
442310736,0.23,0.55,-0.76
442312728,0.23,0.55,-0.76
442314711,0.23,0.55,-0.76
442316807,0.23,0.55,-0.76
