timestamp,accX,accY,accZ
80055278,0.11,-0.29,-0.87
80057220,0.11,-0.29,-0.87
80059220,0.11,-0.31,-0.85
80061228,0.11,-0.31,-0.85
80063215,0.11,-0.31,-0.85
80065296,0.11,-0.31,-0.85
80067223,0.11,-0.31,-0.85
80069217,0.11,-0.28,-0.83
80071218,0.11,-0.28,-0.83
80073215,0.11,-0.28,-0.83
80075220,0.11,-0.28,-0.83
80077215,0.11,-0.28,-0.83
80079215,0.12,-0.29,-0.82
80081215,0.12,-0.29,-0.82
80083215,0.12,-0.29,-0.82
80085226,0.12,-0.29,-0.82
80087220,0.12,-0.29,-0.82
80089231,0.11,-0.29,-0.82
80091327,0.11,-0.29,-0.82
80093215,0.11,-0.29,-0.82
80095297,0.11,-0.29,-0.82
80097256,0.11,-0.29,-0.82
80099259,0.11,-0.25,-0.83
80101283,0.11,-0.25,-0.83
80103277,0.11,-0.25,-0.83
80105255,0.11,-0.25,-0.83
80107254,0.11,-0.25,-0.83
80109260,0.11,-0.25,-0.86
80111288,0.11,-0.25,-0.86
80113261,0.11,-0.25,-0.86
80115323,0.11,-0.25,-0.86
80117220,0.11,-0.25,-0.86
80119292,0.10,-0.25,-0.86
80121230,0.10,-0.25,-0.86
80123214,0.10,-0.25,-0.86
80125262,0.10,-0.25,-0.86
80127212,0.10,-0.25,-0.86
80129216,0.09,-0.26,-0.84
80131211,0.09,-0.26,-0.84
80133211,0.09,-0.26,-0.84
80135278,0.09,-0.26,-0.84
80137257,0.09,-0.26,-0.84
80139258,0.09,-0.26,-0.84
80141353,0.08,-0.30,-0.88
80143256,0.08,-0.30,-0.88
80145258,0.08,-0.30,-0.88
80147270,0.08,-0.30,-0.88
80149222,0.08,-0.30,-0.88
80151224,0.07,-0.30,-0.93
80153218,0.07,-0.30,-0.93
80155219,0.07,-0.30,-0.93
80157220,0.07,-0.30,-0.93
80159221,0.07,-0.30,-0.93
80161238,0.06,-0.30,-0.94
80163216,0.06,-0.30,-0.94
80165300,0.06,-0.30,-0.94
80167224,0.06,-0.30,-0.94
80169215,0.06,-0.30,-0.94
80171218,0.04,-0.32,-0.93
80173224,0.04,-0.32,-0.93
80175257,0.04,-0.32,-0.93
80177310,0.04,-0.32,-0.93
80179278,0.04,-0.32,-0.93
80181257,0.03,-0.31,-0.99
80183259,0.03,-0.31,-0.99
80185258,0.03,-0.31,-0.99
80187259,0.03,-0.31,-0.99
80189260,0.03,-0.31,-0.99
80191389,0.04,-0.29,-1.02
80193251,0.04,-0.29,-1.02
80195219,0.04,-0.29,-1.02
80197215,0.04,-0.29,-1.02
80199216,0.04,-0.29,-1.02
80201272,0.05,-0.29,-0.96
80203240,0.05,-0.29,-0.96
80205212,0.05,-0.29,-0.96
80207216,0.05,-0.29,-0.96
80209211,0.05,-0.29,-0.96
80211211,0.06,-0.27,-0.88
80213212,0.06,-0.27,-0.88
80215365,0.06,-0.27,-0.88
80217254,0.06,-0.27,-0.88
80219252,0.06,-0.27,-0.88
80221255,0.06,-0.27,-0.88
80223256,0.07,-0.24,-0.88
80225258,0.07,-0.24,-0.88
80227255,0.07,-0.24,-0.88
80229270,0.07,-0.24,-0.88
80231289,0.07,-0.24,-0.88
80233216,0.08,-0.22,-0.89
80235214,0.08,-0.22,-0.89
80237212,0.08,-0.22,-0.89
80239214,0.08,-0.22,-0.89
80241319,0.08,-0.22,-0.89
80243215,0.08,-0.20,-0.89
80245217,0.08,-0.20,-0.89
80247258,0.08,-0.20,-0.89
80249261,0.08,-0.20,-0.89
80251216,0.08,-0.20,-0.89
80253211,0.09,-0.18,-0.85
80255282,0.09,-0.18,-0.85
80257259,0.09,-0.18,-0.85
80259262,0.09,-0.18,-0.85
80261261,0.09,-0.18,-0.85
80263333,0.08,-0.19,-0.87
80265368,0.08,-0.19,-0.87
80267261,0.08,-0.19,-0.87
80269256,0.08,-0.19,-0.87
80271253,0.08,-0.19,-0.87
80273216,0.08,-0.17,-0.87
80275219,0.08,-0.17,-0.87
80277217,0.08,-0.17,-0.87
80279215,0.08,-0.17,-0.87
80281214,0.08,-0.17,-0.87
80283221,0.07,-0.20,-0.83
80285225,0.07,-0.20,-0.83
80287230,0.07,-0.20,-0.83
80289216,0.07,-0.20,-0.83
80291295,0.07,-0.20,-0.83
80293222,0.07,-0.17,-0.79
80295255,0.07,-0.17,-0.79
80297257,0.07,-0.17,-0.79
80299256,0.07,-0.17,-0.79
80301258,0.07,-0.17,-0.79
80303254,0.07,-0.17,-0.79
80305254,0.05,-0.20,-0.81
80307216,0.05,-0.20,-0.81
80309215,0.05,-0.20,-0.81
80311214,0.05,-0.20,-0.81
80313219,0.05,-0.20,-0.81
80315298,0.06,-0.18,-0.81
80317222,0.06,-0.18,-0.81
80319214,0.06,-0.18,-0.81
80321214,0.06,-0.18,-0.81
80323214,0.06,-0.18,-0.81
80325220,0.07,-0.17,-0.75
80327215,0.07,-0.17,-0.75
80329214,0.07,-0.17,-0.75
80331216,0.07,-0.17,-0.75
80333217,0.07,-0.17,-0.75
80335340,0.08,-0.21,-0.65
80337263,0.08,-0.21,-0.65
80339258,0.08,-0.21,-0.65
80341334,0.08,-0.21,-0.65
80343258,0.08,-0.21,-0.65
80345256,0.07,-0.21,-0.60
80347263,0.07,-0.21,-0.60
80349215,0.07,-0.21,-0.60
80351212,0.07,-0.21,-0.60
80353209,0.07,-0.21,-0.60
80355210,0.07,-0.21,-0.64
80357214,0.07,-0.21,-0.64
80359214,0.07,-0.21,-0.64
80361227,0.07,-0.21,-0.64
80363210,0.07,-0.21,-0.64
80365292,0.07,-0.21,-0.71
80367220,0.07,-0.21,-0.71
80369212,0.07,-0.21,-0.71
80371210,0.07,-0.21,-0.71
80373211,0.07,-0.21,-0.71
80375261,0.07,-0.21,-0.67
80377260,0.07,-0.21,-0.67
80379276,0.07,-0.21,-0.67
80381255,0.07,-0.21,-0.67
80383256,0.07,-0.21,-0.67
80385259,0.07,-0.21,-0.67
80387255,0.07,-0.25,-0.59
80389216,0.07,-0.25,-0.59
80391306,0.07,-0.25,-0.59
80393216,0.07,-0.25,-0.59
80395223,0.07,-0.25,-0.59
80397237,0.09,-0.27,-0.55
80399255,0.09,-0.27,-0.55
80401217,0.09,-0.27,-0.55
80403216,0.09,-0.27,-0.55
80405212,0.09,-0.27,-0.55
80407213,0.09,-0.26,-0.56
80409221,0.09,-0.26,-0.56
80411221,0.09,-0.26,-0.56
80413233,0.09,-0.26,-0.56
80415344,0.09,-0.26,-0.56
80417255,0.11,-0.24,-0.58
80419257,0.11,-0.24,-0.58
80421258,0.11,-0.24,-0.58
80423260,0.11,-0.24,-0.58
80425254,0.11,-0.24,-0.58
80427220,0.12,-0.22,-0.55
80429217,0.12,-0.22,-0.55
80431217,0.12,-0.22,-0.55
80433213,0.12,-0.22,-0.55
80435213,0.12,-0.22,-0.55
80437209,0.12,-0.21,-0.51
80439216,0.12,-0.21,-0.51
80441292,0.12,-0.21,-0.51
80443216,0.12,-0.21,-0.51
80445214,0.12,-0.21,-0.51
80447258,0.14,-0.14,-0.50
80449216,0.14,-0.14,-0.50
80451215,0.14,-0.14,-0.50
80453211,0.14,-0.14,-0.50
80455261,0.14,-0.14,-0.50
80457256,0.14,-0.08,-0.54
80459261,0.14,-0.08,-0.54
80461266,0.14,-0.08,-0.54
80463284,0.14,-0.08,-0.54
80465189,0.14,-0.08,-0.54
80467212,0.14,-0.08,-0.54
80469187,0.12,-0.06,-0.60
80471188,0.12,-0.06,-0.60
80473187,0.12,-0.06,-0.60
80475188,0.12,-0.06,-0.60
80477188,0.12,-0.06,-0.60
80479216,0.10,-0.09,-0.70
80481190,0.10,-0.09,-0.70
80483191,0.10,-0.09,-0.70
80485192,0.10,-0.09,-0.70
80487288,0.10,-0.09,-0.70
80489282,0.06,-0.19,-0.75
80491354,0.06,-0.19,-0.75
80493257,0.06,-0.19,-0.75
80495256,0.06,-0.19,-0.75
80497254,0.06,-0.19,-0.75
80499256,0.02,-0.27,-0.73
80501255,0.02,-0.27,-0.73
80503259,0.02,-0.27,-0.73
80505256,0.02,-0.27,-0.73
80507221,0.02,-0.27,-0.73
80509219,0.00,-0.33,-0.76
80511217,0.00,-0.33,-0.76
80513215,0.00,-0.33,-0.76
80515294,0.00,-0.33,-0.76
80517216,0.00,-0.33,-0.76
80519215,-0.01,-0.36,-0.94
80521220,-0.01,-0.36,-0.94
80523224,-0.01,-0.36,-0.94
80525216,-0.01,-0.36,-0.94
80527220,-0.01,-0.36,-0.94
80529220,0.00,-0.33,-1.06
80531219,0.00,-0.33,-1.06
80533220,0.00,-0.33,-1.06
80535261,0.00,-0.33,-1.06
80537257,0.00,-0.33,-1.06
80539256,0.02,-0.30,-1.01
80541328,0.02,-0.30,-1.01
80543258,0.02,-0.30,-1.01
80545256,0.02,-0.30,-1.01
80547255,0.02,-0.30,-1.01
80549214,0.02,-0.30,-1.01
80551211,0.05,-0.28,-0.84
80553210,0.05,-0.28,-0.84
80555215,0.05,-0.28,-0.84
80557212,0.05,-0.28,-0.84
80559213,0.05,-0.28,-0.84
80561226,0.05,-0.25,-0.85
80563212,0.05,-0.25,-0.85
80565296,0.05,-0.25,-0.85
80567221,0.05,-0.25,-0.85
80569212,0.05,-0.25,-0.85
80571216,0.05,-0.30,-1.11
80573216,0.05,-0.30,-1.11
80575258,0.05,-0.30,-1.11
80577256,0.05,-0.30,-1.11
80579256,0.05,-0.30,-1.11
80581294,0.02,-0.37,-1.35
80583287,0.02,-0.37,-1.35
80585257,0.02,-0.37,-1.35
80587256,0.02,-0.37,-1.35
80589255,0.02,-0.37,-1.35
80591315,-0.02,-0.36,-1.35
80593221,-0.02,-0.36,-1.35
80595215,-0.02,-0.36,-1.35
80597216,-0.02,-0.36,-1.35
80599216,-0.02,-0.36,-1.35
80601220,-0.05,-0.25,-1.33
80603221,-0.05,-0.25,-1.33
80605215,-0.05,-0.25,-1.33
80607213,-0.05,-0.25,-1.33
80609246,-0.05,-0.25,-1.33
80611251,-0.08,-0.14,-1.41
80613214,-0.08,-0.14,-1.41
80615349,-0.08,-0.14,-1.41
80617257,-0.08,-0.14,-1.41
80619258,-0.08,-0.14,-1.41
80621258,-0.08,0.01,-1.38
80623269,-0.08,0.01,-1.38
80625292,-0.08,0.01,-1.38
80627270,-0.08,0.01,-1.38
80629253,-0.08,0.01,-1.38
80631220,-0.08,0.01,-1.38
80633217,-0.07,-0.06,-1.31
80635216,-0.07,-0.06,-1.31
80637216,-0.07,-0.06,-1.31
80639221,-0.07,-0.06,-1.31
80641316,-0.07,-0.06,-1.31
80643220,-0.09,-0.16,-1.26
80645219,-0.09,-0.16,-1.26
80647258,-0.09,-0.16,-1.26
80649218,-0.09,-0.16,-1.26
80651214,-0.09,-0.16,-1.26
80653214,-0.12,-0.11,-1.25
80655258,-0.12,-0.11,-1.25
80657258,-0.12,-0.11,-1.25
80659261,-0.12,-0.11,-1.25
80661257,-0.12,-0.11,-1.25
80663264,-0.16,-0.10,-1.34
80665479,-0.16,-0.10,-1.34
80667272,-0.16,-0.10,-1.34
80669256,-0.16,-0.10,-1.34
80671217,-0.16,-0.10,-1.34
80673216,-0.19,-0.12,-1.38
80675222,-0.19,-0.12,-1.38
80677220,-0.19,-0.12,-1.38
80679216,-0.19,-0.12,-1.38
80681215,-0.19,-0.12,-1.38
80683217,-0.20,-0.27,-1.39
80685220,-0.20,-0.27,-1.39
80687217,-0.20,-0.27,-1.39
80689211,-0.20,-0.27,-1.39
80691299,-0.20,-0.27,-1.39
80693215,-0.19,-0.45,-1.34
80695259,-0.19,-0.45,-1.34
80697256,-0.19,-0.45,-1.34
80699260,-0.19,-0.45,-1.34
80701258,-0.19,-0.45,-1.34
80703256,-0.17,-0.52,-1.26
80705255,-0.17,-0.52,-1.26
80707216,-0.17,-0.52,-1.26
80709222,-0.17,-0.52,-1.26
80711216,-0.17,-0.52,-1.26
80713219,-0.17,-0.52,-1.26
80715297,-0.13,-0.55,-1.27
80717220,-0.13,-0.55,-1.27
80719214,-0.13,-0.55,-1.27
80721217,-0.13,-0.55,-1.27
80723222,-0.13,-0.55,-1.27
80725217,-0.08,-0.48,-1.32
80727219,-0.08,-0.48,-1.32
80729217,-0.08,-0.48,-1.32
80731215,-0.08,-0.48,-1.32
80733215,-0.08,-0.48,-1.32
80735260,-0.02,-0.38,-1.27
80737254,-0.02,-0.38,-1.27
80739255,-0.02,-0.38,-1.27
80741341,-0.02,-0.38,-1.27
80743256,-0.02,-0.38,-1.27
80745257,0.04,-0.25,-1.08
80747258,0.04,-0.25,-1.08
80749217,0.04,-0.25,-1.08
80751212,0.04,-0.25,-1.08
80753209,0.04,-0.25,-1.08
80755210,0.07,-0.11,-0.88
80757209,0.07,-0.11,-0.88
80759216,0.07,-0.11,-0.88
80761230,0.07,-0.11,-0.88
80763214,0.07,-0.11,-0.88
80765300,0.12,-0.10,-0.74
80767224,0.12,-0.10,-0.74
80769211,0.12,-0.10,-0.74
80771211,0.12,-0.10,-0.74
80773215,0.12,-0.10,-0.74
80775335,0.14,-0.09,-0.58
80777259,0.14,-0.09,-0.58
80779255,0.14,-0.09,-0.58
80781277,0.14,-0.09,-0.58
80783275,0.14,-0.09,-0.58
80785262,0.13,-0.13,-0.45
80787264,0.13,-0.13,-0.45
80789208,0.13,-0.13,-0.45
80791307,0.13,-0.13,-0.45
80793207,0.13,-0.13,-0.45
80795205,0.13,-0.13,-0.45
80797206,0.10,-0.23,-0.49
80799206,0.10,-0.23,-0.49
80801207,0.10,-0.23,-0.49
80803204,0.10,-0.23,-0.49
80805204,0.10,-0.23,-0.49
80807211,0.07,-0.25,-0.68
80809206,0.07,-0.25,-0.68
80811226,0.07,-0.25,-0.68
80813204,0.07,-0.25,-0.68
80815332,0.07,-0.25,-0.68
80817250,0.05,-0.35,-0.84
80819247,0.05,-0.35,-0.84
80821243,0.05,-0.35,-0.84
80823246,0.05,-0.35,-0.84
80825244,0.05,-0.35,-0.84
80827206,0.07,-0.41,-0.84
80829208,0.07,-0.41,-0.84
80831206,0.07,-0.41,-0.84
80833205,0.07,-0.41,-0.84
80835204,0.07,-0.41,-0.84
80837203,0.10,-0.41,-0.70
80839205,0.10,-0.41,-0.70
80841287,0.10,-0.41,-0.70
80843205,0.10,-0.41,-0.70
80845208,0.10,-0.41,-0.70
80847252,0.12,-0.37,-0.59
80849203,0.12,-0.37,-0.59
80851203,0.12,-0.37,-0.59
80853203,0.12,-0.37,-0.59
80855251,0.12,-0.37,-0.59
80857263,0.17,-0.25,-0.55
80859239,0.17,-0.25,-0.55
80861220,0.17,-0.25,-0.55
80863180,0.17,-0.25,-0.55
80865180,0.17,-0.25,-0.55
80867205,0.22,-0.14,-0.52
80869180,0.22,-0.14,-0.52
80871181,0.22,-0.14,-0.52
80873188,0.22,-0.14,-0.52
80875179,0.22,-0.14,-0.52
80877182,0.22,-0.14,-0.52
80879181,0.25,-0.09,-0.49
80881181,0.25,-0.09,-0.49
80883180,0.25,-0.09,-0.49
80885181,0.25,-0.09,-0.49
80887182,0.25,-0.09,-0.49
80889182,0.26,-0.18,-0.49
80891190,0.26,-0.18,-0.49
80893180,0.26,-0.18,-0.49
80895180,0.26,-0.18,-0.49
80897181,0.26,-0.18,-0.49
80899182,0.25,-0.27,-0.44
80901181,0.25,-0.27,-0.44
80903180,0.25,-0.27,-0.44
80987285,0.27,-0.52,-0.44
80989246,0.27,-0.52,-0.44
80991281,0.21,-0.33,-0.44
80993236,0.21,-0.33,-0.44
80995182,0.21,-0.33,-0.44
80997186,0.21,-0.33,-0.44
80999182,0.21,-0.33,-0.44
81001183,0.09,-0.42,-0.73
81003190,0.09,-0.42,-0.73
81005182,0.09,-0.42,-0.73
81007183,0.09,-0.42,-0.73
81009182,0.09,-0.42,-0.73
81011182,0.00,-0.50,-1.02
81013182,0.00,-0.50,-1.02
81015183,0.00,-0.50,-1.02
81017188,0.00,-0.50,-1.02
81019180,0.00,-0.50,-1.02
81021183,-0.05,-0.71,-1.16
81023181,-0.05,-0.71,-1.16
81025183,-0.05,-0.71,-1.16
81027186,-0.05,-0.71,-1.16
81029181,-0.05,-0.71,-1.16
81031183,-0.10,-0.87,-1.20
81033182,-0.10,-0.87,-1.20
81035183,-0.10,-0.87,-1.20
81367285,0.23,-0.41,-0.89
81369248,0.24,-0.46,-0.80
81371398,0.24,-0.46,-0.80
81373281,0.24,-0.46,-0.80
81375285,0.24,-0.46,-0.80
81377266,0.24,-0.46,-0.80
81379250,0.24,-0.46,-0.80
81381250,0.26,-0.43,-0.67
81383248,0.26,-0.43,-0.67
81385269,0.26,-0.43,-0.67
81387320,0.26,-0.43,-0.67
81389234,0.26,-0.43,-0.67
81391235,0.26,-0.41,-0.54
81393204,0.26,-0.41,-0.54
81395207,0.26,-0.41,-0.54
81397223,0.26,-0.41,-0.54
81399254,0.26,-0.41,-0.54
81401206,0.26,-0.32,-0.45
81403206,0.26,-0.32,-0.45
81405209,0.26,-0.32,-0.45
81407267,0.26,-0.32,-0.45
81409252,0.26,-0.32,-0.45
81411249,0.27,-0.18,-0.39
81413247,0.27,-0.18,-0.39
81415272,0.27,-0.18,-0.39
81417249,0.27,-0.18,-0.39
81419250,0.27,-0.18,-0.39
81421212,0.25,-0.18,-0.44
81423210,0.25,-0.18,-0.44
81425211,0.25,-0.18,-0.44
81427210,0.25,-0.18,-0.44
81429213,0.25,-0.18,-0.44
81431214,0.24,-0.20,-0.52
81433243,0.24,-0.20,-0.52
81435284,0.24,-0.20,-0.52
81437238,0.24,-0.20,-0.52
81439208,0.24,-0.20,-0.52
81441236,0.23,-0.31,-0.52
81443205,0.23,-0.31,-0.52
81445216,0.23,-0.31,-0.52
81447296,0.23,-0.31,-0.52
81449278,0.23,-0.31,-0.52
81451256,0.20,-0.38,-0.43
81453261,0.20,-0.38,-0.43
81455273,0.20,-0.38,-0.43
81457267,0.20,-0.38,-0.43
81459250,0.20,-0.38,-0.43
81461262,0.20,-0.38,-0.43
81463248,0.18,-0.39,-0.36
81465273,0.18,-0.39,-0.36
81467253,0.18,-0.39,-0.36
81469277,0.18,-0.39,-0.36
81471231,0.18,-0.39,-0.36
81473208,0.16,-0.43,-0.45
81475207,0.16,-0.43,-0.45
81477208,0.16,-0.43,-0.45
81479206,0.16,-0.43,-0.45
81481205,0.16,-0.43,-0.45
81483205,0.15,-0.48,-0.64
81485204,0.15,-0.48,-0.64
81487255,0.15,-0.48,-0.64
81489248,0.15,-0.48,-0.64
81491269,0.15,-0.48,-0.64
81493248,0.14,-0.45,-0.80
81495248,0.14,-0.45,-0.80
81497248,0.14,-0.45,-0.80
81499214,0.14,-0.45,-0.80
81501211,0.14,-0.45,-0.80
81503215,0.16,-0.45,-0.85
81505208,0.16,-0.45,-0.85
81507216,0.16,-0.45,-0.85
81509213,0.16,-0.45,-0.85
81511214,0.16,-0.45,-0.85
81513213,0.20,-0.57,-0.83
81515226,0.20,-0.57,-0.83
81517213,0.20,-0.57,-0.83
81519210,0.20,-0.57,-0.83
81521211,0.20,-0.57,-0.83
81523211,0.25,-0.62,-0.79
81525207,0.25,-0.62,-0.79
81527256,0.25,-0.62,-0.79
81529245,0.25,-0.62,-0.79
81531246,0.25,-0.62,-0.79
81533251,0.28,-0.60,-0.80
81535250,0.28,-0.60,-0.80
81537252,0.28,-0.60,-0.80
81539213,0.28,-0.60,-0.80
81541227,0.28,-0.60,-0.80
81543213,0.28,-0.60,-0.80
81545210,0.28,-0.53,-0.80
81547246,0.28,-0.53,-0.80
81549213,0.28,-0.53,-0.80
81551208,0.28,-0.53,-0.80
81553209,0.28,-0.53,-0.80
81555205,0.26,-0.38,-0.72
81557206,0.26,-0.38,-0.72
81559208,0.26,-0.38,-0.72
81561224,0.26,-0.38,-0.72
81563215,0.26,-0.38,-0.72
81565223,0.23,-0.42,-0.75
81567253,0.23,-0.42,-0.75
81569249,0.23,-0.42,-0.75
81571247,0.23,-0.42,-0.75
81573245,0.23,-0.42,-0.75
81575263,0.18,-0.44,-1.02
81577264,0.18,-0.44,-1.02
81579252,0.18,-0.44,-1.02
81581212,0.18,-0.44,-1.02
81583213,0.18,-0.44,-1.02
81585208,0.16,-0.45,-1.35
81587207,0.16,-0.45,-1.35
81589216,0.16,-0.45,-1.35
81591314,0.16,-0.45,-1.35
81593217,0.16,-0.45,-1.35
81595208,0.14,-0.55,-1.40
81597207,0.14,-0.55,-1.40
81599212,0.14,-0.55,-1.40
81601206,0.14,-0.55,-1.40
81603202,0.14,-0.55,-1.40
81605206,0.13,-0.65,-1.23
81607254,0.13,-0.65,-1.23
81609249,0.13,-0.65,-1.23
81611249,0.13,-0.65,-1.23
81613248,0.13,-0.65,-1.23
81615261,0.14,-0.62,-1.12
81617248,0.14,-0.62,-1.12
81619208,0.14,-0.62,-1.12
81621214,0.14,-0.62,-1.12
81623211,0.14,-0.62,-1.12
81625210,0.14,-0.62,-1.12
81627209,0.16,-0.49,-1.13
81629252,0.16,-0.49,-1.13
81631214,0.16,-0.49,-1.13
81633208,0.16,-0.49,-1.13
81635208,0.16,-0.49,-1.13
81637207,0.19,-0.35,-1.05
81639209,0.19,-0.35,-1.05
81641296,0.19,-0.35,-1.05
81643213,0.19,-0.35,-1.05
81645213,0.19,-0.35,-1.05
81647271,0.19,-0.25,-0.82
81649255,0.19,-0.25,-0.82
81651255,0.19,-0.25,-0.82
81653253,0.19,-0.25,-0.82
81655250,0.19,-0.25,-0.82
81657248,0.19,-0.22,-0.63
81659285,0.19,-0.22,-0.63
81661231,0.19,-0.22,-0.63
81663188,0.19,-0.22,-0.63
81665184,0.19,-0.22,-0.63
81667192,0.16,-0.18,-0.74
81669184,0.16,-0.18,-0.74
81671185,0.16,-0.18,-0.74
81673183,0.16,-0.18,-0.74
81675185,0.16,-0.18,-0.74
81677185,0.15,-0.14,-0.98
81679185,0.15,-0.14,-0.98
81681183,0.15,-0.14,-0.98
81683184,0.15,-0.14,-0.98
81685183,0.15,-0.14,-0.98
81687184,0.12,-0.08,-1.04
81689183,0.12,-0.08,-1.04
81691193,0.12,-0.08,-1.04
81693185,0.12,-0.08,-1.04
81695185,0.12,-0.08,-1.04
81801291,-0.08,-0.23,-1.15
81803246,-0.08,-0.23,-1.15
81805244,-0.08,-0.23,-1.15
81807246,-0.08,-0.23,-1.15
81809251,-0.08,-0.23,-1.15
81811253,-0.07,-0.32,-1.11
81813244,-0.07,-0.32,-1.11
81815270,-0.07,-0.32,-1.11
81817203,-0.07,-0.32,-1.11
81819205,-0.07,-0.32,-1.11
81821206,-0.04,-0.39,-1.26
81823205,-0.04,-0.39,-1.26
81825206,-0.04,-0.39,-1.26
81827205,-0.04,-0.39,-1.26
81829206,-0.04,-0.39,-1.26
81831203,-0.01,-0.53,-1.41
81833205,-0.01,-0.53,-1.41
81835202,-0.01,-0.53,-1.41
81837203,-0.01,-0.53,-1.41
81839206,-0.01,-0.53,-1.41
81841251,0.05,-0.47,-1.37
81843244,0.05,-0.47,-1.37
81845273,0.05,-0.47,-1.37
81847263,0.05,-0.47,-1.37
81849247,0.05,-0.47,-1.37
81851250,0.15,-0.47,-1.39
81853246,0.15,-0.47,-1.39
81855222,0.15,-0.47,-1.39
81857204,0.15,-0.47,-1.39
81859206,0.15,-0.47,-1.39
81861221,0.27,-0.42,-1.41
81863204,0.27,-0.42,-1.41
81865228,0.27,-0.42,-1.41
81867210,0.27,-0.42,-1.41
81869206,0.27,-0.42,-1.41
81871203,0.27,-0.42,-1.41
81873203,0.40,-0.30,-1.25
81875216,0.40,-0.30,-1.25
81877345,0.40,-0.30,-1.25
81879235,0.40,-0.30,-1.25
81881260,0.40,-0.30,-1.25
81883247,0.48,-0.23,-1.02
81885245,0.48,-0.23,-1.02
81887243,0.48,-0.23,-1.02
81889241,0.48,-0.23,-1.02
81891267,0.48,-0.23,-1.02
81893217,0.53,-0.19,-0.88
81895273,0.53,-0.19,-0.88
81897234,0.53,-0.19,-0.88
81899205,0.53,-0.19,-0.88
81901202,0.53,-0.19,-0.88
81903203,0.54,-0.12,-0.80
81905209,0.54,-0.12,-0.80
81907256,0.54,-0.12,-0.80
81909203,0.54,-0.12,-0.80
81911203,0.54,-0.12,-0.80
81913202,0.53,-0.10,-0.75
81915225,0.53,-0.10,-0.75
81917208,0.53,-0.10,-0.75
81919203,0.53,-0.10,-0.75
81921266,0.53,-0.10,-0.75
81923250,0.46,-0.21,-0.71
81925245,0.46,-0.21,-0.71
81927248,0.46,-0.21,-0.71
81929252,0.46,-0.21,-0.71
81931307,0.46,-0.21,-0.71
81933263,0.36,-0.34,-0.77
81935271,0.36,-0.34,-0.77
81937248,0.36,-0.34,-0.77
81939207,0.36,-0.34,-0.77
81941242,0.36,-0.34,-0.77
81943204,0.27,-0.56,-1.03
81945206,0.27,-0.56,-1.03
81947245,0.27,-0.56,-1.03
81949202,0.27,-0.56,-1.03
81951204,0.27,-0.56,-1.03
81953194,0.21,-0.77,-1.21
81955204,0.21,-0.77,-1.21
81957228,0.21,-0.77,-1.21
81959322,0.21,-0.77,-1.21
81961274,0.21,-0.77,-1.21
81963246,0.21,-0.77,-1.21
81965271,0.19,-0.79,-1.17
81967246,0.19,-0.79,-1.17
81969244,0.19,-0.79,-1.17
81971244,0.19,-0.79,-1.17
81973245,0.19,-0.79,-1.17
81975207,0.22,-0.68,-1.03
81977206,0.22,-0.68,-1.03
81979207,0.22,-0.68,-1.03
81981205,0.22,-0.68,-1.03
81983205,0.22,-0.68,-1.03
81985206,0.27,-0.50,-0.89
81987215,0.27,-0.50,-0.89
81989206,0.27,-0.50,-0.89
81991306,0.27,-0.50,-0.89
81993207,0.27,-0.50,-0.89
81995205,0.32,-0.27,-0.75
81997202,0.32,-0.27,-0.75
81999205,0.32,-0.27,-0.75
82001254,0.32,-0.27,-0.75
82003245,0.32,-0.27,-0.75
82005246,0.36,-0.11,-0.65
82007247,0.36,-0.11,-0.65
82009246,0.36,-0.11,-0.65
82011245,0.36,-0.11,-0.65
82013204,0.36,-0.11,-0.65
82015215,0.39,-0.06,-0.64
82017209,0.39,-0.06,-0.64
82019203,0.39,-0.06,-0.64
82021204,0.39,-0.06,-0.64
82023203,0.39,-0.06,-0.64
82025204,0.38,-0.13,-0.67
82027206,0.38,-0.13,-0.67
82029206,0.38,-0.13,-0.67
82031207,0.38,-0.13,-0.67
82033210,0.38,-0.13,-0.67
82035207,0.35,-0.23,-0.63
82037220,0.35,-0.23,-0.63
82039205,0.35,-0.23,-0.63
82041328,0.35,-0.23,-0.63
82043248,0.35,-0.23,-0.63
82045249,0.35,-0.23,-0.63
82047283,0.33,-0.30,-0.58
82049251,0.33,-0.30,-0.58
82051260,0.33,-0.30,-0.58
82053257,0.33,-0.30,-0.58
82055214,0.33,-0.30,-0.58
82057206,0.31,-0.37,-0.55
82059214,0.31,-0.37,-0.55
82061222,0.31,-0.37,-0.55
82063204,0.31,-0.37,-0.55
82065225,0.31,-0.37,-0.55
82067210,0.29,-0.43,-0.65
82069205,0.29,-0.43,-0.65
82071205,0.29,-0.43,-0.65
82073203,0.29,-0.43,-0.65
82075204,0.29,-0.43,-0.65
82077204,0.26,-0.44,-0.81
82079203,0.26,-0.44,-0.81
82081250,0.26,-0.44,-0.81
82083248,0.26,-0.44,-0.81
82085247,0.26,-0.44,-0.81
82087245,0.26,-0.42,-0.89
82089249,0.26,-0.42,-0.89
82091250,0.26,-0.42,-0.89
82093205,0.26,-0.42,-0.89
82095204,0.26,-0.42,-0.89
82097205,0.29,-0.45,-0.82
82099208,0.29,-0.45,-0.82
82101203,0.29,-0.45,-0.82
82103205,0.29,-0.45,-0.82
82105204,0.29,-0.45,-0.82
82107206,0.32,-0.48,-0.70
82109211,0.32,-0.48,-0.70
82111205,0.32,-0.48,-0.70
82113207,0.32,-0.48,-0.70
82115212,0.32,-0.48,-0.70
82117213,0.31,-0.41,-0.57
82119210,0.31,-0.41,-0.57
82121251,0.31,-0.41,-0.57
82123248,0.31,-0.41,-0.57
82125249,0.31,-0.41,-0.57
82127247,0.31,-0.41,-0.57
82129247,0.29,-0.43,-0.60
82131245,0.29,-0.43,-0.60
82133210,0.29,-0.43,-0.60
82135211,0.29,-0.43,-0.60
82137206,0.29,-0.43,-0.60
82139205,0.26,-0.47,-0.66
82141225,0.26,-0.47,-0.66
82143210,0.26,-0.47,-0.66
82145214,0.26,-0.47,-0.66
82147242,0.26,-0.47,-0.66
82149194,0.24,-0.51,-0.78
82151195,0.24,-0.51,-0.78
82153202,0.24,-0.51,-0.78
82155206,0.24,-0.51,-0.78
82157203,0.24,-0.51,-0.78
82159207,0.19,-0.55,-0.94
82161258,0.19,-0.55,-0.94
82163247,0.19,-0.55,-0.94
82165275,0.19,-0.55,-0.94
82167185,0.19,-0.55,-0.94
82169181,0.18,-0.54,-1.16
82171181,0.18,-0.54,-1.16
82173182,0.18,-0.54,-1.16
82175181,0.18,-0.54,-1.16
82177182,0.18,-0.54,-1.16
82179182,0.20,-0.43,-1.32
82181182,0.20,-0.43,-1.32
82183189,0.20,-0.43,-1.32
82185180,0.20,-0.43,-1.32
82187185,0.20,-0.43,-1.32
82189185,0.25,-0.31,-1.19
82191188,0.25,-0.31,-1.19
82193181,0.25,-0.31,-1.19
82195182,0.25,-0.31,-1.19
82197181,0.25,-0.31,-1.19
82199182,0.29,-0.23,-0.95
82201182,0.29,-0.23,-0.95
82203182,0.29,-0.23,-0.95
82205182,0.29,-0.23,-0.95
82207182,0.29,-0.23,-0.95
82209181,0.29,-0.23,-0.95
82489278,0.17,-0.62,-1.64
82491264,0.17,-0.62,-1.64
82493250,0.17,-0.62,-1.64
82495251,0.17,-0.62,-1.64
82497247,0.18,-0.61,-1.53
82499250,0.18,-0.61,-1.53
82501251,0.18,-0.61,-1.53
82503264,0.18,-0.61,-1.53
82505264,0.18,-0.61,-1.53
82507245,0.20,-0.50,-1.55
82509205,0.20,-0.50,-1.55
82511205,0.20,-0.50,-1.55
82513203,0.20,-0.50,-1.55
82515228,0.20,-0.50,-1.55
82517207,0.20,-0.40,-1.42
82519203,0.20,-0.40,-1.42
82521234,0.20,-0.40,-1.42
82523276,0.20,-0.40,-1.42
82525227,0.20,-0.40,-1.42
82527204,0.21,-0.39,-1.10
82529264,0.21,-0.39,-1.10
82531246,0.21,-0.39,-1.10
82533245,0.21,-0.39,-1.10
82535249,0.21,-0.39,-1.10
82537248,0.21,-0.42,-0.82
82539246,0.21,-0.42,-0.82
82541301,0.21,-0.42,-0.82
82543242,0.21,-0.42,-0.82
82545206,0.21,-0.42,-0.82
82547246,0.21,-0.42,-0.82
82549204,0.18,-0.53,-0.75
82551248,0.18,-0.53,-0.75
82553208,0.18,-0.53,-0.75
82555205,0.18,-0.53,-0.75
82557203,0.18,-0.53,-0.75
82559206,0.20,-0.57,-0.78
82561268,0.20,-0.57,-0.78
82563235,0.20,-0.57,-0.78
82565229,0.20,-0.57,-0.78
82567205,0.20,-0.57,-0.78
82569275,0.23,-0.59,-0.81
82571251,0.23,-0.59,-0.81
82573249,0.23,-0.59,-0.81
82575249,0.23,-0.59,-0.81
82577252,0.23,-0.59,-0.81
82579277,0.25,-0.54,-0.75
82581261,0.25,-0.54,-0.75
82583242,0.25,-0.54,-0.75
82585202,0.25,-0.54,-0.75
82587215,0.25,-0.54,-0.75
82589282,0.29,-0.43,-0.67
82591255,0.29,-0.43,-0.67
82593203,0.29,-0.43,-0.67
82595194,0.29,-0.43,-0.67
82597211,0.29,-0.43,-0.67
82599254,0.30,-0.32,-0.59
82601204,0.30,-0.32,-0.59
82603195,0.30,-0.32,-0.59
82605204,0.30,-0.32,-0.59
82607194,0.30,-0.32,-0.59
82609268,0.32,-0.27,-0.54
82611246,0.32,-0.27,-0.54
82613246,0.32,-0.27,-0.54
82615276,0.32,-0.27,-0.54
82617248,0.32,-0.27,-0.54
82619246,0.34,-0.17,-0.50
82621245,0.34,-0.17,-0.50
82623207,0.34,-0.17,-0.50
82625204,0.34,-0.17,-0.50
82627204,0.34,-0.17,-0.50
82629203,0.34,-0.17,-0.50
82631206,0.36,-0.27,-0.53
82633205,0.36,-0.27,-0.53
82635234,0.36,-0.27,-0.53
82637274,0.36,-0.27,-0.53
82639225,0.36,-0.27,-0.53
82641242,0.37,-0.33,-0.55
82643204,0.37,-0.33,-0.55
82645204,0.37,-0.33,-0.55
82647245,0.37,-0.33,-0.55
82649263,0.37,-0.33,-0.55
82651246,0.37,-0.41,-0.59
82653244,0.37,-0.41,-0.59
82655246,0.37,-0.41,-0.59
82657247,0.37,-0.41,-0.59
82659252,0.37,-0.41,-0.59
82661220,0.36,-0.49,-0.66
82663206,0.36,-0.49,-0.66
82665220,0.36,-0.49,-0.66
82667206,0.36,-0.49,-0.66
82669205,0.36,-0.49,-0.66
82671207,0.36,-0.47,-0.73
82673203,0.36,-0.47,-0.73
82675206,0.36,-0.47,-0.73
82677206,0.36,-0.47,-0.73
82679205,0.36,-0.47,-0.73
82681203,0.36,-0.51,-0.90
82683206,0.36,-0.51,-0.90
82685203,0.36,-0.51,-0.90
82687204,0.36,-0.51,-0.90
82689254,0.36,-0.51,-0.90
82691256,0.39,-0.48,-1.02
82693247,0.39,-0.48,-1.02
82695249,0.39,-0.48,-1.02
82697247,0.39,-0.48,-1.02
82699243,0.39,-0.48,-1.02
82701211,0.45,-0.51,-1.06
82703205,0.45,-0.51,-1.06
82705204,0.45,-0.51,-1.06
82707209,0.45,-0.51,-1.06
82709205,0.45,-0.51,-1.06
82711208,0.45,-0.51,-1.06
82713208,0.48,-0.54,-1.05
82715213,0.48,-0.54,-1.05
82717208,0.48,-0.54,-1.05
82719203,0.48,-0.54,-1.05
82721207,0.48,-0.54,-1.05
82723202,0.41,-0.50,-0.97
82725206,0.41,-0.50,-0.97
82727204,0.41,-0.50,-0.97
82729252,0.41,-0.50,-0.97
82731247,0.41,-0.50,-0.97
82733245,0.31,-0.48,-0.96
82735247,0.31,-0.48,-0.96
82737260,0.31,-0.48,-0.96
82739274,0.31,-0.48,-0.96
82741259,0.31,-0.48,-0.96
82743206,0.20,-0.64,-1.20
82745204,0.20,-0.64,-1.20
82747243,0.20,-0.64,-1.20
82749204,0.20,-0.64,-1.20
82751203,0.20,-0.64,-1.20
82753194,0.11,-0.75,-1.66
82755203,0.11,-0.75,-1.66
82757194,0.11,-0.75,-1.66
82759206,0.11,-0.75,-1.66
82761224,0.11,-0.75,-1.66
82763207,0.09,-0.75,-2.00
82765215,0.09,-0.75,-2.00
82767208,0.09,-0.75,-2.00
82769253,0.09,-0.75,-2.00
82771246,0.09,-0.75,-2.00
82773246,0.13,-0.57,-1.94
82775306,0.13,-0.57,-1.94
82777250,0.13,-0.57,-1.94
82779246,0.13,-0.57,-1.94
82781205,0.13,-0.57,-1.94
82783209,0.18,-0.42,-1.78
82785207,0.18,-0.42,-1.78
82787221,0.18,-0.42,-1.78
82789203,0.18,-0.42,-1.78
82791306,0.18,-0.42,-1.78
82793210,0.18,-0.42,-1.78
82795204,0.24,-0.30,-1.73
82797204,0.24,-0.30,-1.73
82799203,0.24,-0.30,-1.73
82801207,0.24,-0.30,-1.73
82803205,0.24,-0.30,-1.73
82805203,0.31,-0.18,-1.47
82807205,0.31,-0.18,-1.47
82809255,0.31,-0.18,-1.47
82811255,0.31,-0.18,-1.47
82813244,0.31,-0.18,-1.47
82815258,0.37,-0.13,-1.07
82817260,0.37,-0.13,-1.07
82819183,0.37,-0.13,-1.07
82821183,0.37,-0.13,-1.07
82823181,0.37,-0.13,-1.07
82825182,0.37,-0.14,-0.76
82827182,0.37,-0.14,-0.76
82829185,0.37,-0.14,-0.76
82831182,0.37,-0.14,-0.76
82833183,0.37,-0.14,-0.76
82835181,0.34,-0.21,-0.69
82837182,0.34,-0.21,-0.69
82839190,0.34,-0.21,-0.69
82841294,0.34,-0.21,-0.69
82843182,0.34,-0.21,-0.69
82845182,0.29,-0.25,-0.77
82847235,0.29,-0.25,-0.77
82849180,0.29,-0.25,-0.77
82851181,0.29,-0.25,-0.77
82853182,0.29,-0.25,-0.77
82855182,0.22,-0.30,-0.77
82857181,0.22,-0.30,-0.77
82943274,0.07,0.26,-0.52
82945249,0.07,0.26,-0.52
82947254,0.08,0.38,-0.58
82949245,0.08,0.38,-0.58
82951280,0.08,0.38,-0.58
82953275,0.08,0.38,-0.58
82955247,0.08,0.38,-0.58
82957249,0.08,0.38,-0.58
82959248,0.06,0.36,-0.58
82961243,0.06,0.36,-0.58
82963205,0.06,0.36,-0.58
82965225,0.06,0.36,-0.58
82967204,0.06,0.36,-0.58
82969208,0.05,0.30,-0.60
82971202,0.05,0.30,-0.60
82973254,0.05,0.30,-0.60
82975278,0.05,0.30,-0.60
82977207,0.05,0.30,-0.60
82979203,0.08,0.25,-0.68
82981203,0.08,0.25,-0.68
82983261,0.08,0.25,-0.68
82985245,0.08,0.25,-0.68
82987248,0.08,0.25,-0.68
82989248,0.09,0.17,-0.70
82991265,0.09,0.17,-0.70
82993243,0.09,0.17,-0.70
82995203,0.09,0.17,-0.70
82997206,0.09,0.17,-0.70
82999206,0.12,0.17,-0.64
83001206,0.12,0.17,-0.64
83003204,0.12,0.17,-0.64
83005209,0.12,0.17,-0.64
83007206,0.12,0.17,-0.64
83009207,0.16,0.10,-0.64
83011204,0.16,0.10,-0.64
83013204,0.16,0.10,-0.64
83015213,0.16,0.10,-0.64
83017205,0.16,0.10,-0.64
83019205,0.14,0.01,-0.73
83021208,0.14,0.01,-0.73
83023245,0.14,0.01,-0.73
83025246,0.14,0.01,-0.73
83027243,0.14,0.01,-0.73
83029247,0.11,0.02,-0.86
83031245,0.11,0.02,-0.86
83033244,0.11,0.02,-0.86
83035217,0.11,0.02,-0.86
83037224,0.11,0.02,-0.86
83039206,0.11,0.02,-0.86
83041220,0.09,0.05,-0.95
83043205,0.09,0.05,-0.95
83045208,0.09,0.05,-0.95
83047234,0.09,0.05,-0.95
83049207,0.09,0.05,-0.95
83051205,0.14,-0.06,-0.98
83053201,0.14,-0.06,-0.98
83055203,0.14,-0.06,-0.98
83057203,0.14,-0.06,-0.98
83059206,0.14,-0.06,-0.98
83061222,0.13,-0.21,-0.93
83063252,0.13,-0.21,-0.93
83065261,0.13,-0.21,-0.93
83067248,0.13,-0.21,-0.93
83069247,0.13,-0.21,-0.93
83071244,0.11,-0.26,-0.94
83073265,0.11,-0.26,-0.94
83075250,0.11,-0.26,-0.94
83077207,0.11,-0.26,-0.94
83079205,0.11,-0.26,-0.94
83081203,0.10,-0.37,-1.10
83083204,0.10,-0.37,-1.10
83085206,0.10,-0.37,-1.10
83087204,0.10,-0.37,-1.10
83089205,0.10,-0.37,-1.10
83091232,0.08,-0.40,-1.17
83093210,0.08,-0.40,-1.17
83095206,0.08,-0.40,-1.17
83097204,0.08,-0.40,-1.17
83099204,0.08,-0.40,-1.17
83101215,0.07,-0.40,-1.16
83103249,0.07,-0.40,-1.16
83105247,0.07,-0.40,-1.16
83107243,0.07,-0.40,-1.16
83109245,0.07,-0.40,-1.16
83111244,0.11,-0.48,-1.23
83113243,0.11,-0.48,-1.23
83115220,0.11,-0.48,-1.23
83117203,0.11,-0.48,-1.23
83119210,0.11,-0.48,-1.23
83121206,0.11,-0.48,-1.23
83123207,0.20,-0.42,-1.27
83125208,0.20,-0.42,-1.27
83127205,0.20,-0.42,-1.27
83129207,0.20,-0.42,-1.27
83131208,0.20,-0.42,-1.27
83133207,0.28,-0.31,-1.07
83135204,0.28,-0.31,-1.07
83137206,0.28,-0.31,-1.07
83139210,0.28,-0.31,-1.07
83141220,0.28,-0.31,-1.07
83143251,0.33,-0.25,-0.81
83145247,0.33,-0.25,-0.81
83147262,0.33,-0.25,-0.81
83149242,0.33,-0.25,-0.81
83151243,0.33,-0.25,-0.81
83153245,0.35,-0.17,-0.71
83155211,0.35,-0.17,-0.71
83157209,0.35,-0.17,-0.71
83159208,0.35,-0.17,-0.71
83161223,0.35,-0.17,-0.71
83163212,0.32,-0.09,-0.74
83165241,0.32,-0.09,-0.74
83167207,0.32,-0.09,-0.74
83169204,0.32,-0.09,-0.74
83171205,0.32,-0.09,-0.74
83173205,0.28,-0.08,-0.71
83175205,0.28,-0.08,-0.71
83177204,0.28,-0.08,-0.71
83179207,0.28,-0.08,-0.71
83181204,0.28,-0.08,-0.71
83183251,0.22,-0.20,-0.65
83185355,0.22,-0.20,-0.65
83187230,0.22,-0.20,-0.65
83189182,0.22,-0.20,-0.65
83191213,0.22,-0.20,-0.65
83193181,0.17,-0.36,-0.70
83195181,0.17,-0.36,-0.70
83197182,0.17,-0.36,-0.70
83199181,0.17,-0.36,-0.70
83201182,0.17,-0.36,-0.70
83203183,0.17,-0.36,-0.70
83205184,0.16,-0.48,-0.81
83207182,0.16,-0.48,-0.81
83209181,0.16,-0.48,-0.81
83211182,0.16,-0.48,-0.81
83213182,0.16,-0.48,-0.81
83215185,0.17,-0.58,-0.85
83217185,0.17,-0.58,-0.85
83219182,0.17,-0.58,-0.85
83221182,0.17,-0.58,-0.85
83223181,0.17,-0.58,-0.85
83225183,0.22,-0.62,-0.78
83227182,0.22,-0.62,-0.78
83229182,0.22,-0.62,-0.78
83231190,0.22,-0.62,-0.78
83409280,0.11,-0.42,-1.36
83411251,0.11,-0.42,-1.36
83413246,0.11,-0.42,-1.36
83415275,0.11,-0.42,-1.36
83417246,0.11,-0.42,-1.36
83419249,0.11,-0.44,-1.79
83421248,0.11,-0.44,-1.79
83423215,0.11,-0.44,-1.79
83425210,0.11,-0.44,-1.79
83427212,0.11,-0.44,-1.79
83429216,0.16,-0.37,-1.73
83431212,0.16,-0.37,-1.73
83433208,0.16,-0.37,-1.73
83435214,0.16,-0.37,-1.73
83437212,0.16,-0.37,-1.73
83439215,0.21,-0.31,-1.32
83441228,0.21,-0.31,-1.32
83443208,0.21,-0.31,-1.32
83445215,0.21,-0.31,-1.32
83447239,0.21,-0.31,-1.32
83449257,0.27,-0.24,-1.05
83451248,0.27,-0.24,-1.05
83453248,0.27,-0.24,-1.05
83455252,0.27,-0.24,-1.05
83457257,0.27,-0.24,-1.05
83459277,0.27,-0.24,-1.05
83461256,0.31,-0.07,-0.95
83463233,0.31,-0.07,-0.95
83465229,0.31,-0.07,-0.95
83467209,0.31,-0.07,-0.95
83469206,0.31,-0.07,-0.95
83471205,0.32,-0.06,-0.83
83473204,0.32,-0.06,-0.83
83475212,0.32,-0.06,-0.83
83477206,0.32,-0.06,-0.83
83479206,0.32,-0.06,-0.83
83481205,0.28,-0.20,-0.68
83483207,0.28,-0.20,-0.68
83485206,0.28,-0.20,-0.68
83487207,0.28,-0.20,-0.68
83489252,0.28,-0.20,-0.68
83491318,0.22,-0.30,-0.63
83493235,0.22,-0.30,-0.63
83495182,0.22,-0.30,-0.63
83497186,0.22,-0.30,-0.63
83499184,0.22,-0.30,-0.63
83501185,0.14,-0.42,-0.80
83503184,0.14,-0.42,-0.80
83505186,0.14,-0.42,-0.80
83507187,0.14,-0.42,-0.80
83509184,0.14,-0.42,-0.80
83511185,0.09,-0.44,-0.90
83513184,0.09,-0.44,-0.90
83515185,0.09,-0.44,-0.90
83517189,0.09,-0.44,-0.90
83519182,0.09,-0.44,-0.90
83521186,0.06,-0.44,-0.81
83523183,0.06,-0.44,-0.81
83525183,0.06,-0.44,-0.81
83527182,0.06,-0.44,-0.81
83529184,0.06,-0.44,-0.81
83531184,0.05,-0.41,-0.71
83533184,0.05,-0.41,-0.71
83535184,0.05,-0.41,-0.71
83537241,0.05,-0.41,-0.71
83619286,0.11,-0.03,-0.72
83621266,0.11,-0.03,-0.72
83623269,0.11,-0.03,-0.72
83625249,0.05,-0.20,-0.91
83627247,0.05,-0.20,-0.91
83629251,0.05,-0.20,-0.91
83631249,0.05,-0.20,-0.91
83633276,0.05,-0.20,-0.91
83635280,0.02,-0.22,-1.11
83637249,0.02,-0.22,-1.11
83639210,0.02,-0.22,-1.11
83641314,0.02,-0.22,-1.11
83643209,0.02,-0.22,-1.11
83645275,-0.02,-0.10,-1.22
83647247,-0.02,-0.10,-1.22
83649209,-0.02,-0.10,-1.22
83651208,-0.02,-0.10,-1.22
83653212,-0.02,-0.10,-1.22
83655219,-0.02,0.03,-1.37
83657255,-0.02,0.03,-1.37
83659292,-0.02,0.03,-1.37
83661276,-0.02,0.03,-1.37
83663250,-0.02,0.03,-1.37
83665347,-0.04,0.14,-1.37
83667254,-0.04,0.14,-1.37
83669244,-0.04,0.14,-1.37
83671245,-0.04,0.14,-1.37
83673252,-0.04,0.14,-1.37
83675251,-0.03,0.09,-1.18
83677206,-0.03,0.09,-1.18
83679204,-0.03,0.09,-1.18
83681210,-0.03,0.09,-1.18
83683205,-0.03,0.09,-1.18
83685203,0.00,-0.13,-1.02
83687206,0.00,-0.13,-1.02
83689218,0.00,-0.13,-1.02
83691406,0.00,-0.13,-1.02
83693227,0.00,-0.13,-1.02
83695202,0.00,-0.29,-0.96
83697194,0.00,-0.29,-0.96
83699261,0.00,-0.29,-0.96
83701271,0.00,-0.29,-0.96
83703266,0.00,-0.29,-0.96
83705262,0.00,-0.29,-0.96
83707242,-0.01,-0.43,-1.04
83709244,-0.01,-0.43,-1.04
83711283,-0.01,-0.43,-1.04
83713264,-0.01,-0.43,-1.04
83715344,-0.01,-0.43,-1.04
83717215,-0.04,-0.45,-1.15
83719237,-0.04,-0.45,-1.15
83721294,-0.04,-0.45,-1.15
83723228,-0.04,-0.45,-1.15
83725203,-0.04,-0.45,-1.15
83727204,-0.05,-0.42,-1.23
83729203,-0.05,-0.42,-1.23
83731204,-0.05,-0.42,-1.23
83733202,-0.05,-0.42,-1.23
83735203,-0.05,-0.42,-1.23
83737194,-0.03,-0.52,-1.38
83739258,-0.03,-0.52,-1.38
83741349,-0.03,-0.52,-1.38
83743246,-0.03,-0.52,-1.38
83745250,-0.03,-0.52,-1.38
83747263,0.02,-0.60,-1.48
83749248,0.02,-0.60,-1.48
83751244,0.02,-0.60,-1.48
83753204,0.02,-0.60,-1.48
83755213,0.02,-0.60,-1.48
83757213,0.09,-0.62,-1.34
83759214,0.09,-0.62,-1.34
83761227,0.09,-0.62,-1.34
83763210,0.09,-0.62,-1.34
83765288,0.09,-0.62,-1.34
83767215,0.15,-0.60,-1.09
83769204,0.15,-0.60,-1.09
83771206,0.15,-0.60,-1.09
83773207,0.15,-0.60,-1.09
83775281,0.15,-0.60,-1.09
83777243,0.20,-0.56,-0.92
83779253,0.20,-0.56,-0.92
83781245,0.20,-0.56,-0.92
83783245,0.20,-0.56,-0.92
83785248,0.20,-0.56,-0.92
83787249,0.20,-0.56,-0.92
83789244,0.20,-0.43,-0.83
83791302,0.20,-0.43,-0.83
83793250,0.20,-0.43,-0.83
83795225,0.20,-0.43,-0.83
83797211,0.20,-0.43,-0.83
83799203,0.20,-0.35,-0.80
83801205,0.20,-0.35,-0.80
83803202,0.20,-0.35,-0.80
83805253,0.20,-0.35,-0.80
83807264,0.20,-0.35,-0.80
83809232,0.19,-0.34,-0.76
83811223,0.19,-0.34,-0.76
83813202,0.19,-0.34,-0.76
83815295,0.19,-0.34,-0.76
83817217,0.19,-0.34,-0.76
83819262,0.16,-0.37,-0.65
83821250,0.16,-0.37,-0.65
83823244,0.16,-0.37,-0.65
83825245,0.16,-0.37,-0.65
83827244,0.16,-0.37,-0.65
83829243,0.14,-0.40,-0.55
83831209,0.14,-0.40,-0.55
83833205,0.14,-0.40,-0.55
83835209,0.14,-0.40,-0.55
83837206,0.14,-0.40,-0.55
83839204,0.12,-0.47,-0.55
83841284,0.12,-0.47,-0.55
83843206,0.12,-0.47,-0.55
83845207,0.12,-0.47,-0.55
83847247,0.12,-0.47,-0.55
83849331,0.14,-0.54,-0.62
83851236,0.14,-0.54,-0.62
83853207,0.14,-0.54,-0.62
83855204,0.14,-0.54,-0.62
83857206,0.14,-0.54,-0.62
83859289,0.17,-0.50,-0.60
83861276,0.17,-0.50,-0.60
83863249,0.17,-0.50,-0.60
83865346,0.17,-0.50,-0.60
83867250,0.17,-0.50,-0.60
83869248,0.17,-0.50,-0.60
83871251,0.19,-0.47,-0.61
83873297,0.19,-0.47,-0.61
83875267,0.19,-0.47,-0.61
83877218,0.19,-0.47,-0.61
83879210,0.19,-0.47,-0.61
83881241,0.25,-0.31,-0.69
83883207,0.25,-0.31,-0.69
83885206,0.25,-0.31,-0.69
83887211,0.25,-0.31,-0.69
83889205,0.25,-0.31,-0.69
83891309,0.29,-0.13,-0.73
83893207,0.29,-0.13,-0.73
83895204,0.29,-0.13,-0.73
83897329,0.29,-0.13,-0.73
83899277,0.29,-0.13,-0.73
83901245,0.31,-0.09,-0.75
83903246,0.31,-0.09,-0.75
83905278,0.31,-0.09,-0.75
83907275,0.31,-0.09,-0.75
83909248,0.31,-0.09,-0.75
83911246,0.35,-0.08,-0.70
83913242,0.35,-0.08,-0.70
83915368,0.35,-0.08,-0.70
83917252,0.35,-0.08,-0.70
83919203,0.35,-0.08,-0.70
83921204,0.37,-0.19,-0.57
83923203,0.37,-0.19,-0.57
83925256,0.37,-0.19,-0.57
83927202,0.37,-0.19,-0.57
83929194,0.37,-0.19,-0.57
83931202,0.37,-0.24,-0.50
83933203,0.37,-0.24,-0.50
83935206,0.37,-0.24,-0.50
83937202,0.37,-0.24,-0.50
83939272,0.37,-0.24,-0.50
83941348,0.36,-0.23,-0.61
83943247,0.36,-0.23,-0.61
83945248,0.36,-0.23,-0.61
83947274,0.36,-0.23,-0.61
83949248,0.36,-0.23,-0.61
83951250,0.36,-0.23,-0.61
83953333,0.34,-0.26,-0.83
83955235,0.34,-0.26,-0.83
83957223,0.34,-0.26,-0.83
83959205,0.34,-0.26,-0.83
83961219,0.34,-0.26,-0.83
83963201,0.30,-0.30,-1.02
83965300,0.30,-0.30,-1.02
83967218,0.30,-0.30,-1.02
83969211,0.30,-0.30,-1.02
83971203,0.30,-0.30,-1.02
83973202,0.29,-0.35,-1.08
83975205,0.29,-0.35,-1.08
83977260,0.29,-0.35,-1.08
83979284,0.29,-0.35,-1.08
83981265,0.29,-0.35,-1.08
83983267,0.31,-0.40,-1.07
83985252,0.31,-0.40,-1.07
83987267,0.31,-0.40,-1.07
83989271,0.31,-0.40,-1.07
83991346,0.31,-0.40,-1.07
83993271,0.33,-0.48,-0.97
83995279,0.33,-0.48,-0.97
83997268,0.33,-0.48,-0.97
83999244,0.33,-0.48,-0.97
84001207,0.33,-0.48,-0.97
84003207,0.30,-0.48,-0.82
84005218,0.30,-0.48,-0.82
84007290,0.30,-0.48,-0.82
84009227,0.30,-0.48,-0.82
84011206,0.30,-0.48,-0.82
84013202,0.23,-0.52,-0.86
84015318,0.23,-0.52,-0.86
84017261,0.23,-0.52,-0.86
84019269,0.23,-0.52,-0.86
84021253,0.23,-0.52,-0.86
84023248,0.16,-0.55,-1.03
84025247,0.16,-0.55,-1.03
84027246,0.16,-0.55,-1.03
84029250,0.16,-0.55,-1.03
84031245,0.16,-0.55,-1.03
84033213,0.16,-0.55,-1.03
84035214,0.07,-0.59,-1.23
84037217,0.07,-0.59,-1.23
84039204,0.07,-0.59,-1.23
84041309,0.07,-0.59,-1.23
84043211,0.07,-0.59,-1.23
84045206,-0.01,-0.63,-1.63
84047244,-0.01,-0.63,-1.63
84049204,-0.01,-0.63,-1.63
84051207,-0.01,-0.63,-1.63
84053194,-0.01,-0.63,-1.63
84055202,-0.01,-0.62,-2.00
84057206,-0.01,-0.62,-2.00
84059259,-0.01,-0.62,-2.00
84061254,-0.01,-0.62,-2.00
84063247,-0.01,-0.62,-2.00
84065335,0.07,-0.54,-2.00
84067252,0.07,-0.54,-2.00
84069246,0.07,-0.54,-2.00
84071204,0.07,-0.54,-2.00
84073205,0.07,-0.54,-2.00
84075210,0.16,-0.39,-1.70
84077210,0.16,-0.39,-1.70
84079203,0.16,-0.39,-1.70
84081204,0.16,-0.39,-1.70
84083211,0.16,-0.39,-1.70
84085205,0.23,-0.32,-1.55
84087211,0.23,-0.32,-1.55
84089211,0.23,-0.32,-1.55
84091290,0.23,-0.32,-1.55
84093207,0.23,-0.32,-1.55
84095206,0.29,-0.26,-1.52
84097205,0.29,-0.26,-1.52
84099251,0.29,-0.26,-1.52
84101247,0.29,-0.26,-1.52
84103243,0.29,-0.26,-1.52
84105274,0.34,-0.19,-1.30
84107268,0.34,-0.19,-1.30
84109264,0.34,-0.19,-1.30
84111250,0.34,-0.19,-1.30
84113205,0.34,-0.19,-1.30
84115298,0.34,-0.24,-1.10
84117220,0.34,-0.24,-1.10
84119210,0.34,-0.24,-1.10
84121207,0.34,-0.24,-1.10
84123206,0.34,-0.24,-1.10
84125205,0.34,-0.24,-1.10
84127228,0.34,-0.27,-1.03
84129246,0.34,-0.27,-1.03
84131204,0.34,-0.27,-1.03
84133204,0.34,-0.27,-1.03
84135205,0.34,-0.27,-1.03
84137203,0.32,-0.31,-1.04
84139250,0.32,-0.31,-1.04
84141326,0.32,-0.31,-1.04
84143251,0.32,-0.31,-1.04
84145247,0.32,-0.31,-1.04
84147266,0.30,-0.34,-0.88
84149252,0.30,-0.34,-0.88
84151233,0.30,-0.34,-0.88
84153203,0.30,-0.34,-0.88
84155203,0.30,-0.34,-0.88
84157205,0.28,-0.30,-0.57
84159209,0.28,-0.30,-0.57
84161221,0.28,-0.30,-0.57
84163203,0.28,-0.30,-0.57
84165288,0.28,-0.30,-0.57
84167217,0.25,-0.30,-0.35
84169209,0.25,-0.30,-0.35
84171207,0.25,-0.30,-0.35
84173207,0.25,-0.30,-0.35
84175205,0.25,-0.30,-0.35
84177205,0.22,-0.28,-0.26
84179249,0.22,-0.28,-0.26
84181250,0.22,-0.28,-0.26
84183248,0.22,-0.28,-0.26
84185249,0.22,-0.28,-0.26
84187251,0.17,-0.28,-0.35
84189247,0.17,-0.28,-0.35
84191292,0.17,-0.28,-0.35
84193205,0.17,-0.28,-0.35
84195202,0.17,-0.28,-0.35
84197205,0.13,-0.31,-0.50
84199206,0.13,-0.31,-0.50
84201207,0.13,-0.31,-0.50
84203206,0.13,-0.31,-0.50
84205205,0.13,-0.31,-0.50
84207204,0.13,-0.31,-0.50
84209204,0.11,-0.29,-0.59
84211205,0.11,-0.29,-0.59
84213205,0.11,-0.29,-0.59
84215282,0.11,-0.29,-0.59
84217204,0.11,-0.29,-0.59
84219251,0.12,-0.23,-0.61
84221250,0.12,-0.23,-0.61
84223246,0.12,-0.23,-0.61
84225265,0.12,-0.23,-0.61
84227184,0.12,-0.23,-0.61
84229183,0.14,-0.11,-0.58
84231183,0.14,-0.11,-0.58
84233179,0.14,-0.11,-0.58
84235183,0.14,-0.11,-0.58
84237187,0.14,-0.11,-0.58
84239181,0.19,-0.09,-0.60
84241288,0.19,-0.09,-0.60
84243182,0.19,-0.09,-0.60
84245183,0.19,-0.09,-0.60
84247233,0.19,-0.09,-0.60
84249181,0.22,-0.06,-0.52
84251183,0.22,-0.06,-0.52
84253182,0.22,-0.06,-0.52
84255183,0.22,-0.06,-0.52
84257183,0.22,-0.06,-0.52
84259183,0.25,-0.07,-0.45
84261212,0.25,-0.07,-0.45
84263184,0.25,-0.07,-0.45
84265185,0.25,-0.07,-0.45
84267193,0.25,-0.07,-0.45
84273267,0.28,-0.12,-0.48
84275246,0.28,-0.12,-0.48
84277245,0.28,-0.12,-0.48
84279245,0.30,-0.16,-0.59
84281258,0.30,-0.16,-0.59
84283266,0.30,-0.16,-0.59
84285262,0.30,-0.16,-0.59
84287249,0.30,-0.16,-0.59
84289245,0.30,-0.16,-0.59
84291342,0.30,-0.33,-0.83
84293243,0.30,-0.33,-0.83
84295210,0.30,-0.33,-0.83
84297276,0.30,-0.33,-0.83
84299227,0.30,-0.33,-0.83
84301204,0.27,-0.54,-1.13
84303207,0.27,-0.54,-1.13
84305194,0.27,-0.54,-1.13
84307194,0.27,-0.54,-1.13
84309202,0.27,-0.54,-1.13
84311203,0.25,-0.66,-1.27
84313267,0.25,-0.66,-1.27
84315356,0.25,-0.66,-1.27
84317267,0.25,-0.66,-1.27
84319250,0.25,-0.66,-1.27
84321247,0.26,-0.68,-1.23
84323244,0.26,-0.68,-1.23
84325246,0.26,-0.68,-1.23
84327242,0.26,-0.68,-1.23
84329209,0.26,-0.68,-1.23
84331204,0.26,-0.54,-1.12
84333203,0.26,-0.54,-1.12
84335204,0.26,-0.54,-1.12
84337229,0.26,-0.54,-1.12
84339203,0.26,-0.54,-1.12
84341294,0.36,-0.39,-1.05
84343206,0.36,-0.39,-1.05
84345213,0.36,-0.39,-1.05
84347248,0.36,-0.39,-1.05
84349205,0.36,-0.39,-1.05
84351204,0.40,-0.38,-0.89
84353257,0.40,-0.38,-0.89
84355244,0.40,-0.38,-0.89
84357248,0.40,-0.38,-0.89
84359250,0.40,-0.38,-0.89
84361251,0.35,-0.26,-0.60
84363243,0.35,-0.26,-0.60
84365296,0.35,-0.26,-0.60
84367213,0.35,-0.26,-0.60
84369207,0.35,-0.26,-0.60
84371203,0.35,-0.26,-0.60
84373206,0.24,-0.23,-0.63
84375204,0.24,-0.23,-0.63
84377204,0.24,-0.23,-0.63
84379205,0.24,-0.23,-0.63
84381211,0.24,-0.23,-0.63
84383205,0.12,-0.33,-1.20
84385205,0.12,-0.33,-1.20
84387205,0.12,-0.33,-1.20
84389207,0.12,-0.33,-1.20
84391324,0.12,-0.33,-1.20
84393277,0.04,-0.46,-1.62
84395266,0.04,-0.46,-1.62
84397250,0.04,-0.46,-1.62
84399248,0.04,-0.46,-1.62
84401247,0.04,-0.46,-1.62
84403246,-0.01,-0.70,-1.43
84405253,-0.01,-0.70,-1.43
84407259,-0.01,-0.70,-1.43
84409268,-0.01,-0.70,-1.43
84411238,-0.01,-0.70,-1.43
84413203,-0.03,-0.82,-1.26
84415303,-0.03,-0.82,-1.26
84417220,-0.03,-0.82,-1.26
84419207,-0.03,-0.82,-1.26
84421205,-0.03,-0.82,-1.26
84423202,0.00,-0.78,-1.38
84425208,0.00,-0.78,-1.38
84427206,0.00,-0.78,-1.38
84429205,0.00,-0.78,-1.38
84431205,0.00,-0.78,-1.38
84433208,0.06,-0.67,-1.46
84435261,0.06,-0.67,-1.46
84437251,0.06,-0.67,-1.46
84439246,0.06,-0.67,-1.46
84441326,0.06,-0.67,-1.46
84443292,0.14,-0.57,-1.20
84445267,0.14,-0.57,-1.20
84447270,0.14,-0.57,-1.20
84449243,0.14,-0.57,-1.20
84451216,0.14,-0.57,-1.20
84453229,0.14,-0.57,-1.20
84455275,0.22,-0.44,-0.86
84457229,0.22,-0.44,-0.86
84459208,0.22,-0.44,-0.86
84461223,0.22,-0.44,-0.86
84463253,0.22,-0.44,-0.86
84465302,0.28,-0.11,-0.61
84467216,0.28,-0.11,-0.61
84469202,0.28,-0.11,-0.61
84471202,0.28,-0.11,-0.61
84473203,0.28,-0.11,-0.61
84475271,0.31,0.04,-0.66
84477247,0.31,0.04,-0.66
84479248,0.31,0.04,-0.66
84481249,0.31,0.04,-0.66
84483246,0.31,0.04,-0.66
84485247,0.27,-0.12,-0.74
84487243,0.27,-0.12,-0.74
84489220,0.27,-0.12,-0.74
84491415,0.27,-0.12,-0.74
84493233,0.27,-0.12,-0.74
84495243,0.24,-0.14,-0.59
84497205,0.24,-0.14,-0.59
84499202,0.24,-0.14,-0.59
84501195,0.24,-0.14,-0.59
84503202,0.24,-0.14,-0.59
84505195,0.24,-0.19,-0.50
84507195,0.24,-0.19,-0.50
84509195,0.24,-0.19,-0.50
84511203,0.24,-0.19,-0.50
84513203,0.24,-0.19,-0.50
84515348,0.24,-0.27,-0.55
84517271,0.24,-0.27,-0.55
84519276,0.24,-0.27,-0.55
84521256,0.24,-0.27,-0.55
84523248,0.24,-0.27,-0.55
84525248,0.26,-0.27,-0.59
84527249,0.26,-0.27,-0.59
84529242,0.26,-0.27,-0.59
84531205,0.26,-0.27,-0.59
84533205,0.26,-0.27,-0.59
84535206,0.26,-0.27,-0.59
84537215,0.28,-0.23,-0.46
84539204,0.28,-0.23,-0.46
84541317,0.28,-0.23,-0.46
84543214,0.28,-0.23,-0.46
84545209,0.28,-0.23,-0.46
84547248,0.30,-0.17,-0.26
84549203,0.30,-0.17,-0.26
84551203,0.30,-0.17,-0.26
84553203,0.30,-0.17,-0.26
84555252,0.30,-0.17,-0.26
84557244,0.32,-0.12,-0.12
84559247,0.32,-0.12,-0.12
84561253,0.32,-0.12,-0.12
84563243,0.32,-0.12,-0.12
84565330,0.32,-0.12,-0.12
84567212,0.32,-0.16,-0.18
84569206,0.32,-0.16,-0.18
84571204,0.32,-0.16,-0.18
84573205,0.32,-0.16,-0.18
84575204,0.32,-0.16,-0.18
84577206,0.31,-0.10,-0.29
84579212,0.31,-0.10,-0.29
84581206,0.31,-0.10,-0.29
84583204,0.31,-0.10,-0.29
84585204,0.31,-0.10,-0.29
84587208,0.28,-0.14,-0.43
84589206,0.28,-0.14,-0.43
84591266,0.28,-0.14,-0.43
84593206,0.28,-0.14,-0.43
84595258,0.28,-0.14,-0.43
84597252,0.26,-0.32,-0.53
84599251,0.26,-0.32,-0.53
84601248,0.26,-0.32,-0.53
84603247,0.26,-0.32,-0.53
84605245,0.26,-0.32,-0.53
84607214,0.26,-0.47,-0.57
84609210,0.26,-0.47,-0.57
84611205,0.26,-0.47,-0.57
84613204,0.26,-0.47,-0.57
84615283,0.26,-0.47,-0.57
84617211,0.26,-0.47,-0.57
84619214,0.30,-0.56,-0.60
84621293,0.30,-0.56,-0.60
84623238,0.30,-0.56,-0.60
84625208,0.30,-0.56,-0.60
84627203,0.30,-0.56,-0.60
84629206,0.34,-0.54,-0.71
84631204,0.34,-0.54,-0.71
84633203,0.34,-0.54,-0.71
84635255,0.34,-0.54,-0.71
84637248,0.34,-0.54,-0.71
84639248,0.40,-0.49,-0.87
84641347,0.40,-0.49,-0.87
84643249,0.40,-0.49,-0.87
84645248,0.40,-0.49,-0.87
84647244,0.40,-0.49,-0.87
84649203,0.48,-0.31,-0.92
84651203,0.48,-0.31,-0.92
84653194,0.48,-0.31,-0.92
84655214,0.48,-0.31,-0.92
84657297,0.48,-0.31,-0.92
84659237,0.55,-0.05,-0.96
84661224,0.55,-0.05,-0.96
84663206,0.55,-0.05,-0.96
84665300,0.55,-0.05,-0.96
84667211,0.55,-0.05,-0.96
84669205,0.62,0.11,-1.11
84671203,0.62,0.11,-1.11
84673212,0.62,0.11,-1.11
84675256,0.62,0.11,-1.11
84677246,0.62,0.11,-1.11
84679244,0.66,-0.07,-1.20
84681244,0.66,-0.07,-1.20
84683253,0.66,-0.07,-1.20
84685253,0.66,-0.07,-1.20
84687206,0.66,-0.07,-1.20
84689205,0.68,-0.35,-0.92
84691315,0.68,-0.35,-0.92
84693286,0.68,-0.35,-0.92
84695234,0.68,-0.35,-0.92
84697205,0.68,-0.35,-0.92
84699204,0.68,-0.35,-0.92
84701207,0.57,-0.45,-0.50
84703202,0.57,-0.45,-0.50
84705194,0.57,-0.45,-0.50
84707194,0.57,-0.45,-0.50
84709204,0.57,-0.45,-0.50
84711205,0.41,-0.45,-0.31
84713203,0.41,-0.45,-0.31
84715361,0.41,-0.45,-0.31
84717253,0.41,-0.45,-0.31
84719249,0.41,-0.45,-0.31
84721249,0.27,-0.43,-0.46
84723245,0.27,-0.43,-0.46
84725238,0.27,-0.43,-0.46
84727203,0.27,-0.43,-0.46
84729204,0.27,-0.43,-0.46
84731208,0.07,-0.46,-0.88
84733202,0.07,-0.46,-0.88
84735208,0.07,-0.46,-0.88
84737203,0.07,-0.46,-0.88
84739207,0.07,-0.46,-0.88
84741287,-0.13,-0.72,-1.62
84743210,-0.13,-0.72,-1.62
84745205,-0.13,-0.72,-1.62
84747247,-0.13,-0.72,-1.62
84749203,-0.13,-0.72,-1.62
84751195,-0.23,-1.10,-2.00
84753202,-0.23,-1.10,-2.00
84755253,-0.23,-1.10,-2.00
84757246,-0.23,-1.10,-2.00
84759250,-0.23,-1.10,-2.00
84761254,-0.19,-0.99,-2.00
84763247,-0.19,-0.99,-2.00
84765331,-0.19,-0.99,-2.00
84767215,-0.19,-0.99,-2.00
84769207,-0.19,-0.99,-2.00
84771207,-0.11,-0.84,-1.86
84773206,-0.11,-0.84,-1.86
84775281,-0.11,-0.84,-1.86
84777202,-0.11,-0.84,-1.86
84779203,-0.11,-0.84,-1.86
84781203,-0.01,-0.65,-1.60
84783204,-0.01,-0.65,-1.60
84785205,-0.01,-0.65,-1.60
84787219,-0.01,-0.65,-1.60
84789204,-0.01,-0.65,-1.60
84791276,-0.01,-0.65,-1.60
84793205,0.07,-0.38,-1.50
84795251,0.07,-0.38,-1.50
84797245,0.07,-0.38,-1.50
84799245,0.07,-0.38,-1.50
84801247,0.07,-0.38,-1.50
84803296,0.13,-0.17,-1.43
84805261,0.13,-0.17,-1.43
84807250,0.13,-0.17,-1.43
84809207,0.13,-0.17,-1.43
84811226,0.13,-0.17,-1.43
84813203,0.16,-0.15,-1.33
84815195,0.16,-0.15,-1.33
84817207,0.16,-0.15,-1.33
84819202,0.16,-0.15,-1.33
84821203,0.16,-0.15,-1.33
84823205,0.14,-0.27,-1.24
84825204,0.14,-0.27,-1.24
84827195,0.14,-0.27,-1.24
84829204,0.14,-0.27,-1.24
84831195,0.14,-0.27,-1.24
84833232,0.13,-0.33,-1.21
84835257,0.13,-0.33,-1.21
84837253,0.13,-0.33,-1.21
84839246,0.13,-0.33,-1.21
84841320,0.13,-0.33,-1.21
84843251,0.12,-0.33,-1.12
84845246,0.12,-0.33,-1.12
84847247,0.12,-0.33,-1.12
84849202,0.12,-0.33,-1.12
84851203,0.12,-0.33,-1.12
84853212,0.09,-0.37,-0.94
84855205,0.09,-0.37,-0.94
84857195,0.09,-0.37,-0.94
84859209,0.09,-0.37,-0.94
84861222,0.09,-0.37,-0.94
84863209,0.05,-0.44,-0.77
84865285,0.05,-0.44,-0.77
84867210,0.05,-0.44,-0.77
84869213,0.05,-0.44,-0.77
84871206,0.05,-0.44,-0.77
84873206,0.05,-0.44,-0.77
84875252,0.05,-0.41,-0.78
84877245,0.05,-0.41,-0.78
84879247,0.05,-0.41,-0.78
84881260,0.05,-0.41,-0.78
84883231,0.05,-0.41,-0.78
84885182,0.04,-0.35,-0.84
84887181,0.04,-0.35,-0.84
84889180,0.04,-0.35,-0.84
84891290,0.04,-0.35,-0.84
84893188,0.04,-0.35,-0.84
84895180,0.04,-0.27,-0.86
84897181,0.04,-0.27,-0.86
84899180,0.04,-0.27,-0.86
84901181,0.04,-0.27,-0.86
84903193,0.04,-0.27,-0.86
84905251,0.03,-0.31,-0.86
84907183,0.03,-0.31,-0.86
84909252,0.03,-0.31,-0.86
84911268,0.03,-0.31,-0.86
84913278,0.03,-0.31,-0.86
84915348,0.00,-0.44,-0.90
84917282,0.00,-0.44,-0.90
84919269,0.00,-0.44,-0.90
84921266,0.00,-0.44,-0.90
84923253,0.00,-0.44,-0.90
84925244,-0.01,-0.50,-0.98
84927250,-0.01,-0.50,-0.98
84929272,-0.01,-0.50,-0.98
84931257,-0.01,-0.50,-0.98
84933252,-0.01,-0.50,-0.98
84935251,0.01,-0.45,-1.06
84937206,0.01,-0.45,-1.06
84939204,0.01,-0.45,-1.06
84941309,0.01,-0.45,-1.06
84943216,0.01,-0.45,-1.06
84945208,0.04,-0.31,-0.98
84947248,0.04,-0.31,-0.98
84949204,0.04,-0.31,-0.98
84951204,0.04,-0.31,-0.98
84953211,0.04,-0.31,-0.98
84955209,0.04,-0.31,-0.98
84917282,0.00,-0.44,-0.90
84919269,0.00,-0.44,-0.90
84921266,0.00,-0.44,-0.90
84923253,0.00,-0.44,-0.90
84925244,-0.01,-0.50,-0.98
84927250,-0.01,-0.50,-0.98
84929272,-0.01,-0.50,-0.98
84931257,-0.01,-0.50,-0.98
84933252,-0.01,-0.50,-0.98
84935251,0.01,-0.45,-1.06
84937206,0.01,-0.45,-1.06
84939204,0.01,-0.45,-1.06
84941309,0.01,-0.45,-1.06
84943216,0.01,-0.45,-1.06
