timestamp,accX,accY,accZ
112751271,-0.39,0.67,-0.55
112753210,-0.39,0.66,-0.50
112755219,-0.39,0.66,-0.50
112757256,-0.39,0.66,-0.50
112759212,-0.39,0.66,-0.50
112761230,-0.39,0.66,-0.50
112763211,-0.39,0.66,-0.50
112765296,-0.39,0.65,-0.54
112767216,-0.39,0.65,-0.54
112769251,-0.39,0.65,-0.54
112771215,-0.39,0.65,-0.54
112773217,-0.39,0.65,-0.54
112775281,-0.37,0.66,-0.60
112777212,-0.37,0.66,-0.60
112779215,-0.37,0.66,-0.60
112781210,-0.37,0.66,-0.60
112783211,-0.37,0.66,-0.60
112785218,-0.36,0.62,-0.61
112787228,-0.36,0.62,-0.61
112789217,-0.36,0.62,-0.61
112791292,-0.36,0.62,-0.61
112793212,-0.36,0.62,-0.61
112795219,-0.36,0.57,-0.59
112797212,-0.36,0.57,-0.59
112799210,-0.36,0.57,-0.59
112857301,-0.51,0.70,-0.45
112859277,-0.51,0.70,-0.45
112861260,-0.51,0.70,-0.45
112863256,-0.51,0.70,-0.45
112865356,-0.51,0.70,-0.45
112867257,-0.52,0.70,-0.54
112869271,-0.52,0.70,-0.54
112871258,-0.52,0.70,-0.54
112873376,-0.52,0.70,-0.54
112875269,-0.52,0.70,-0.54
112877252,-0.52,0.73,-0.60
112879221,-0.52,0.73,-0.60
112881216,-0.52,0.73,-0.60
112883223,-0.52,0.73,-0.60
112885289,-0.52,0.73,-0.60
112887227,-0.52,0.75,-0.59
112889214,-0.52,0.75,-0.59
112891320,-0.52,0.75,-0.59
112893215,-0.52,0.75,-0.59
112895211,-0.52,0.75,-0.59
112897262,-0.53,0.75,-0.56
112899259,-0.53,0.75,-0.56
112901254,-0.53,0.75,-0.56
112903258,-0.53,0.75,-0.56
112905258,-0.53,0.75,-0.56
112907254,-0.54,0.81,-0.58
112909217,-0.54,0.81,-0.58
112911220,-0.54,0.81,-0.58
112913217,-0.54,0.81,-0.58
112915300,-0.54,0.81,-0.58
112917217,-0.53,0.85,-0.61
112919223,-0.53,0.85,-0.61
112921216,-0.53,0.85,-0.61
112923216,-0.53,0.85,-0.61
112925270,-0.53,0.85,-0.61
112927287,-0.54,0.87,-0.58
112929232,-0.54,0.87,-0.58
112931216,-0.54,0.87,-0.58
112933213,-0.54,0.87,-0.58
112935213,-0.54,0.87,-0.58
112937263,-0.54,0.87,-0.58
112939256,-0.54,0.88,-0.53
112941352,-0.54,0.88,-0.53
112943257,-0.54,0.88,-0.53
112945255,-0.54,0.88,-0.53
112947255,-0.54,0.88,-0.53
112949216,-0.52,0.81,-0.51
112951216,-0.52,0.81,-0.51
112953212,-0.52,0.81,-0.51
112955221,-0.52,0.81,-0.51
112957231,-0.52,0.81,-0.51
112959223,-0.53,0.77,-0.52
112961252,-0.53,0.77,-0.52
112963218,-0.53,0.77,-0.52
112965298,-0.53,0.77,-0.52
112967223,-0.53,0.77,-0.52
112969255,-0.52,0.73,-0.59
112971216,-0.52,0.73,-0.59
112973211,-0.52,0.73,-0.59
112975216,-0.52,0.73,-0.59
112977260,-0.52,0.73,-0.59
112979256,-0.51,0.68,-0.68
112981257,-0.51,0.68,-0.68
112983253,-0.51,0.68,-0.68
112985253,-0.51,0.68,-0.68
112987257,-0.51,0.68,-0.68
112989216,-0.50,0.62,-0.71
112991306,-0.50,0.62,-0.71
112993216,-0.50,0.62,-0.71
112995220,-0.50,0.62,-0.71
112997220,-0.50,0.62,-0.71
112999224,-0.48,0.57,-0.64
113001215,-0.48,0.57,-0.64
113003222,-0.48,0.57,-0.64
113005214,-0.48,0.57,-0.64
113007218,-0.48,0.57,-0.64
113009220,-0.45,0.56,-0.58
113011219,-0.45,0.56,-0.58
113013217,-0.45,0.56,-0.58
113015275,-0.45,0.56,-0.58
113017259,-0.45,0.56,-0.58
113019260,-0.45,0.56,-0.58
113021254,-0.44,0.57,-0.56
113023257,-0.44,0.57,-0.56
113025272,-0.44,0.57,-0.56
113027255,-0.44,0.57,-0.56
113029257,-0.44,0.57,-0.56
113031217,-0.41,0.59,-0.55
113033211,-0.41,0.59,-0.55
113035219,-0.41,0.59,-0.55
113037230,-0.41,0.59,-0.55
113039218,-0.41,0.59,-0.55
113041314,-0.39,0.62,-0.53
113043229,-0.39,0.62,-0.53
113045259,-0.39,0.62,-0.53
113047216,-0.39,0.62,-0.53
113049212,-0.39,0.62,-0.53
113051219,-0.38,0.65,-0.49
113053218,-0.38,0.65,-0.49
113055211,-0.38,0.65,-0.49
113057258,-0.38,0.65,-0.49
113059262,-0.38,0.65,-0.49
113061257,-0.36,0.64,-0.45
113063272,-0.36,0.64,-0.45
113065356,-0.36,0.64,-0.45
113067264,-0.36,0.64,-0.45
113069279,-0.36,0.64,-0.45
113071256,-0.35,0.66,-0.39
113073215,-0.35,0.66,-0.39
113075215,-0.35,0.66,-0.39
113077219,-0.35,0.66,-0.39
113079220,-0.35,0.66,-0.39
113081215,-0.34,0.64,-0.36
113083216,-0.34,0.64,-0.36
113085215,-0.34,0.64,-0.36
113087219,-0.34,0.64,-0.36
113089219,-0.34,0.64,-0.36
113091306,-0.33,0.62,-0.35
113093219,-0.33,0.62,-0.35
113095214,-0.33,0.62,-0.35
113097261,-0.33,0.62,-0.35
113099256,-0.33,0.62,-0.35
113101349,-0.33,0.61,-0.34
113103244,-0.33,0.61,-0.34
113105188,-0.33,0.61,-0.34
113107188,-0.33,0.61,-0.34
113109189,-0.33,0.61,-0.34
113111187,-0.33,0.61,-0.34
113113191,-0.33,0.58,-0.34
113115293,-0.33,0.58,-0.34
113117209,-0.33,0.58,-0.34
113119191,-0.33,0.58,-0.34
113121188,-0.33,0.58,-0.34
113123269,-0.33,0.59,-0.32
113125244,-0.33,0.59,-0.32
113127189,-0.33,0.59,-0.32
113129189,-0.33,0.59,-0.32
113131191,-0.33,0.59,-0.32
113133188,-0.34,0.56,-0.32
113135188,-0.34,0.56,-0.32
113137188,-0.34,0.56,-0.32
113139189,-0.34,0.56,-0.32
113141291,-0.34,0.56,-0.32
113143189,-0.34,0.57,-0.34
113145188,-0.34,0.57,-0.34
114053291,-0.55,1.02,-0.69
114055288,-0.63,1.02,-0.63
114057264,-0.63,1.02,-0.63
114059250,-0.63,1.02,-0.63
114061252,-0.63,1.02,-0.63
114063243,-0.63,1.02,-0.63
114065273,-0.74,1.15,-0.69
114067250,-0.74,1.15,-0.69
114069245,-0.74,1.15,-0.69
114071214,-0.74,1.15,-0.69
114073289,-0.74,1.15,-0.69
114075228,-0.82,1.23,-0.73
114077202,-0.82,1.23,-0.73
114079202,-0.82,1.23,-0.73
114081203,-0.82,1.23,-0.73
114083203,-0.82,1.23,-0.73
114085254,-0.87,1.14,-0.71
114087253,-0.87,1.14,-0.71
114089205,-0.87,1.14,-0.71
114091234,-0.87,1.14,-0.71
114093273,-0.87,1.14,-0.71
114095253,-0.89,1.18,-0.71
114097247,-0.89,1.18,-0.71
114099251,-0.89,1.18,-0.71
114101304,-0.89,1.18,-0.71
114103263,-0.89,1.18,-0.71
114105247,-0.89,1.30,-0.80
114107245,-0.89,1.30,-0.80
114109243,-0.89,1.30,-0.80
114111203,-0.89,1.30,-0.80
114113204,-0.89,1.30,-0.80
114115230,-0.85,1.43,-0.90
114117206,-0.85,1.43,-0.90
114119202,-0.85,1.43,-0.90
114121206,-0.85,1.43,-0.90
114123206,-0.85,1.43,-0.90
114125246,-0.79,1.45,-0.88
114127278,-0.79,1.45,-0.88
114129219,-0.79,1.45,-0.88
114131205,-0.79,1.45,-0.88
114133263,-0.79,1.45,-0.88
114135304,-0.79,1.45,-0.88
114137271,-0.73,1.33,-0.76
114139246,-0.73,1.33,-0.76
114141262,-0.73,1.33,-0.76
114143261,-0.73,1.33,-0.76
114145274,-0.73,1.33,-0.76
114147268,-0.66,1.30,-0.73
114149253,-0.66,1.30,-0.73
114151205,-0.66,1.30,-0.73
114153218,-0.66,1.30,-0.73
114155293,-0.66,1.30,-0.73
114157231,-0.62,1.14,-0.81
114159211,-0.62,1.14,-0.81
114161222,-0.62,1.14,-0.81
114163194,-0.62,1.14,-0.81
114165229,-0.62,1.14,-0.81
114167206,-0.58,0.96,-0.86
114169243,-0.58,0.96,-0.86
114171204,-0.58,0.96,-0.86
114173270,-0.58,0.96,-0.86
114175245,-0.58,0.96,-0.86
114177243,-0.53,0.85,-0.84
114179247,-0.53,0.85,-0.84
114181246,-0.53,0.85,-0.84
114183241,-0.53,0.85,-0.84
114185207,-0.53,0.85,-0.84
114187206,-0.48,0.72,-0.84
114189207,-0.48,0.72,-0.84
114191253,-0.48,0.72,-0.84
114193317,-0.48,0.72,-0.84
114195229,-0.48,0.72,-0.84
114197203,-0.42,0.63,-0.82
114199204,-0.42,0.63,-0.82
114201204,-0.42,0.63,-0.82
114203215,-0.42,0.63,-0.82
114205252,-0.42,0.63,-0.82
114207202,-0.35,0.58,-0.77
114209201,-0.35,0.58,-0.77
114211203,-0.35,0.58,-0.77
114213274,-0.35,0.58,-0.77
114215274,-0.35,0.58,-0.77
114217245,-0.35,0.58,-0.77
114219245,-0.27,0.55,-0.73
114221243,-0.27,0.55,-0.73
114223244,-0.27,0.55,-0.73
114225245,-0.27,0.55,-0.73
114227205,-0.27,0.55,-0.73
114229204,-0.20,0.54,-0.66
114231212,-0.20,0.54,-0.66
114233207,-0.20,0.54,-0.66
114235210,-0.20,0.54,-0.66
114237203,-0.20,0.54,-0.66
114239206,-0.16,0.53,-0.57
114241225,-0.16,0.53,-0.57
114243204,-0.16,0.53,-0.57
114245204,-0.16,0.53,-0.57
114247206,-0.16,0.53,-0.57
114249203,-0.11,0.50,-0.52
114251207,-0.11,0.50,-0.52
114253250,-0.11,0.50,-0.52
114255247,-0.11,0.50,-0.52
114257243,-0.11,0.50,-0.52
114259248,-0.06,0.45,-0.48
114261252,-0.06,0.45,-0.48
114263243,-0.06,0.45,-0.48
114265216,-0.06,0.45,-0.48
114267263,-0.06,0.45,-0.48
114269265,-0.04,0.44,-0.52
114271205,-0.04,0.44,-0.52
114273246,-0.04,0.44,-0.52
114275202,-0.04,0.44,-0.52
114277203,-0.04,0.44,-0.52
114279207,-0.00,0.43,-0.56
114281207,-0.00,0.43,-0.56
114283203,-0.00,0.43,-0.56
114285209,-0.00,0.43,-0.56
114287256,-0.00,0.43,-0.56
114289205,0.01,0.47,-0.53
114291240,0.01,0.47,-0.53
114293274,0.01,0.47,-0.53
114295280,0.01,0.47,-0.53
114297247,0.01,0.47,-0.53
114299245,0.01,0.47,-0.53
114301316,0.02,0.49,-0.46
114303267,0.02,0.49,-0.46
114305249,0.02,0.49,-0.46
114307244,0.02,0.49,-0.46
114309271,0.02,0.49,-0.46
114311260,0.02,0.50,-0.38
114313234,0.02,0.50,-0.38
114315304,0.02,0.50,-0.38
114317215,0.02,0.50,-0.38
114319206,0.02,0.50,-0.38
114321205,0.01,0.54,-0.34
114323210,0.01,0.54,-0.34
114325205,0.01,0.54,-0.34
114327204,0.01,0.54,-0.34
114329207,0.01,0.54,-0.34
114331309,-0.01,0.56,-0.34
114333273,-0.01,0.56,-0.34
114335248,-0.01,0.56,-0.34
114337260,-0.01,0.56,-0.34
114339272,-0.01,0.56,-0.34
114341284,-0.04,0.54,-0.41
114343248,-0.04,0.54,-0.41
114345251,-0.04,0.54,-0.41
114347274,-0.04,0.54,-0.41
114349260,-0.04,0.54,-0.41
114351244,-0.08,0.48,-0.42
114353205,-0.08,0.48,-0.42
114355269,-0.08,0.48,-0.42
114357252,-0.08,0.48,-0.42
114359216,-0.08,0.48,-0.42
114361224,-0.12,0.40,-0.35
114363240,-0.12,0.40,-0.35
114365358,-0.12,0.40,-0.35
114367212,-0.12,0.40,-0.35
114369204,-0.12,0.40,-0.35
114371204,-0.17,0.32,-0.31
114373289,-0.17,0.32,-0.31
114375263,-0.17,0.32,-0.31
114377246,-0.17,0.32,-0.31
114379243,-0.17,0.32,-0.31
114381249,-0.20,0.29,-0.35
114383314,-0.20,0.29,-0.35
114385263,-0.20,0.29,-0.35
114387243,-0.20,0.29,-0.35
114389243,-0.20,0.29,-0.35
114391237,-0.20,0.29,-0.35
114393221,-0.23,0.27,-0.42
114395248,-0.23,0.27,-0.42
114397286,-0.23,0.27,-0.42
114399220,-0.23,0.27,-0.42
114401208,-0.23,0.27,-0.42
114403205,-0.25,0.25,-0.48
114405202,-0.25,0.25,-0.48
114407203,-0.25,0.25,-0.48
114409203,-0.25,0.25,-0.48
114411206,-0.25,0.25,-0.48
114413258,-0.25,0.26,-0.49
114415270,-0.25,0.26,-0.49
114417243,-0.25,0.26,-0.49
114419244,-0.25,0.26,-0.49
114421284,-0.25,0.26,-0.49
114423268,-0.26,0.28,-0.51
114425253,-0.26,0.28,-0.51
114427246,-0.26,0.28,-0.51
114429206,-0.26,0.28,-0.51
114431204,-0.26,0.28,-0.51
114433206,-0.25,0.32,-0.54
114435203,-0.25,0.32,-0.54
114437206,-0.25,0.32,-0.54
114439280,-0.25,0.32,-0.54
114441252,-0.25,0.32,-0.54
114443203,-0.23,0.34,-0.60
114445203,-0.23,0.34,-0.60
114447230,-0.23,0.34,-0.60
114449255,-0.23,0.34,-0.60
114451203,-0.23,0.34,-0.60
114453266,-0.24,0.38,-0.58
114455249,-0.24,0.38,-0.58
114457246,-0.24,0.38,-0.58
114459254,-0.24,0.38,-0.58
114461312,-0.24,0.38,-0.58
114463266,-0.26,0.42,-0.52
114465272,-0.26,0.42,-0.52
114467243,-0.26,0.42,-0.52
114469234,-0.26,0.42,-0.52
114471219,-0.26,0.42,-0.52
114473290,-0.26,0.42,-0.52
114475251,-0.30,0.46,-0.48
114477205,-0.30,0.46,-0.48
114479205,-0.30,0.46,-0.48
114481209,-0.30,0.46,-0.48
114483255,-0.30,0.46,-0.48
114485203,-0.36,0.59,-0.50
114487207,-0.36,0.59,-0.50
114489205,-0.36,0.59,-0.50
114491230,-0.36,0.59,-0.50
114493286,-0.36,0.59,-0.50
114495257,-0.42,0.72,-0.57
114497275,-0.42,0.72,-0.57
114499252,-0.42,0.72,-0.57
114501245,-0.42,0.72,-0.57
114503252,-0.42,0.72,-0.57
114505287,-0.48,0.85,-0.63
114507263,-0.48,0.85,-0.63
114509247,-0.48,0.85,-0.63
114511229,-0.48,0.85,-0.63
114513204,-0.48,0.85,-0.63
114515227,-0.54,0.98,-0.71
114517210,-0.54,0.98,-0.71
114519203,-0.54,0.98,-0.71
114521203,-0.54,0.98,-0.71
114523207,-0.54,0.98,-0.71
114525203,-0.60,1.02,-0.80
114527212,-0.60,1.02,-0.80
114529206,-0.60,1.02,-0.80
114531206,-0.60,1.02,-0.80
114533250,-0.60,1.02,-0.80
114535250,-0.65,1.07,-0.84
114537252,-0.65,1.07,-0.84
114539244,-0.65,1.07,-0.84
114541346,-0.65,1.07,-0.84
114543266,-0.65,1.07,-0.84
114545243,-0.71,1.01,-0.84
114547246,-0.71,1.01,-0.84
114549205,-0.71,1.01,-0.84
114551204,-0.71,1.01,-0.84
114553208,-0.71,1.01,-0.84
114555202,-0.71,1.01,-0.84
114557213,-0.75,1.01,-0.84
114559288,-0.75,1.01,-0.84
114561236,-0.75,1.01,-0.84
114563206,-0.75,1.01,-0.84
114565227,-0.75,1.01,-0.84
114567209,-0.81,1.08,-0.90
114569262,-0.81,1.08,-0.90
114571243,-0.81,1.08,-0.90
114573268,-0.81,1.08,-0.90
114575268,-0.81,1.08,-0.90
114577248,-0.81,1.15,-1.05
114579252,-0.81,1.15,-1.05
114581267,-0.81,1.15,-1.05
114583261,-0.81,1.15,-1.05
114585246,-0.81,1.15,-1.05
114587243,-0.76,1.19,-1.15
114589244,-0.76,1.19,-1.15
114591258,-0.76,1.19,-1.15
114593292,-0.76,1.19,-1.15
114595229,-0.76,1.19,-1.15
114597203,-0.68,1.25,-1.16
114599214,-0.68,1.25,-1.16
114601241,-0.68,1.25,-1.16
114603205,-0.68,1.25,-1.16
114605202,-0.68,1.25,-1.16
114607203,-0.57,1.33,-1.11
114609203,-0.57,1.33,-1.11
114611203,-0.57,1.33,-1.11
114613290,-0.57,1.33,-1.11
114615342,-0.57,1.33,-1.11
114617272,-0.48,1.40,-1.03
114619246,-0.48,1.40,-1.03
114621249,-0.48,1.40,-1.03
114623269,-0.48,1.40,-1.03
114625262,-0.48,1.40,-1.03
114627244,-0.38,1.50,-0.95
114629242,-0.38,1.50,-0.95
114631204,-0.38,1.50,-0.95
114633224,-0.38,1.50,-0.95
114635266,-0.38,1.50,-0.95
114637207,-0.30,1.61,-0.80
114639203,-0.30,1.61,-0.80
114641240,-0.30,1.61,-0.80
114643208,-0.30,1.61,-0.80
114645257,-0.30,1.61,-0.80
114647205,-0.30,1.61,-0.80
114649194,-0.25,1.59,-0.59
114651195,-0.25,1.59,-0.59
114653273,-0.25,1.59,-0.59
114655247,-0.25,1.59,-0.59
114657245,-0.25,1.59,-0.59
114659248,-0.23,1.48,-0.45
114661253,-0.23,1.48,-0.45
114663247,-0.23,1.48,-0.45
114665270,-0.23,1.48,-0.45
114667207,-0.23,1.48,-0.45
114669207,-0.25,1.31,-0.48
114671203,-0.25,1.31,-0.48
114673245,-0.25,1.31,-0.48
114675295,-0.25,1.31,-0.48
114677255,-0.25,1.31,-0.48
114679205,-0.28,1.08,-0.67
114681207,-0.28,1.08,-0.67
114683203,-0.28,1.08,-0.67
114685229,-0.28,1.08,-0.67
114687254,-0.28,1.08,-0.67
114689211,-0.29,0.92,-0.78
114691243,-0.29,0.92,-0.78
114693273,-0.29,0.92,-0.78
114695254,-0.29,0.92,-0.78
114697246,-0.29,0.92,-0.78
114699245,-0.28,0.68,-0.74
114701249,-0.28,0.68,-0.74
114703270,-0.28,0.68,-0.74
114705247,-0.28,0.68,-0.74
114707244,-0.28,0.68,-0.74
114709206,-0.26,0.52,-0.63
114711203,-0.26,0.52,-0.63
114713207,-0.26,0.52,-0.63
114715343,-0.26,0.52,-0.63
114717297,-0.26,0.52,-0.63
114719235,-0.22,0.39,-0.58
114721206,-0.22,0.39,-0.58
114723206,-0.22,0.39,-0.58
114725203,-0.22,0.39,-0.58
114727203,-0.22,0.39,-0.58
114729265,-0.22,0.39,-0.58
114731225,-0.18,0.28,-0.59
114733265,-0.18,0.28,-0.59
114735249,-0.18,0.28,-0.59
114737246,-0.18,0.28,-0.59
114739254,-0.18,0.28,-0.59
114741326,-0.14,0.25,-0.59
114743260,-0.14,0.25,-0.59
114745246,-0.14,0.25,-0.59
114747243,-0.14,0.25,-0.59
114749250,-0.14,0.25,-0.59
114751258,-0.10,0.23,-0.57
114753206,-0.10,0.23,-0.57
114755207,-0.10,0.23,-0.57
114757203,-0.10,0.23,-0.57
114759216,-0.10,0.23,-0.57
114761256,-0.07,0.25,-0.52
114763203,-0.07,0.25,-0.52
114765303,-0.07,0.25,-0.52
114767215,-0.07,0.25,-0.52
114769203,-0.07,0.25,-0.52
114771202,-0.04,0.26,-0.54
114773275,-0.04,0.26,-0.54
114775314,-0.04,0.26,-0.54
114777265,-0.04,0.26,-0.54
114779243,-0.04,0.26,-0.54
114781246,-0.01,0.25,-0.53
114783274,-0.01,0.25,-0.53
114785270,-0.01,0.25,-0.53
114787259,-0.01,0.25,-0.53
114789245,-0.01,0.25,-0.53
114791239,0.00,0.25,-0.41
114793207,0.00,0.25,-0.41
114795203,0.00,0.25,-0.41
114797202,0.00,0.25,-0.41
114799205,0.00,0.25,-0.41
114801207,0.01,0.23,-0.28
114803218,0.01,0.23,-0.28
114805279,0.01,0.23,-0.28
114807245,0.01,0.23,-0.28
114809214,0.01,0.23,-0.28
114811223,0.01,0.23,-0.28
114813264,0.02,0.23,-0.25
114815271,0.02,0.23,-0.25
114817249,0.02,0.23,-0.25
114819255,0.02,0.23,-0.25
114821249,0.02,0.23,-0.25
114823243,0.02,0.27,-0.30
114825206,0.02,0.27,-0.30
114827203,0.02,0.27,-0.30
114829202,0.02,0.27,-0.30
114831206,0.02,0.27,-0.30
114833219,0.01,0.28,-0.37
114835287,0.01,0.28,-0.37
114837234,0.01,0.28,-0.37
114839203,0.01,0.28,-0.37
114841238,0.01,0.28,-0.37
114843203,0.00,0.28,-0.35
114845225,0.00,0.28,-0.35
114847250,0.00,0.28,-0.35
114849206,0.00,0.28,-0.35
114851204,0.00,0.28,-0.35
114853270,-0.02,0.28,-0.30
114855248,-0.02,0.28,-0.30
114857245,-0.02,0.28,-0.30
114859250,-0.02,0.28,-0.30
114861259,-0.02,0.28,-0.30
114863285,-0.05,0.29,-0.31
114865281,-0.05,0.29,-0.31
114867247,-0.05,0.29,-0.31
114869230,-0.05,0.29,-0.31
114871206,-0.05,0.29,-0.31
114873216,-0.08,0.32,-0.35
114875275,-0.08,0.32,-0.35
114877250,-0.08,0.32,-0.35
114879206,-0.08,0.32,-0.35
114881210,-0.08,0.32,-0.35
114883203,-0.11,0.32,-0.35
114885257,-0.11,0.32,-0.35
114887202,-0.11,0.32,-0.35
114889202,-0.11,0.32,-0.35
114891240,-0.11,0.32,-0.35
114893267,-0.12,0.38,-0.33
114895250,-0.12,0.38,-0.33
114897246,-0.12,0.38,-0.33
114899244,-0.12,0.38,-0.33
114901268,-0.12,0.38,-0.33
114903275,-0.12,0.38,-0.33
114905256,-0.14,0.42,-0.37
114907273,-0.14,0.42,-0.37
114909244,-0.14,0.42,-0.37
114911204,-0.14,0.42,-0.37
114913203,-0.14,0.42,-0.37
114915243,-0.15,0.48,-0.42
114917309,-0.15,0.48,-0.42
114919228,-0.15,0.48,-0.42
114921203,-0.15,0.48,-0.42
114923202,-0.15,0.48,-0.42
114925253,-0.16,0.52,-0.45
114927205,-0.16,0.52,-0.45
114929204,-0.16,0.52,-0.45
114931194,-0.16,0.52,-0.45
114933272,-0.16,0.52,-0.45
114935246,-0.16,0.50,-0.45
114937244,-0.16,0.50,-0.45
114939272,-0.16,0.50,-0.45
114941300,-0.16,0.50,-0.45
114943256,-0.16,0.50,-0.45
114945245,-0.20,0.50,-0.41
114947246,-0.20,0.50,-0.41
114949266,-0.20,0.50,-0.41
114951248,-0.20,0.50,-0.41
114953205,-0.20,0.50,-0.41
114955195,-0.25,0.52,-0.39
114957224,-0.25,0.52,-0.39
114959210,-0.25,0.52,-0.39
114961221,-0.25,0.52,-0.39
114963207,-0.25,0.52,-0.39
114965231,-0.32,0.56,-0.45
114967257,-0.32,0.56,-0.45
114969207,-0.32,0.56,-0.45
114971202,-0.32,0.56,-0.45
114973268,-0.32,0.56,-0.45
114975251,-0.45,0.64,-0.51
114977262,-0.45,0.64,-0.51
114979260,-0.45,0.64,-0.51
114981270,-0.45,0.64,-0.51
114983251,-0.45,0.64,-0.51
114985244,-0.45,0.64,-0.51
114987245,-0.59,0.80,-0.55
114989286,-0.59,0.80,-0.55
114991282,-0.59,0.80,-0.55
114993210,-0.59,0.80,-0.55
114995205,-0.59,0.80,-0.55
114997204,-0.76,1.05,-0.68
114999202,-0.76,1.05,-0.68
115001203,-0.76,1.05,-0.68
115003203,-0.76,1.05,-0.68
115005204,-0.76,1.05,-0.68
115007202,-0.91,1.33,-0.76
115009202,-0.91,1.33,-0.76
115011206,-0.91,1.33,-0.76
115013248,-0.91,1.33,-0.76
115015260,-0.91,1.33,-0.76
115017245,-1.03,1.48,-0.74
115019247,-1.03,1.48,-0.74
115021243,-1.03,1.48,-0.74
115023246,-1.03,1.48,-0.74
115025312,-1.03,1.48,-0.74
115027231,-1.12,1.59,-0.73
115029202,-1.12,1.59,-0.73
115031195,-1.12,1.59,-0.73
115033205,-1.12,1.59,-0.73
115035212,-1.12,1.59,-0.73
115037250,-1.16,1.66,-0.82
115039207,-1.16,1.66,-0.82
115041237,-1.16,1.66,-0.82
115043202,-1.16,1.66,-0.82
115045190,-1.16,1.66,-0.82
115047203,-1.19,1.61,-0.86
115049202,-1.19,1.61,-0.86
115051202,-1.19,1.61,-0.86
115053273,-1.19,1.61,-0.86
115055247,-1.19,1.61,-0.86
115057243,-1.18,1.51,-0.78
115059250,-1.18,1.51,-0.78
115061251,-1.18,1.51,-0.78
115063249,-1.18,1.51,-0.78
115065265,-1.18,1.51,-0.78
115067206,-1.15,1.42,-0.70
115069205,-1.15,1.42,-0.70
115071210,-1.15,1.42,-0.70
115073209,-1.15,1.42,-0.70
115075209,-1.15,1.42,-0.70
115077245,-1.15,1.42,-0.70
115079195,-1.11,1.31,-0.75
115081203,-1.11,1.31,-0.75
115083204,-1.11,1.31,-0.75
115085202,-1.11,1.31,-0.75
115087205,-1.11,1.31,-0.75
115089202,-1.05,1.23,-0.77
115091219,-1.05,1.23,-0.77
115093252,-1.05,1.23,-0.77
115095244,-1.05,1.23,-0.77
115097250,-1.05,1.23,-0.77
115099245,-1.00,1.09,-0.71
115101243,-1.00,1.09,-0.71
115103246,-1.00,1.09,-0.71
115105208,-1.00,1.09,-0.71
115107204,-1.00,1.09,-0.71
115109207,-0.92,0.95,-0.63
115111252,-0.92,0.95,-0.63
115113211,-0.92,0.95,-0.63
115115306,-0.92,0.95,-0.63
115117294,-0.92,0.95,-0.63
115119233,-0.84,0.82,-0.61
115121203,-0.84,0.82,-0.61
115123204,-0.84,0.82,-0.61
115125203,-0.84,0.82,-0.61
115127205,-0.84,0.82,-0.61
115129201,-0.75,0.73,-0.59
115131202,-0.75,0.73,-0.59
115133261,-0.75,0.73,-0.59
115135249,-0.75,0.73,-0.59
115137246,-0.75,0.73,-0.59
115139245,-0.65,0.65,-0.55
115141271,-0.65,0.65,-0.55
115143323,-0.65,0.65,-0.55
115145265,-0.65,0.65,-0.55
115147249,-0.65,0.65,-0.55
115149211,-0.55,0.61,-0.46
115151205,-0.55,0.61,-0.46
115153201,-0.55,0.61,-0.46
115155195,-0.55,0.61,-0.46
115157205,-0.55,0.61,-0.46
115159211,-0.55,0.61,-0.46
115161222,-0.45,0.61,-0.35
115163209,-0.45,0.61,-0.35
115165302,-0.45,0.61,-0.35
115167215,-0.45,0.61,-0.35
115169203,-0.45,0.61,-0.35
115171280,-0.35,0.59,-0.31
115173282,-0.35,0.59,-0.31
115175256,-0.35,0.59,-0.31
115177265,-0.35,0.59,-0.31
115179243,-0.35,0.59,-0.31
115181275,-0.25,0.62,-0.28
115183255,-0.25,0.62,-0.28
115185244,-0.25,0.62,-0.28
115187245,-0.25,0.62,-0.28
115189259,-0.25,0.62,-0.28
115191279,-0.16,0.63,-0.23
115193213,-0.16,0.63,-0.23
115195205,-0.16,0.63,-0.23
115197205,-0.16,0.63,-0.23
115199254,-0.16,0.63,-0.23
115201247,-0.09,0.62,-0.19
115203209,-0.09,0.62,-0.19
115205203,-0.09,0.62,-0.19
115207206,-0.09,0.62,-0.19
115209205,-0.09,0.62,-0.19
115211205,-0.05,0.61,-0.20
115213289,-0.05,0.61,-0.20
115215284,-0.05,0.61,-0.20
115217247,-0.05,0.61,-0.20
115219246,-0.05,0.61,-0.20
115221275,-0.01,0.54,-0.28
115223260,-0.01,0.54,-0.28
115225257,-0.01,0.54,-0.28
115227251,-0.01,0.54,-0.28
115229285,-0.01,0.54,-0.28
115231279,0.01,0.53,-0.36
115233244,0.01,0.53,-0.36
115235205,0.01,0.53,-0.36
115237219,0.01,0.53,-0.36
115239282,0.01,0.53,-0.36
115241251,0.01,0.50,-0.44
115243210,0.01,0.50,-0.44
115245231,0.01,0.50,-0.44
115247246,0.01,0.50,-0.44
115249203,0.01,0.50,-0.44
115251204,0.01,0.50,-0.44
115253264,0.02,0.48,-0.46
115255248,0.02,0.48,-0.46
115257247,0.02,0.48,-0.46
115259250,0.02,0.48,-0.46
115261249,0.02,0.48,-0.46
115263243,0.03,0.50,-0.46
115265271,0.03,0.50,-0.46
115267207,0.03,0.50,-0.46
115269209,0.03,0.50,-0.46
115271205,0.03,0.50,-0.46
115273203,0.03,0.50,-0.45
115275204,0.03,0.50,-0.45
115277244,0.03,0.50,-0.45
115279206,0.03,0.50,-0.45
115281202,0.03,0.50,-0.45
115283203,0.02,0.52,-0.40
115285207,0.02,0.52,-0.40
115287216,0.02,0.52,-0.40
115289204,0.02,0.52,-0.40
115291215,0.02,0.52,-0.40
115293253,0.01,0.53,-0.37
115295246,0.01,0.53,-0.37
115297246,0.01,0.53,-0.37
115299243,0.01,0.53,-0.37
115301246,0.01,0.53,-0.37
115303241,-0.01,0.51,-0.39
115305204,-0.01,0.51,-0.39
115307205,-0.01,0.51,-0.39
115309203,-0.01,0.51,-0.39
115311206,-0.01,0.51,-0.39
115313211,-0.04,0.47,-0.40
115315216,-0.04,0.47,-0.40
115317206,-0.04,0.47,-0.40
115319205,-0.04,0.47,-0.40
115321206,-0.04,0.47,-0.40
115323209,-0.09,0.41,-0.41
115325210,-0.09,0.41,-0.41
115327210,-0.09,0.41,-0.41
115329240,-0.09,0.41,-0.41
115331297,-0.09,0.41,-0.41
115333266,-0.09,0.41,-0.41
115335243,-0.11,0.33,-0.43
115337246,-0.11,0.33,-0.43
115339242,-0.11,0.33,-0.43
115341265,-0.11,0.33,-0.43
115343246,-0.11,0.33,-0.43
115345242,-0.14,0.30,-0.43
115347270,-0.14,0.30,-0.43
115349247,-0.14,0.30,-0.43
115351208,-0.14,0.30,-0.43
115353204,-0.14,0.30,-0.43
115355204,-0.16,0.29,-0.46
115357204,-0.16,0.29,-0.46
115359206,-0.16,0.29,-0.46
115361251,-0.16,0.29,-0.46
115363253,-0.16,0.29,-0.46
115365226,-0.17,0.27,-0.52
115367206,-0.17,0.27,-0.52
115369202,-0.17,0.27,-0.52
115371365,-0.17,0.27,-0.52
115373285,-0.17,0.27,-0.52
115375274,-0.18,0.25,-0.56
115377267,-0.18,0.25,-0.56
115379248,-0.18,0.25,-0.56
115381285,-0.18,0.25,-0.56
115383278,-0.18,0.25,-0.56
115385252,-0.18,0.26,-0.58
115387251,-0.18,0.26,-0.58
115389241,-0.18,0.26,-0.58
115391371,-0.18,0.26,-0.58
115393235,-0.18,0.26,-0.58
115395208,-0.16,0.28,-0.63
115397206,-0.16,0.28,-0.63
115399205,-0.16,0.28,-0.63
115401211,-0.16,0.28,-0.63
115403254,-0.16,0.28,-0.63
115405214,-0.16,0.32,-0.69
115407211,-0.16,0.32,-0.69
115409216,-0.16,0.32,-0.69
115411210,-0.16,0.32,-0.69
115413270,-0.16,0.32,-0.69
115415280,-0.16,0.32,-0.69
115417269,-0.18,0.43,-0.66
115419271,-0.18,0.43,-0.66
115421250,-0.18,0.43,-0.66
115423250,-0.18,0.43,-0.66
115425249,-0.18,0.43,-0.66
115427248,-0.23,0.52,-0.59
115429211,-0.23,0.52,-0.59
115431257,-0.23,0.52,-0.59
115433271,-0.23,0.52,-0.59
115435231,-0.23,0.52,-0.59
115437211,-0.29,0.64,-0.55
115439210,-0.29,0.64,-0.55
115441236,-0.29,0.64,-0.55
115443207,-0.29,0.64,-0.55
115445206,-0.29,0.64,-0.55
115447207,-0.38,0.81,-0.59
115449207,-0.38,0.81,-0.59
115451207,-0.38,0.81,-0.59
115453266,-0.38,0.81,-0.59
115455254,-0.38,0.81,-0.59
115457254,-0.48,0.98,-0.72
115459253,-0.48,0.98,-0.72
115461252,-0.48,0.98,-0.72
115463249,-0.48,0.98,-0.72
115465256,-0.48,0.98,-0.72
115467211,-0.56,1.13,-0.77
115469210,-0.56,1.13,-0.77
115471207,-0.56,1.13,-0.77
115473205,-0.56,1.13,-0.77
115475240,-0.56,1.13,-0.77
115477313,-0.67,1.19,-0.75
115479254,-0.67,1.19,-0.75
115481204,-0.67,1.19,-0.75
115483205,-0.67,1.19,-0.75
115485206,-0.67,1.19,-0.75
115487219,-0.76,1.19,-0.78
115489255,-0.76,1.19,-0.78
115491245,-0.76,1.19,-0.78
115493268,-0.76,1.19,-0.78
115495252,-0.76,1.19,-0.78
115497247,-0.84,1.14,-0.83
115499247,-0.84,1.14,-0.83
115501250,-0.84,1.14,-0.83
115503283,-0.84,1.14,-0.83
115505281,-0.84,1.14,-0.83
115507251,-0.84,1.14,-0.83
115509249,-0.88,1.04,-0.83
115511215,-0.88,1.04,-0.83
115513210,-0.88,1.04,-0.83
115515286,-0.88,1.04,-0.83
115517245,-0.88,1.04,-0.83
115519208,-0.88,0.95,-0.84
115521211,-0.88,0.95,-0.84
115523246,-0.88,0.95,-0.84
115525211,-0.88,0.95,-0.84
115527214,-0.88,0.95,-0.84
115529216,-0.82,0.82,-0.99
115531208,-0.82,0.82,-0.99
115533262,-0.82,0.82,-0.99
115535254,-0.82,0.82,-0.99
115537288,-0.82,0.82,-0.99
115539280,-0.73,0.84,-1.21
115541271,-0.73,0.84,-1.21
115543250,-0.73,0.84,-1.21
115545249,-0.73,0.84,-1.21
115547281,-0.73,0.84,-1.21
115549274,-0.61,0.87,-1.35
115551249,-0.61,0.87,-1.35
115553215,-0.61,0.87,-1.35
115555212,-0.61,0.87,-1.35
115557253,-0.61,0.87,-1.35
115559261,-0.50,1.04,-1.20
115561225,-0.50,1.04,-1.20
115563210,-0.50,1.04,-1.20
115565280,-0.50,1.04,-1.20
115567255,-0.50,1.04,-1.20
115569208,-0.39,1.14,-1.01
115571205,-0.39,1.14,-1.01
115573273,-0.39,1.14,-1.01
115575264,-0.39,1.14,-1.01
115577254,-0.39,1.14,-1.01
115579269,-0.30,1.32,-0.94
115581254,-0.30,1.32,-0.94
115583251,-0.30,1.32,-0.94
115585250,-0.30,1.32,-0.94
115587252,-0.30,1.32,-0.94
115589210,-0.30,1.32,-0.94
115591242,-0.22,1.58,-0.85
115593208,-0.22,1.58,-0.85
115595208,-0.22,1.58,-0.85
115597209,-0.22,1.58,-0.85
115599237,-0.22,1.58,-0.85
115601353,-0.17,1.70,-0.63
115603233,-0.17,1.70,-0.63
115605206,-0.17,1.70,-0.63
115607212,-0.17,1.70,-0.63
115609208,-0.17,1.70,-0.63
115611208,-0.13,1.65,-0.37
115613263,-0.13,1.65,-0.37
115615277,-0.13,1.65,-0.37
115617252,-0.13,1.65,-0.37
115619252,-0.13,1.65,-0.37
115621251,-0.14,1.51,-0.30
115623251,-0.14,1.51,-0.30
115625222,-0.14,1.51,-0.30
115627211,-0.14,1.51,-0.30
115629214,-0.14,1.51,-0.30
115631211,-0.19,1.29,-0.45
115633211,-0.19,1.29,-0.45
115635211,-0.19,1.29,-0.45
115637215,-0.19,1.29,-0.45
115639208,-0.19,1.29,-0.45
115641223,-0.24,1.04,-0.69
115643208,-0.24,1.04,-0.69
115645214,-0.24,1.04,-0.69
115647213,-0.24,1.04,-0.69
115649212,-0.24,1.04,-0.69
115651216,-0.27,0.82,-0.74
115653253,-0.27,0.82,-0.74
115655247,-0.27,0.82,-0.74
115657249,-0.27,0.82,-0.74
115659252,-0.27,0.82,-0.74
115661252,-0.27,0.62,-0.69
115663248,-0.27,0.62,-0.69
115665219,-0.27,0.62,-0.69
115667214,-0.27,0.62,-0.69
115669211,-0.27,0.62,-0.69
115671221,-0.27,0.62,-0.69
115673215,-0.26,0.45,-0.69
115675212,-0.26,0.45,-0.69
115677215,-0.26,0.45,-0.69
115679249,-0.26,0.45,-0.69
115681206,-0.26,0.45,-0.69
115683208,-0.24,0.39,-0.73
115685206,-0.24,0.39,-0.73
115687206,-0.24,0.39,-0.73
115689208,-0.24,0.39,-0.73
115691219,-0.24,0.39,-0.73
115693255,-0.21,0.39,-0.75
115695259,-0.21,0.39,-0.75
115697252,-0.21,0.39,-0.75
115699254,-0.21,0.39,-0.75
115701317,-0.21,0.39,-0.75
115703259,-0.17,0.37,-0.70
115705250,-0.17,0.37,-0.70
115707212,-0.17,0.37,-0.70
115709210,-0.17,0.37,-0.70
115711207,-0.17,0.37,-0.70
115713211,-0.12,0.39,-0.60
115715232,-0.12,0.39,-0.60
115717212,-0.12,0.39,-0.60
115719213,-0.12,0.39,-0.60
115721208,-0.12,0.39,-0.60
115723204,-0.08,0.46,-0.54
115725210,-0.08,0.46,-0.54
115727211,-0.08,0.46,-0.54
115729206,-0.08,0.46,-0.54
115731208,-0.08,0.46,-0.54
115733252,-0.03,0.48,-0.53
115735250,-0.03,0.48,-0.53
115737257,-0.03,0.48,-0.53
115739253,-0.03,0.48,-0.53
115741265,-0.03,0.48,-0.53
115743251,0.00,0.43,-0.48
115745210,0.00,0.43,-0.48
115747208,0.00,0.43,-0.48
115749214,0.00,0.43,-0.48
115751211,0.00,0.43,-0.48
115753216,0.00,0.35,-0.38
115755212,0.00,0.35,-0.38
115757218,0.00,0.35,-0.38
115759280,0.00,0.35,-0.38
115761252,0.00,0.35,-0.38
115763208,0.00,0.35,-0.38
115765230,0.00,0.27,-0.35
115767210,0.00,0.27,-0.35
115769210,0.00,0.27,-0.35
115771205,0.00,0.27,-0.35
115773262,0.00,0.27,-0.35
115775338,0.00,0.25,-0.40
115777274,0.00,0.25,-0.40
115779276,0.00,0.25,-0.40
115781248,0.00,0.25,-0.40
115783245,0.00,0.25,-0.40
115785255,0.00,0.29,-0.45
115787288,0.00,0.29,-0.45
115789276,0.00,0.29,-0.45
115791268,0.00,0.29,-0.45
115793208,0.00,0.29,-0.45
115795204,-0.00,0.31,-0.42
115797220,-0.00,0.31,-0.42
115799281,-0.00,0.31,-0.42
115801210,-0.00,0.31,-0.42
115803207,-0.00,0.31,-0.42
115805205,-0.01,0.30,-0.37
115807201,-0.01,0.30,-0.37
115809195,-0.01,0.30,-0.37
115811226,-0.01,0.30,-0.37
115813264,-0.01,0.30,-0.37
115815272,-0.02,0.33,-0.33
115817248,-0.02,0.33,-0.33
115819249,-0.02,0.33,-0.33
115821284,-0.02,0.33,-0.33
115823266,-0.02,0.33,-0.33
115825248,-0.05,0.37,-0.37
115827242,-0.05,0.37,-0.37
115829226,-0.05,0.37,-0.37
115831245,-0.05,0.37,-0.37
115833214,-0.05,0.37,-0.37
115835280,-0.06,0.44,-0.43
115837213,-0.06,0.44,-0.43
115839204,-0.06,0.44,-0.43
115841235,-0.06,0.44,-0.43
115843204,-0.06,0.44,-0.43
115845207,-0.06,0.44,-0.43
115847201,-0.08,0.50,-0.41
115849204,-0.08,0.50,-0.41
115851203,-0.08,0.50,-0.41
115853255,-0.08,0.50,-0.41
115855245,-0.08,0.50,-0.41
115857242,-0.08,0.53,-0.39
115859251,-0.08,0.53,-0.39
115861253,-0.08,0.53,-0.39
115863244,-0.08,0.53,-0.39
115865212,-0.08,0.53,-0.39
115867206,-0.10,0.56,-0.39
115869210,-0.10,0.56,-0.39
115871207,-0.10,0.56,-0.39
115873202,-0.10,0.56,-0.39
115875244,-0.10,0.56,-0.39
115877309,-0.12,0.57,-0.43
115879252,-0.12,0.57,-0.43
115881207,-0.12,0.57,-0.43
115883202,-0.12,0.57,-0.43
115885205,-0.12,0.57,-0.43
115887213,-0.13,0.59,-0.48
115889254,-0.13,0.59,-0.48
115891238,-0.13,0.59,-0.48
115893274,-0.13,0.59,-0.48
115895250,-0.13,0.59,-0.48
115897250,-0.16,0.57,-0.53
115899248,-0.16,0.57,-0.53
115901281,-0.16,0.57,-0.53
115903278,-0.16,0.57,-0.53
115905247,-0.16,0.57,-0.53
115907242,-0.19,0.56,-0.57
115909237,-0.19,0.56,-0.57
115911213,-0.19,0.56,-0.57
115913215,-0.19,0.56,-0.57
115915292,-0.19,0.56,-0.57
115917215,-0.25,0.62,-0.55
115919207,-0.25,0.62,-0.55
115921205,-0.25,0.62,-0.55
115923195,-0.25,0.62,-0.55
115925216,-0.25,0.62,-0.55
115927256,-0.25,0.62,-0.55
115929215,-0.31,0.63,-0.56
115931241,-0.31,0.63,-0.56
115933272,-0.31,0.63,-0.56
115935249,-0.31,0.63,-0.56
115937247,-0.31,0.63,-0.56
115939251,-0.37,0.71,-0.58
115941381,-0.37,0.71,-0.58
115943261,-0.37,0.71,-0.58
115945245,-0.37,0.71,-0.58
115947245,-0.37,0.71,-0.58
115949228,-0.45,0.82,-0.57
115951203,-0.45,0.82,-0.57
115953202,-0.45,0.82,-0.57
115955216,-0.45,0.82,-0.57
115957327,-0.45,0.82,-0.57
115959234,-0.51,0.86,-0.60
115961227,-0.51,0.86,-0.60
115963202,-0.51,0.86,-0.60
115965300,-0.51,0.86,-0.60
115967206,-0.51,0.86,-0.60
115969202,-0.60,1.03,-0.61
115971203,-0.60,1.03,-0.61
115973262,-0.60,1.03,-0.61
115975246,-0.60,1.03,-0.61
115977247,-0.60,1.03,-0.61
115979268,-0.68,1.14,-0.63
115981347,-0.68,1.14,-0.63
115983269,-0.68,1.14,-0.63
115985243,-0.68,1.14,-0.63
115987245,-0.68,1.14,-0.63
115989207,-0.73,1.21,-0.62
115991314,-0.73,1.21,-0.62
115993207,-0.73,1.21,-0.62
115995205,-0.73,1.21,-0.62
115997226,-0.73,1.21,-0.62
115999280,-0.77,1.31,-0.57
116001223,-0.77,1.31,-0.57
116003206,-0.77,1.31,-0.57
116005201,-0.77,1.31,-0.57
116007223,-0.77,1.31,-0.57
116009253,-0.82,1.35,-0.58
116011203,-0.82,1.35,-0.58
116013267,-0.82,1.35,-0.58
116015351,-0.82,1.35,-0.58
116017251,-0.82,1.35,-0.58
116019247,-0.82,1.35,-0.58
116021243,-0.92,1.44,-0.60
116023246,-0.92,1.44,-0.60
116025246,-0.92,1.44,-0.60
116027205,-0.92,1.44,-0.60
116029203,-0.92,1.44,-0.60
116031205,-0.98,1.51,-0.58
116033204,-0.98,1.51,-0.58
116035208,-0.98,1.51,-0.58
116037215,-0.98,1.51,-0.58
116039205,-0.98,1.51,-0.58
116041289,-0.98,1.42,-0.57
116043210,-0.98,1.42,-0.57
116045275,-0.98,1.42,-0.57
116047248,-0.98,1.42,-0.57
116049205,-0.98,1.42,-0.57
116051195,-0.95,1.31,-0.62
116053263,-0.95,1.31,-0.62
116055246,-0.95,1.31,-0.62
116057247,-0.95,1.31,-0.62
116059252,-0.95,1.31,-0.62
116061271,-0.89,1.27,-0.74
116063263,-0.89,1.27,-0.74
116065361,-0.89,1.27,-0.74
116067253,-0.89,1.27,-0.74
116069207,-0.89,1.27,-0.74
116071205,-0.82,1.13,-0.80
116073286,-0.82,1.13,-0.80
116075235,-0.82,1.13,-0.80
116077205,-0.82,1.13,-0.80
116079241,-0.82,1.13,-0.80
116081222,-0.74,0.93,-0.70
116083256,-0.74,0.93,-0.70
116085207,-0.74,0.93,-0.70
116087202,-0.74,0.93,-0.70
116089208,-0.74,0.93,-0.70
116091313,-0.67,0.73,-0.61
116093313,-0.67,0.73,-0.61
116095251,-0.67,0.73,-0.61
116097245,-0.67,0.73,-0.61
116099255,-0.67,0.73,-0.61
116101290,-0.67,0.73,-0.61
116103256,-0.61,0.56,-0.64
116105247,-0.61,0.56,-0.64
116107243,-0.61,0.56,-0.64
116109242,-0.61,0.56,-0.64
116111201,-0.61,0.56,-0.64
116113203,-0.54,0.48,-0.73
116115297,-0.54,0.48,-0.73
116117216,-0.54,0.48,-0.73
116119214,-0.54,0.48,-0.73
116121280,-0.54,0.48,-0.73
116123224,-0.47,0.42,-0.77
116125202,-0.47,0.42,-0.77
116127203,-0.47,0.42,-0.77
116129195,-0.47,0.42,-0.77
116131259,-0.47,0.42,-0.77
116133286,-0.39,0.39,-0.70
116135262,-0.39,0.39,-0.70
116137252,-0.39,0.39,-0.70
116139244,-0.39,0.39,-0.70
116141342,-0.39,0.39,-0.70
116143254,-0.30,0.39,-0.55
116145248,-0.30,0.39,-0.55
116147248,-0.30,0.39,-0.55
116149207,-0.30,0.39,-0.55
116151205,-0.30,0.39,-0.55
116153204,-0.21,0.43,-0.41
116155206,-0.21,0.43,-0.41
116157203,-0.21,0.43,-0.41
116159214,-0.21,0.43,-0.41
116161221,-0.21,0.43,-0.41
116163205,-0.13,0.48,-0.38
116165283,-0.13,0.48,-0.38
116167211,-0.13,0.48,-0.38
116169206,-0.13,0.48,-0.38
116171205,-0.13,0.48,-0.38
116173253,-0.06,0.55,-0.41
116175245,-0.06,0.55,-0.41
116177246,-0.06,0.55,-0.41
116179271,-0.06,0.55,-0.41
116181245,-0.06,0.55,-0.41
116183246,-0.01,0.60,-0.40
116185267,-0.01,0.60,-0.40
116187259,-0.01,0.60,-0.40
116189205,-0.01,0.60,-0.40
116191314,-0.01,0.60,-0.40
116193204,-0.01,0.60,-0.40
116195203,0.04,0.57,-0.36
116197206,0.04,0.57,-0.36
116199202,0.04,0.57,-0.36
116201195,0.04,0.57,-0.36
116203251,0.04,0.57,-0.36
116205244,0.05,0.56,-0.31
116207205,0.05,0.56,-0.31
116209205,0.05,0.56,-0.31
116211202,0.05,0.56,-0.31
116213270,0.05,0.56,-0.31
116215348,0.06,0.60,-0.31
116217254,0.06,0.60,-0.31
116219286,0.06,0.60,-0.31
116221272,0.06,0.60,-0.31
116223251,0.06,0.60,-0.31
116225247,0.04,0.59,-0.38
116227245,0.04,0.59,-0.38
116229242,0.04,0.59,-0.38
116231203,0.04,0.59,-0.38
116233205,0.04,0.59,-0.38
116235206,0.02,0.57,-0.43
116237221,0.02,0.57,-0.43
116239269,0.02,0.57,-0.43
116241353,0.02,0.57,-0.43
116243212,0.02,0.57,-0.43
116245206,-0.02,0.54,-0.43
116247210,-0.02,0.54,-0.43
116249239,-0.02,0.54,-0.43
116251256,-0.02,0.54,-0.43
116253270,-0.02,0.54,-0.43
116255248,-0.07,0.52,-0.44
116257254,-0.07,0.52,-0.44
116259270,-0.07,0.52,-0.44
116261271,-0.07,0.52,-0.44
116263269,-0.07,0.52,-0.44
116265350,-0.11,0.49,-0.47
116267251,-0.11,0.49,-0.47
116269244,-0.11,0.49,-0.47
116271210,-0.11,0.49,-0.47
116273205,-0.11,0.49,-0.47
116275204,-0.11,0.49,-0.47
116277204,-0.16,0.42,-0.49
116279248,-0.16,0.42,-0.49
116281202,-0.16,0.42,-0.49
116283202,-0.16,0.42,-0.49
116285206,-0.16,0.42,-0.49
116287207,-0.20,0.33,-0.47
116289205,-0.20,0.33,-0.47
116291295,-0.20,0.33,-0.47
116293254,-0.20,0.33,-0.47
116295247,-0.20,0.33,-0.47
116297247,-0.24,0.25,-0.46
116299246,-0.24,0.25,-0.46
116301246,-0.24,0.25,-0.46
116303244,-0.24,0.25,-0.46
116305205,-0.24,0.25,-0.46
116307205,-0.25,0.20,-0.52
116309206,-0.25,0.20,-0.52
116311207,-0.25,0.20,-0.52
116313206,-0.25,0.20,-0.52
116315289,-0.25,0.20,-0.52
116317211,-0.25,0.14,-0.64
116319203,-0.25,0.14,-0.64
116321205,-0.25,0.14,-0.64
116323205,-0.25,0.14,-0.64
116325206,-0.25,0.14,-0.64
116327212,-0.23,0.09,-0.68
116329205,-0.23,0.09,-0.68
116331210,-0.23,0.09,-0.68
116333247,-0.23,0.09,-0.68
116335246,-0.23,0.09,-0.68
116337253,-0.21,0.08,-0.62
116339267,-0.21,0.08,-0.62
116341364,-0.21,0.08,-0.62
116343275,-0.21,0.08,-0.62
116345285,-0.21,0.08,-0.62
116347248,-0.16,0.08,-0.62
116349245,-0.16,0.08,-0.62
116351206,-0.16,0.08,-0.62
116353204,-0.16,0.08,-0.62
116355205,-0.16,0.08,-0.62
116357208,-0.16,0.08,-0.62
116359207,-0.12,0.10,-0.73
116361224,-0.12,0.10,-0.73
116363205,-0.12,0.10,-0.73
116365305,-0.12,0.10,-0.73
116367210,-0.12,0.10,-0.73
116369238,-0.11,0.17,-0.78
116371278,-0.11,0.17,-0.78
116373262,-0.11,0.17,-0.78
116375254,-0.11,0.17,-0.78
116377268,-0.11,0.17,-0.78
116379271,-0.13,0.28,-0.74
116381278,-0.13,0.28,-0.74
116383244,-0.13,0.28,-0.74
116385244,-0.13,0.28,-0.74
116387288,-0.13,0.28,-0.74
116389272,-0.18,0.37,-0.67
116391347,-0.18,0.37,-0.67
116393212,-0.18,0.37,-0.67
116395205,-0.18,0.37,-0.67
116397307,-0.18,0.37,-0.67
116399230,-0.27,0.50,-0.68
116401206,-0.27,0.50,-0.68
116403236,-0.27,0.50,-0.68
116405251,-0.27,0.50,-0.68
116407204,-0.27,0.50,-0.68
116409204,-0.39,0.69,-0.77
116411194,-0.39,0.69,-0.77
116413268,-0.39,0.69,-0.77
116415350,-0.39,0.69,-0.77
116417253,-0.39,0.69,-0.77
116419245,-0.49,0.89,-0.82
116421248,-0.49,0.89,-0.82
116423245,-0.49,0.89,-0.82
116425246,-0.49,0.89,-0.82
116427206,-0.49,0.89,-0.82
116429207,-0.59,0.98,-0.78
116431205,-0.59,0.98,-0.78
116433208,-0.59,0.98,-0.78
116435204,-0.59,0.98,-0.78
116437207,-0.59,0.98,-0.78
116439205,-0.68,1.08,-0.71
116441286,-0.68,1.08,-0.71
116443208,-0.68,1.08,-0.71
116445204,-0.68,1.08,-0.71
116447203,-0.68,1.08,-0.71
116449207,-0.68,1.08,-0.71
116451211,-0.75,1.09,-0.74
116453252,-0.75,1.09,-0.74
116455248,-0.75,1.09,-0.74
116457252,-0.75,1.09,-0.74
116459251,-0.75,1.09,-0.74
116461253,-0.82,1.10,-0.79
116463245,-0.82,1.10,-0.79
116465286,-0.82,1.10,-0.79
116467212,-0.82,1.10,-0.79
116469193,-0.82,1.10,-0.79
116471203,-0.89,1.07,-0.77
116473204,-0.89,1.07,-0.77
116475204,-0.89,1.07,-0.77
116477206,-0.89,1.07,-0.77
116479205,-0.89,1.07,-0.77
116481246,-0.88,1.01,-0.81
116483203,-0.88,1.01,-0.81
116485204,-0.88,1.01,-0.81
116487194,-0.88,1.01,-0.81
116489203,-0.88,1.01,-0.81
116491285,-0.80,0.93,-0.98
116493251,-0.80,0.93,-0.98
116495246,-0.80,0.93,-0.98
116497246,-0.80,0.93,-0.98
116499246,-0.80,0.93,-0.98
116501265,-0.68,0.93,-1.25
116503280,-0.68,0.93,-1.25
116505253,-0.68,0.93,-1.25
116507206,-0.68,0.93,-1.25
116509202,-0.68,0.93,-1.25
116511206,-0.53,0.99,-1.37
116513205,-0.53,0.99,-1.37
116515303,-0.53,0.99,-1.37
116517213,-0.53,0.99,-1.37
116519212,-0.53,0.99,-1.37
116521211,-0.41,1.06,-1.21
116523213,-0.41,1.06,-1.21
116525208,-0.41,1.06,-1.21
116527208,-0.41,1.06,-1.21
116529203,-0.41,1.06,-1.21
116531206,-0.41,1.06,-1.21
116533250,-0.30,1.19,-1.11
116535249,-0.30,1.19,-1.11
116537254,-0.30,1.19,-1.11
116539248,-0.30,1.19,-1.11
116541315,-0.30,1.19,-1.11
116543249,-0.20,1.41,-1.12
116545211,-0.20,1.41,-1.12
116547203,-0.20,1.41,-1.12
116549206,-0.20,1.41,-1.12
116551204,-0.20,1.41,-1.12
116553204,-0.11,1.61,-0.92
116555207,-0.11,1.61,-0.92
116557208,-0.11,1.61,-0.92
116559205,-0.11,1.61,-0.92
116561217,-0.11,1.61,-0.92
116563203,-0.05,1.62,-0.54
116565281,-0.05,1.62,-0.54
116567235,-0.05,1.62,-0.54
116569257,-0.05,1.62,-0.54
116571206,-0.05,1.62,-0.54
116573260,-0.07,1.55,-0.30
116575246,-0.07,1.55,-0.30
116577247,-0.07,1.55,-0.30
116579247,-0.07,1.55,-0.30
116581266,-0.07,1.55,-0.30
116583246,-0.10,1.44,-0.36
116585233,-0.10,1.44,-0.36
116587206,-0.10,1.44,-0.36
116589213,-0.10,1.44,-0.36
116591312,-0.10,1.44,-0.36
116593207,-0.16,1.23,-0.62
116595205,-0.16,1.23,-0.62
116597204,-0.16,1.23,-0.62
116599278,-0.16,1.23,-0.62
116601246,-0.16,1.23,-0.62
116603202,-0.21,1.01,-0.77
116605203,-0.21,1.01,-0.77
116607205,-0.21,1.01,-0.77
116609206,-0.21,1.01,-0.77
116611203,-0.21,1.01,-0.77
116613258,-0.22,0.76,-0.74
116615345,-0.22,0.76,-0.74
116617243,-0.22,0.76,-0.74
116619244,-0.22,0.76,-0.74
116621244,-0.22,0.76,-0.74
116623239,-0.22,0.76,-0.74
116625205,-0.23,0.57,-0.70
116627205,-0.23,0.57,-0.70
116629210,-0.23,0.57,-0.70
116631323,-0.23,0.57,-0.70
116633229,-0.23,0.57,-0.70
116635203,-0.22,0.41,-0.75
116637206,-0.22,0.41,-0.75
116639204,-0.22,0.41,-0.75
116641305,-0.22,0.41,-0.75
116643205,-0.22,0.41,-0.75
116645204,-0.19,0.36,-0.81
116647202,-0.19,0.36,-0.81
116649205,-0.19,0.36,-0.81
116651194,-0.19,0.36,-0.81
116653261,-0.19,0.36,-0.81
116655243,-0.16,0.33,-0.81
116657246,-0.16,0.33,-0.81
116659250,-0.16,0.33,-0.81
116661254,-0.16,0.33,-0.81
116663248,-0.16,0.33,-0.81
116665282,-0.13,0.29,-0.75
116667207,-0.13,0.29,-0.75
116669203,-0.13,0.29,-0.75
116671193,-0.13,0.29,-0.75
116673204,-0.13,0.29,-0.75
116675207,-0.09,0.27,-0.68
116677205,-0.09,0.27,-0.68
116679208,-0.09,0.27,-0.68
116681243,-0.09,0.27,-0.68
116683213,-0.09,0.27,-0.68
116685296,-0.06,0.27,-0.63
116687229,-0.06,0.27,-0.63
116689205,-0.06,0.27,-0.63
116691306,-0.06,0.27,-0.63
116693258,-0.06,0.27,-0.63
116695247,-0.03,0.25,-0.59
116697245,-0.03,0.25,-0.59
116699244,-0.03,0.25,-0.59
116701244,-0.03,0.25,-0.59
116703243,-0.03,0.25,-0.59
116705211,-0.03,0.25,-0.59
116707204,0.00,0.25,-0.51
116709208,0.00,0.25,-0.51
116711204,0.00,0.25,-0.51
116713205,0.00,0.25,-0.51
116715281,0.00,0.25,-0.51
116717208,0.02,0.25,-0.43
116719268,0.02,0.25,-0.43
116721254,0.02,0.25,-0.43
116723205,0.02,0.25,-0.43
116725205,0.02,0.25,-0.43
116727205,0.04,0.25,-0.37
116729205,0.04,0.25,-0.37
116731206,0.04,0.25,-0.37
116733260,0.04,0.25,-0.37
116735243,0.04,0.25,-0.37
116737246,0.06,0.28,-0.35
116739246,0.06,0.28,-0.35
116741341,0.06,0.28,-0.35
116743249,0.06,0.28,-0.35
116745210,0.06,0.28,-0.35
116747208,0.06,0.31,-0.38
116749206,0.06,0.31,-0.38
116751205,0.06,0.31,-0.38
116753211,0.06,0.31,-0.38
116755205,0.06,0.31,-0.38
116757205,0.06,0.36,-0.38
116759207,0.06,0.36,-0.38
116761226,0.06,0.36,-0.38
116763210,0.06,0.36,-0.38
116765282,0.06,0.36,-0.38
116767208,0.04,0.39,-0.37
116769207,0.04,0.39,-0.37
116771205,0.04,0.39,-0.37
116773252,0.04,0.39,-0.37
116775310,0.04,0.39,-0.37
116777245,0.04,0.45,-0.37
116779249,0.04,0.45,-0.37
116781264,0.04,0.45,-0.37
116783243,0.04,0.45,-0.37
116785222,0.04,0.45,-0.37
116787223,0.04,0.45,-0.37
116789205,0.02,0.49,-0.39
116791301,0.02,0.49,-0.39
116793211,0.02,0.49,-0.39
116795213,0.02,0.49,-0.39
116797207,0.02,0.49,-0.39
116799205,0.00,0.50,-0.38
116801205,0.00,0.50,-0.38
116803204,0.00,0.50,-0.38
116805206,0.00,0.50,-0.38
116807210,0.00,0.50,-0.38
116809209,-0.04,0.51,-0.35
116811224,-0.04,0.51,-0.35
116813258,-0.04,0.51,-0.35
116815362,-0.04,0.51,-0.35
116817269,-0.04,0.51,-0.35
116819247,-0.06,0.48,-0.38
116821248,-0.06,0.48,-0.38
116823249,-0.06,0.48,-0.38
116825245,-0.06,0.48,-0.38
116827244,-0.06,0.48,-0.38
116829207,-0.11,0.51,-0.42
116831204,-0.11,0.51,-0.42
116833203,-0.11,0.51,-0.42
116835204,-0.11,0.51,-0.42
116837241,-0.11,0.51,-0.42
116839293,-0.17,0.55,-0.48
116841332,-0.17,0.55,-0.48
116843206,-0.17,0.55,-0.48
116845201,-0.17,0.55,-0.48
116847202,-0.17,0.55,-0.48
116849202,-0.25,0.64,-0.51
116851208,-0.25,0.64,-0.51
116853259,-0.25,0.64,-0.51
116855280,-0.25,0.64,-0.51
116857252,-0.25,0.64,-0.51
116859259,-0.33,0.73,-0.51
116861258,-0.33,0.73,-0.51
116863307,-0.33,0.73,-0.51
116865355,-0.33,0.73,-0.51
116867251,-0.33,0.73,-0.51
116869245,-0.41,0.78,-0.50
116871207,-0.41,0.78,-0.50
116873204,-0.41,0.78,-0.50
116875278,-0.41,0.78,-0.50
116877245,-0.41,0.78,-0.50
116879207,-0.41,0.78,-0.50
116881239,-0.52,0.88,-0.54
116883203,-0.52,0.88,-0.54
116885195,-0.52,0.88,-0.54
116887195,-0.52,0.88,-0.54
116889201,-0.52,0.88,-0.54
116891308,-0.64,1.01,-0.61
116893269,-0.64,1.01,-0.61
116895247,-0.64,1.01,-0.61
116897244,-0.64,1.01,-0.61
116899247,-0.64,1.01,-0.61
116901254,-0.73,1.12,-0.69
116903251,-0.73,1.12,-0.69
116905232,-0.73,1.12,-0.69
116907239,-0.73,1.12,-0.69
116909335,-0.73,1.12,-0.69
116911232,-0.82,1.20,-0.64
116913204,-0.82,1.20,-0.64
116915299,-0.82,1.20,-0.64
116917226,-0.82,1.20,-0.64
116919205,-0.82,1.20,-0.64
116921204,-0.89,1.21,-0.56
116923202,-0.89,1.21,-0.56
116925194,-0.89,1.21,-0.56
116927204,-0.89,1.21,-0.56
116929203,-0.89,1.21,-0.56
116931203,-0.93,1.24,-0.55
116933258,-0.93,1.24,-0.55
116935248,-0.93,1.24,-0.55
116937245,-0.93,1.24,-0.55
116939286,-0.93,1.24,-0.55
116941377,-0.96,1.27,-0.62
116943246,-0.96,1.27,-0.62
116945243,-0.96,1.27,-0.62
116947244,-0.96,1.27,-0.62
116949203,-0.96,1.27,-0.62
116951205,-1.04,1.38,-0.59
116953212,-1.04,1.38,-0.59
116955252,-1.04,1.38,-0.59
116957221,-1.04,1.38,-0.59
116959207,-1.04,1.38,-0.59
116961337,-1.09,1.50,-0.50
116963234,-1.09,1.50,-0.50
116965298,-1.09,1.50,-0.50
116967205,-1.09,1.50,-0.50
116969242,-1.09,1.50,-0.50
116971246,-1.09,1.50,-0.50
116973270,-1.06,1.46,-0.44
116975251,-1.06,1.46,-0.44
116977253,-1.06,1.46,-0.44
116979261,-1.06,1.46,-0.44
116981271,-1.06,1.46,-0.44
116983276,-1.04,1.36,-0.40
116985245,-1.04,1.36,-0.40
116987257,-1.04,1.36,-0.40
116989302,-1.04,1.36,-0.40
116991367,-1.04,1.36,-0.40
116993242,-1.00,1.36,-0.46
116995204,-1.00,1.36,-0.46
116997236,-1.00,1.36,-0.46
116999280,-1.00,1.36,-0.46
117001221,-1.00,1.36,-0.46
117003206,-0.92,1.23,-0.59
117005205,-0.92,1.23,-0.59
117007205,-0.92,1.23,-0.59
117009202,-0.92,1.23,-0.59
117011203,-0.92,1.23,-0.59
117013257,-0.83,1.07,-0.57
117015352,-0.83,1.07,-0.57
117017292,-0.83,1.07,-0.57
117019271,-0.83,1.07,-0.57
117021246,-0.83,1.07,-0.57
117023245,-0.75,0.86,-0.52
117025250,-0.75,0.86,-0.52
117027271,-0.75,0.86,-0.52
117029264,-0.75,0.86,-0.52
117031195,-0.75,0.86,-0.52
117033204,-0.66,0.65,-0.53
117035208,-0.66,0.65,-0.53
117037270,-0.66,0.65,-0.53
117039226,-0.66,0.65,-0.53
117041309,-0.66,0.65,-0.53
117043201,-0.56,0.51,-0.58
117045202,-0.56,0.51,-0.58
117047201,-0.56,0.51,-0.58
117049211,-0.56,0.51,-0.58
117051204,-0.56,0.51,-0.58
117053254,-0.56,0.51,-0.58
117055244,-0.48,0.38,-0.64
117057243,-0.48,0.38,-0.64
117059251,-0.48,0.38,-0.64
117061254,-0.48,0.38,-0.64
117063245,-0.48,0.38,-0.64
117065280,-0.38,0.33,-0.66
117067210,-0.38,0.33,-0.66
117069211,-0.38,0.33,-0.66
117071205,-0.38,0.33,-0.66
117073205,-0.38,0.33,-0.66
117075204,-0.27,0.32,-0.61
117077203,-0.27,0.32,-0.61
117079205,-0.27,0.32,-0.61
117081256,-0.27,0.32,-0.61
117083276,-0.27,0.32,-0.61
117085248,-0.17,0.34,-0.51
117087206,-0.17,0.34,-0.51
117089203,-0.17,0.34,-0.51
117091314,-0.17,0.34,-0.51
117093264,-0.17,0.34,-0.51
117095280,-0.10,0.38,-0.45
117097254,-0.10,0.38,-0.45
117099254,-0.10,0.38,-0.45
117101277,-0.10,0.38,-0.45
117103289,-0.10,0.38,-0.45
117105258,-0.02,0.43,-0.44
117107242,-0.02,0.43,-0.44
117109242,-0.02,0.43,-0.44
117111270,-0.02,0.43,-0.44
117113257,-0.02,0.43,-0.44
117115302,0.02,0.48,-0.44
117117216,0.02,0.48,-0.44
117119202,0.02,0.48,-0.44
117121195,0.02,0.48,-0.44
117123201,0.02,0.48,-0.44
117125202,0.06,0.54,-0.42
117127204,0.06,0.54,-0.42
117129236,0.06,0.54,-0.42
117131246,0.06,0.54,-0.42
117133265,0.06,0.54,-0.42
117135259,0.06,0.54,-0.42
117137251,0.08,0.57,-0.38
117139247,0.08,0.57,-0.38
117141385,0.08,0.57,-0.38
117143263,0.08,0.57,-0.38
117145258,0.08,0.57,-0.38
117147246,0.08,0.64,-0.37
117149245,0.08,0.64,-0.37
117151210,0.08,0.64,-0.37
117153206,0.08,0.64,-0.37
117155204,0.08,0.64,-0.37
117157204,0.07,0.71,-0.41
117159252,0.07,0.71,-0.41
117161265,0.07,0.71,-0.41
117163223,0.07,0.71,-0.41
117165304,0.07,0.71,-0.41
117167217,0.04,0.74,-0.46
117169204,0.04,0.74,-0.46
117171202,0.04,0.74,-0.46
117173251,0.04,0.74,-0.46
117175244,0.04,0.74,-0.46
117177247,-0.02,0.74,-0.47
117179249,-0.02,0.74,-0.47
117181244,-0.02,0.74,-0.47
117183245,-0.02,0.74,-0.47
117185245,-0.02,0.74,-0.47
117187203,-0.08,0.66,-0.47
117189202,-0.08,0.66,-0.47
117191294,-0.08,0.66,-0.47
117193204,-0.08,0.66,-0.47
117195204,-0.08,0.66,-0.47
117197204,-0.13,0.55,-0.50
117199204,-0.13,0.55,-0.50
117201201,-0.13,0.55,-0.50
117203202,-0.13,0.55,-0.50
117205202,-0.13,0.55,-0.50
117207284,-0.19,0.48,-0.55
117209244,-0.19,0.48,-0.55
117211203,-0.19,0.48,-0.55
117213256,-0.19,0.48,-0.55
117215346,-0.19,0.48,-0.55
117217253,-0.19,0.48,-0.55
117219248,-0.23,0.37,-0.61
117221247,-0.23,0.37,-0.61
117223245,-0.23,0.37,-0.61
117225204,-0.23,0.37,-0.61
117227205,-0.23,0.37,-0.61
117229203,-0.26,0.25,-0.66
117231206,-0.26,0.25,-0.66
117233203,-0.26,0.25,-0.66
117235204,-0.26,0.25,-0.66
117237203,-0.26,0.25,-0.66
117239204,-0.26,0.12,-0.71
117241284,-0.26,0.12,-0.71
117243210,-0.26,0.12,-0.71
117245211,-0.26,0.12,-0.71
117247206,-0.26,0.12,-0.71
117249202,-0.26,0.07,-0.74
117251213,-0.26,0.07,-0.74
117253255,-0.26,0.07,-0.74
117255244,-0.26,0.07,-0.74
117257245,-0.26,0.07,-0.74
117259257,-0.24,0.01,-0.79
117261253,-0.24,0.01,-0.79
117263280,-0.24,0.01,-0.79
117265334,-0.24,0.01,-0.79
117267204,-0.24,0.01,-0.79
117269204,-0.20,0.02,-0.83
117271203,-0.20,0.02,-0.83
117273205,-0.20,0.02,-0.83
117275219,-0.20,0.02,-0.83
117277322,-0.20,0.02,-0.83
117279238,-0.17,0.11,-0.84
117281204,-0.17,0.11,-0.84
117283206,-0.17,0.11,-0.84
117285248,-0.17,0.11,-0.84
117287215,-0.17,0.11,-0.84
117289206,-0.16,0.23,-0.82
117291306,-0.16,0.23,-0.82
117293265,-0.16,0.23,-0.82
117295245,-0.16,0.23,-0.82
117297246,-0.16,0.23,-0.82
117299244,-0.19,0.37,-0.81
117301242,-0.19,0.37,-0.81
117303284,-0.19,0.37,-0.81
117305272,-0.19,0.37,-0.81
117307248,-0.19,0.37,-0.81
117309206,-0.19,0.37,-0.81
117311204,-0.24,0.48,-0.77
117313204,-0.24,0.48,-0.77
117315308,-0.24,0.48,-0.77
117317282,-0.24,0.48,-0.77
117319227,-0.24,0.48,-0.77
117321204,-0.31,0.62,-0.70
117323207,-0.31,0.62,-0.70
117325215,-0.31,0.62,-0.70
117327255,-0.31,0.62,-0.70
117329205,-0.31,0.62,-0.70
117331191,-0.39,0.79,-0.67
117333266,-0.39,0.79,-0.67
117335247,-0.39,0.79,-0.67
117337245,-0.39,0.79,-0.67
117339249,-0.39,0.79,-0.67
117341348,-0.47,0.91,-0.66
117343247,-0.47,0.91,-0.66
117345246,-0.47,0.91,-0.66
117347210,-0.47,0.91,-0.66
117349206,-0.47,0.91,-0.66
117351209,-0.53,0.98,-0.61
117353205,-0.53,0.98,-0.61
117355203,-0.53,0.98,-0.61
117357205,-0.53,0.98,-0.61
117359210,-0.53,0.98,-0.61
117361222,-0.61,1.03,-0.60
117363205,-0.61,1.03,-0.60
117365280,-0.61,1.03,-0.60
117367210,-0.61,1.03,-0.60
117369206,-0.61,1.03,-0.60
117371374,-0.75,1.09,-0.70
117373284,-0.75,1.09,-0.70
117375283,-0.75,1.09,-0.70
117377254,-0.75,1.09,-0.70
117379250,-0.75,1.09,-0.70
117381252,-0.90,1.20,-0.81
117383251,-0.90,1.20,-0.81
117385271,-0.90,1.20,-0.81
117387279,-0.90,1.20,-0.81
117389261,-0.90,1.20,-0.81
117391345,-0.95,1.20,-0.77
117393211,-0.95,1.20,-0.77
117395217,-0.95,1.20,-0.77
117397303,-0.95,1.20,-0.77
117399233,-0.95,1.20,-0.77
117401210,-0.95,1.20,-0.77
117403222,-0.87,0.96,-0.82
117405252,-0.87,0.96,-0.82
117407209,-0.87,0.96,-0.82
117409210,-0.87,0.96,-0.82
117411206,-0.87,0.96,-0.82
117413206,-0.75,0.74,-1.05
117415362,-0.75,0.74,-1.05
117417256,-0.75,0.74,-1.05
117419248,-0.75,0.74,-1.05
117421257,-0.75,0.74,-1.05
117423305,-0.60,0.62,-1.31
117425271,-0.60,0.62,-1.31
117427249,-0.60,0.62,-1.31
117429253,-0.60,0.62,-1.31
117431254,-0.60,0.62,-1.31
117433270,-0.49,0.59,-1.38
117435231,-0.49,0.59,-1.38
117437206,-0.49,0.59,-1.38
117439206,-0.49,0.59,-1.38
117441321,-0.49,0.59,-1.38
117443255,-0.39,0.79,-1.23
117445206,-0.39,0.79,-1.23
117447204,-0.39,0.79,-1.23
117449203,-0.39,0.79,-1.23
117451204,-0.39,0.79,-1.23
117453205,-0.31,1.05,-1.14
117455277,-0.31,1.05,-1.14
117457251,-0.31,1.05,-1.14
117459258,-0.31,1.05,-1.14
117461259,-0.31,1.05,-1.14
117463253,-0.26,1.29,-1.12
117465355,-0.26,1.29,-1.12
117467276,-0.26,1.29,-1.12
117469258,-0.26,1.29,-1.12
117471248,-0.26,1.29,-1.12
117473215,-0.26,1.29,-1.12
117475211,-0.21,1.63,-0.89
117477211,-0.21,1.63,-0.89
117479216,-0.21,1.63,-0.89
117481211,-0.21,1.63,-0.89
117483210,-0.21,1.63,-0.89
117485251,-0.18,1.70,-0.54
117487343,-0.18,1.70,-0.54
117489246,-0.18,1.70,-0.54
117491311,-0.18,1.70,-0.54
117493206,-0.18,1.70,-0.54
117495259,-0.19,1.52,-0.30
117497258,-0.19,1.52,-0.30
117499272,-0.19,1.52,-0.30
117501260,-0.19,1.52,-0.30
117503249,-0.19,1.52,-0.30
117505249,-0.23,1.32,-0.29
117507274,-0.23,1.32,-0.29
117509263,-0.23,1.32,-0.29
117511254,-0.23,1.32,-0.29
117513216,-0.23,1.32,-0.29
117515308,-0.27,1.08,-0.54
117517216,-0.27,1.08,-0.54
117519207,-0.27,1.08,-0.54
117521206,-0.27,1.08,-0.54
117523207,-0.27,1.08,-0.54
117525208,-0.29,0.89,-0.80
117527209,-0.29,0.89,-0.80
117529212,-0.29,0.89,-0.80
117531210,-0.29,0.89,-0.80
117533210,-0.29,0.89,-0.80
117535254,-0.32,0.73,-0.81
117537254,-0.32,0.73,-0.81
117539249,-0.32,0.73,-0.81
117541322,-0.32,0.73,-0.81
117543253,-0.32,0.73,-0.81
117545246,-0.31,0.54,-0.74
117547208,-0.31,0.54,-0.74
117549206,-0.31,0.54,-0.74
117551207,-0.31,0.54,-0.74
117553206,-0.31,0.54,-0.74
117555211,-0.30,0.45,-0.75
117557211,-0.30,0.45,-0.75
117559211,-0.30,0.45,-0.75
117561223,-0.30,0.45,-0.75
117563212,-0.30,0.45,-0.75
117565286,-0.30,0.45,-0.75
117567208,-0.27,0.43,-0.84
117569255,-0.27,0.43,-0.84
117571306,-0.27,0.43,-0.84
117573241,-0.27,0.43,-0.84
117575270,-0.27,0.43,-0.84
117577254,-0.25,0.42,-0.84
117579246,-0.25,0.42,-0.84
117581244,-0.25,0.42,-0.84
117583248,-0.25,0.42,-0.84
117585268,-0.25,0.42,-0.84
117587248,-0.23,0.37,-0.72
117589205,-0.23,0.37,-0.72
117591316,-0.23,0.37,-0.72
117593206,-0.23,0.37,-0.72
117595204,-0.23,0.37,-0.72
117597204,-0.18,0.32,-0.61
117599203,-0.18,0.32,-0.61
117601193,-0.18,0.32,-0.61
117603204,-0.18,0.32,-0.61
117605204,-0.18,0.32,-0.61
117607204,-0.13,0.33,-0.54
117609205,-0.13,0.33,-0.54
117611204,-0.13,0.33,-0.54
117613203,-0.13,0.33,-0.54
117615326,-0.13,0.33,-0.54
117617249,-0.08,0.36,-0.50
117619244,-0.08,0.36,-0.50
117621247,-0.08,0.36,-0.50
117623243,-0.08,0.36,-0.50
117625246,-0.08,0.36,-0.50
117627274,-0.03,0.36,-0.47
117629255,-0.03,0.36,-0.47
117631210,-0.03,0.36,-0.47
117633205,-0.03,0.36,-0.47
117635203,-0.03,0.36,-0.47
117637212,0.02,0.38,-0.41
117639206,0.02,0.38,-0.41
117641310,0.02,0.38,-0.41
117643208,0.02,0.38,-0.41
117645204,0.02,0.38,-0.41
117647206,0.02,0.38,-0.41
117649208,0.06,0.36,-0.38
117651192,0.06,0.36,-0.38
117653195,0.06,0.36,-0.38
117655261,0.06,0.36,-0.38
117657244,0.06,0.36,-0.38
117659248,0.08,0.41,-0.35
117661264,0.08,0.41,-0.35
117663249,0.08,0.41,-0.35
117665334,0.08,0.41,-0.35
117667254,0.08,0.41,-0.35
117669210,0.10,0.45,-0.36
117671205,0.10,0.45,-0.36
117673207,0.10,0.45,-0.36
117675204,0.10,0.45,-0.36
117677204,0.10,0.45,-0.36
117679205,0.11,0.45,-0.36
117681205,0.11,0.45,-0.36
117683207,0.11,0.45,-0.36
117685242,0.11,0.45,-0.36
117687195,0.11,0.45,-0.36
117689194,0.10,0.45,-0.32
117691294,0.10,0.45,-0.32
117693206,0.10,0.45,-0.32
117695261,0.10,0.45,-0.32
117697244,0.10,0.45,-0.32
117699244,0.08,0.45,-0.31
117701247,0.08,0.45,-0.31
117703251,0.08,0.45,-0.31
117705243,0.08,0.45,-0.31
117707203,0.08,0.45,-0.31
117709205,0.07,0.46,-0.34
117711204,0.07,0.46,-0.34
117713204,0.07,0.46,-0.34
117715280,0.07,0.46,-0.34
117717212,0.07,0.46,-0.34
117719210,0.05,0.45,-0.38
117721206,0.05,0.45,-0.38
117723206,0.05,0.45,-0.38
117725207,0.05,0.45,-0.38
117727219,0.05,0.45,-0.38
117729352,0.02,0.43,-0.37
117731233,0.02,0.43,-0.37
117733203,0.02,0.43,-0.37
117735254,0.02,0.43,-0.37
117737244,0.02,0.43,-0.37
117739250,0.02,0.43,-0.37
117741349,-0.02,0.42,-0.36
117743269,-0.02,0.42,-0.36
117745272,-0.02,0.42,-0.36
117747261,-0.02,0.42,-0.36
117749243,-0.02,0.42,-0.36
117751206,-0.07,0.43,-0.38
117753204,-0.07,0.43,-0.38
117755205,-0.07,0.43,-0.38
117757205,-0.07,0.43,-0.38
117759207,-0.07,0.43,-0.38
117761223,-0.14,0.47,-0.42
117763205,-0.14,0.47,-0.42
117765304,-0.14,0.47,-0.42
117767216,-0.14,0.47,-0.42
117769222,-0.14,0.47,-0.42
117771206,-0.21,0.51,-0.43
117773208,-0.21,0.51,-0.43
117775315,-0.21,0.51,-0.43
117777249,-0.21,0.51,-0.43
117779244,-0.21,0.51,-0.43
117781246,-0.31,0.58,-0.45
117783246,-0.31,0.58,-0.45
117785256,-0.31,0.58,-0.45
117787218,-0.31,0.58,-0.45
117789214,-0.31,0.58,-0.45
117791299,-0.44,0.67,-0.48
117793205,-0.44,0.67,-0.48
117795195,-0.44,0.67,-0.48
117797203,-0.44,0.67,-0.48
117799208,-0.44,0.67,-0.48
117801205,-0.57,0.86,-0.51
117803207,-0.57,0.86,-0.51
117805204,-0.57,0.86,-0.51
117807204,-0.57,0.86,-0.51
117809205,-0.57,0.86,-0.51
117811222,-0.73,1.11,-0.57
117813194,-0.73,1.11,-0.57
117815331,-0.73,1.11,-0.57
117817253,-0.73,1.11,-0.57
117819246,-0.73,1.11,-0.57
117821244,-0.73,1.11,-0.57
117823242,-0.86,1.34,-0.64
117825247,-0.86,1.34,-0.64
117827206,-0.86,1.34,-0.64
117829203,-0.86,1.34,-0.64
117831209,-0.86,1.34,-0.64
117833205,-0.98,1.47,-0.59
117835209,-0.98,1.47,-0.59
117837208,-0.98,1.47,-0.59
117839211,-0.98,1.47,-0.59
117841292,-0.98,1.47,-0.59
117843207,-1.05,1.48,-0.52
117845207,-1.05,1.48,-0.52
117847207,-1.05,1.48,-0.52
117849202,-1.05,1.48,-0.52
117851204,-1.05,1.48,-0.52
117853203,-1.11,1.50,-0.59
117855249,-1.11,1.50,-0.59
117857247,-1.11,1.50,-0.59
117859248,-1.11,1.50,-0.59
117861337,-1.11,1.50,-0.59
117863261,-1.14,1.49,-0.71
117865348,-1.14,1.49,-0.71
117867249,-1.14,1.49,-0.71
117869209,-1.14,1.49,-0.71
117871206,-1.14,1.49,-0.71
117873204,-1.14,1.39,-0.71
117875209,-1.14,1.39,-0.71
117877206,-1.14,1.39,-0.71
117879204,-1.14,1.39,-0.71
117881207,-1.14,1.39,-0.71
117883214,-1.11,1.32,-0.64
117885237,-1.11,1.32,-0.64
117887202,-1.11,1.32,-0.64
117889202,-1.11,1.32,-0.64
117891292,-1.11,1.32,-0.64
117893206,-1.07,1.29,-0.69
117895251,-1.07,1.29,-0.69
117897247,-1.07,1.29,-0.69
117899242,-1.07,1.29,-0.69
117901244,-1.07,1.29,-0.69
117903245,-1.07,1.29,-0.69
117905242,-1.00,1.22,-0.77
117907204,-1.00,1.22,-0.77
117909206,-1.00,1.22,-0.77
117911206,-1.00,1.22,-0.77
117913205,-1.00,1.22,-0.77
117915281,-0.93,1.08,-0.77
117917206,-0.93,1.08,-0.77
117919210,-0.93,1.08,-0.77
117921204,-0.93,1.08,-0.77
117923204,-0.93,1.08,-0.77
117925215,-0.83,0.90,-0.68
117927276,-0.83,0.90,-0.68
117929247,-0.83,0.90,-0.68
117931208,-0.83,0.90,-0.68
117933205,-0.83,0.90,-0.68
117935261,-0.73,0.74,-0.63
117937244,-0.73,0.74,-0.63
117939247,-0.73,0.74,-0.63
117941345,-0.73,0.74,-0.63
117943248,-0.73,0.74,-0.63
117945243,-0.64,0.59,-0.62
117947207,-0.64,0.59,-0.62
117949205,-0.64,0.59,-0.62
117951207,-0.64,0.59,-0.62
117953210,-0.64,0.59,-0.62
117955208,-0.57,0.52,-0.61
117957219,-0.57,0.52,-0.61
117959207,-0.57,0.52,-0.61
117961221,-0.57,0.52,-0.61
117963202,-0.57,0.52,-0.61
117965287,-0.50,0.50,-0.57
117967213,-0.50,0.50,-0.57
117969211,-0.50,0.50,-0.57
117971204,-0.50,0.50,-0.57
117973203,-0.50,0.50,-0.57
117975250,-0.42,0.53,-0.48
117977277,-0.42,0.53,-0.48
117979275,-0.42,0.53,-0.48
117981275,-0.42,0.53,-0.48
117983282,-0.42,0.53,-0.48
117985272,-0.35,0.60,-0.39
117987245,-0.35,0.60,-0.39
117989246,-0.35,0.60,-0.39
117991344,-0.35,0.60,-0.39
117993205,-0.35,0.60,-0.39
117995277,-0.35,0.60,-0.39
117997243,-0.27,0.66,-0.35
117999204,-0.27,0.66,-0.35
118001203,-0.27,0.66,-0.35
118003203,-0.27,0.66,-0.35
118005265,-0.27,0.66,-0.35
118007235,-0.21,0.75,-0.33
118009205,-0.21,0.75,-0.33
118011206,-0.21,0.75,-0.33
118013207,-0.21,0.75,-0.33
118015365,-0.21,0.75,-0.33
118017253,-0.14,0.77,-0.32
118019243,-0.14,0.77,-0.32
118021243,-0.14,0.77,-0.32
118023243,-0.14,0.77,-0.32
118025243,-0.14,0.77,-0.32
118027246,-0.11,0.76,-0.28
118029203,-0.11,0.76,-0.28
118031211,-0.11,0.76,-0.28
118033205,-0.11,0.76,-0.28
118035209,-0.11,0.76,-0.28
118037221,-0.09,0.70,-0.29
118039203,-0.09,0.70,-0.29
118041283,-0.09,0.70,-0.29
118043208,-0.09,0.70,-0.29
118045210,-0.09,0.70,-0.29
118047205,-0.09,0.64,-0.34
118049208,-0.09,0.64,-0.34
118051205,-0.09,0.64,-0.34
118053202,-0.09,0.64,-0.34
118055248,-0.09,0.64,-0.34
118057248,-0.11,0.54,-0.43
118059253,-0.11,0.54,-0.43
118061249,-0.11,0.54,-0.43
118063245,-0.11,0.54,-0.43
118065327,-0.11,0.54,-0.43
118067216,-0.12,0.48,-0.53
118069205,-0.12,0.48,-0.53
118071205,-0.12,0.48,-0.53
118073203,-0.12,0.48,-0.53
118075209,-0.12,0.48,-0.53
118077205,-0.12,0.48,-0.53
118079209,-0.14,0.44,-0.55
118081206,-0.14,0.44,-0.55
118083212,-0.14,0.44,-0.55
118085244,-0.14,0.44,-0.55
118087194,-0.14,0.44,-0.55
118089201,-0.16,0.37,-0.51
118091287,-0.16,0.37,-0.51
118093204,-0.16,0.37,-0.51
118095250,-0.16,0.37,-0.51
118097253,-0.16,0.37,-0.51
118099253,-0.16,0.30,-0.50
118101253,-0.16,0.30,-0.50
118103256,-0.16,0.30,-0.50
118105270,-0.16,0.30,-0.50
118107246,-0.16,0.30,-0.50
118109213,-0.16,0.27,-0.51
118111211,-0.16,0.27,-0.51
118113209,-0.16,0.27,-0.51
118115293,-0.16,0.27,-0.51
118117213,-0.16,0.27,-0.51
118119208,-0.15,0.23,-0.54
118121207,-0.15,0.23,-0.54
118123205,-0.15,0.23,-0.54
118125207,-0.15,0.23,-0.54
118127205,-0.15,0.23,-0.54
118129204,-0.13,0.19,-0.54
118131208,-0.13,0.19,-0.54
118133210,-0.13,0.19,-0.54
118135253,-0.13,0.19,-0.54
118137243,-0.13,0.19,-0.54
118139242,-0.12,0.17,-0.54
118141318,-0.12,0.17,-0.54
118143249,-0.12,0.17,-0.54
118145246,-0.12,0.17,-0.54
118147204,-0.12,0.17,-0.54
118149210,-0.10,0.14,-0.59
118151206,-0.10,0.14,-0.59
118153210,-0.10,0.14,-0.59
118155209,-0.10,0.14,-0.59
118157206,-0.10,0.14,-0.59
118159209,-0.08,0.08,-0.63
118161224,-0.08,0.08,-0.63
118163211,-0.08,0.08,-0.63
118165284,-0.08,0.08,-0.63
118167207,-0.08,0.08,-0.63
118169205,-0.08,0.08,-0.63
118171205,-0.07,0.03,-0.60
118173205,-0.07,0.03,-0.60
118175248,-0.07,0.03,-0.60
118177243,-0.07,0.03,-0.60
118179243,-0.07,0.03,-0.60
118181241,-0.09,0.01,-0.58
118183250,-0.09,0.01,-0.58
118185264,-0.09,0.01,-0.58
118187206,-0.09,0.01,-0.58
118189207,-0.09,0.01,-0.58
118191297,-0.13,0.05,-0.61
118193209,-0.13,0.05,-0.61
118195207,-0.13,0.05,-0.61
118197206,-0.13,0.05,-0.61
118199203,-0.13,0.05,-0.61
118201204,-0.18,0.17,-0.68
118203203,-0.18,0.17,-0.68
118205207,-0.18,0.17,-0.68
118207205,-0.18,0.17,-0.68
118209203,-0.18,0.17,-0.68
118211210,-0.25,0.33,-0.73
118213195,-0.25,0.33,-0.73
118215327,-0.25,0.33,-0.73
118217255,-0.25,0.33,-0.73
118219345,-0.25,0.33,-0.73
118221228,-0.32,0.53,-0.72
118223184,-0.32,0.53,-0.72
118225183,-0.32,0.53,-0.72
118227192,-0.32,0.53,-0.72
118229182,-0.32,0.53,-0.72
118231184,-0.38,0.73,-0.66
118233184,-0.38,0.73,-0.66
118235183,-0.38,0.73,-0.66
118237242,-0.38,0.73,-0.66
118239276,-0.38,0.73,-0.66
118241377,-0.46,0.95,-0.61
118243254,-0.46,0.95,-0.61
118245242,-0.46,0.95,-0.61
118247246,-0.46,0.95,-0.61
118249245,-0.46,0.95,-0.61
118251206,-0.46,0.95,-0.61
118253205,-0.53,1.11,-0.65
118255248,-0.53,1.11,-0.65
118257247,-0.53,1.11,-0.65
118259250,-0.53,1.11,-0.65
118261252,-0.53,1.11,-0.65
118263243,-0.64,1.22,-0.69
118265326,-0.64,1.22,-0.69
118267211,-0.64,1.22,-0.69
118269203,-0.64,1.22,-0.69
118271194,-0.64,1.22,-0.69
118273203,-0.82,1.37,-0.64
118275204,-0.82,1.37,-0.64
118277204,-0.82,1.37,-0.64
118279204,-0.82,1.37,-0.64
118281207,-0.82,1.37,-0.64
118283207,-0.93,1.42,-0.60
118285248,-0.93,1.42,-0.60
118287249,-0.93,1.42,-0.60
118289204,-0.93,1.42,-0.60
118291298,-0.93,1.42,-0.60
118293228,-0.90,1.13,-0.76
118295251,-0.90,1.13,-0.76
118297245,-0.90,1.13,-0.76
118299243,-0.90,1.13,-0.76
118301243,-0.90,1.13,-0.76
118303245,-0.83,0.81,-1.04
118305245,-0.83,0.81,-1.04
118307205,-0.83,0.81,-1.04
118309204,-0.83,0.81,-1.04
118311208,-0.83,0.81,-1.04
118313207,-0.73,0.60,-1.27
118315283,-0.73,0.60,-1.27
118317212,-0.73,0.60,-1.27
118319205,-0.73,0.60,-1.27
118321209,-0.73,0.60,-1.27
118323211,-0.65,0.47,-1.38
118325206,-0.65,0.47,-1.38
118327206,-0.65,0.47,-1.38
118329205,-0.65,0.47,-1.38
118331205,-0.65,0.47,-1.38
118333203,-0.65,0.47,-1.38
118335249,-0.56,0.60,-1.48
118337282,-0.56,0.60,-1.48
118339254,-0.56,0.60,-1.48
118341343,-0.56,0.60,-1.48
118343251,-0.56,0.60,-1.48
118345245,-0.46,0.95,-1.48
118347243,-0.46,0.95,-1.48
118349205,-0.46,0.95,-1.48
118351207,-0.46,0.95,-1.48
118353204,-0.46,0.95,-1.48
118355205,-0.35,1.16,-1.33
118357205,-0.35,1.16,-1.33
118359214,-0.35,1.16,-1.33
118361226,-0.35,1.16,-1.33
118363204,-0.35,1.16,-1.33
118365289,-0.25,1.32,-1.03
118367208,-0.25,1.32,-1.03
118369207,-0.25,1.32,-1.03
118371275,-0.25,1.32,-1.03
118373246,-0.25,1.32,-1.03
118375265,-0.15,1.42,-0.62
118377247,-0.15,1.42,-0.62
118379244,-0.15,1.42,-0.62
118381246,-0.15,1.42,-0.62
118383246,-0.15,1.42,-0.62
118385264,-0.11,1.39,-0.28
118387268,-0.11,1.39,-0.28
118389269,-0.11,1.39,-0.28
118391375,-0.11,1.39,-0.28
118393228,-0.11,1.39,-0.28
118395204,-0.11,1.32,-0.20
118397195,-0.11,1.32,-0.20
118399195,-0.11,1.32,-0.20
118401202,-0.11,1.32,-0.20
118403194,-0.11,1.32,-0.20
118405202,-0.13,1.24,-0.44
118407195,-0.13,1.24,-0.44
118409205,-0.13,1.24,-0.44
118411202,-0.13,1.24,-0.44
118413207,-0.13,1.24,-0.44
118415341,-0.16,1.07,-0.79
118417365,-0.16,1.07,-0.79
118419261,-0.16,1.07,-0.79
118421245,-0.16,1.07,-0.79
118423245,-0.16,1.07,-0.79
118425243,-0.16,1.07,-0.79
118427247,-0.17,0.84,-0.83
118429244,-0.17,0.84,-0.83
118431203,-0.17,0.84,-0.83
118433210,-0.17,0.84,-0.83
118435240,-0.17,0.84,-0.83
118437269,-0.19,0.66,-0.71
118439225,-0.19,0.66,-0.71
118441314,-0.19,0.66,-0.71
118443210,-0.19,0.66,-0.71
118445205,-0.19,0.66,-0.71
118447203,-0.20,0.46,-0.73
118449195,-0.20,0.46,-0.73
118451203,-0.20,0.46,-0.73
118453202,-0.20,0.46,-0.73
118455263,-0.20,0.46,-0.73
118457251,-0.20,0.39,-0.88
118459251,-0.20,0.39,-0.88
118461255,-0.20,0.39,-0.88
118463245,-0.20,0.39,-0.88
118465317,-0.20,0.39,-0.88
118467210,-0.20,0.33,-0.95
118469204,-0.20,0.33,-0.95
118471204,-0.20,0.33,-0.95
118473204,-0.20,0.33,-0.95
118475208,-0.20,0.33,-0.95
118477205,-0.19,0.25,-0.85
118479193,-0.19,0.25,-0.85
118481203,-0.19,0.25,-0.85
118483204,-0.19,0.25,-0.85
118485238,-0.19,0.25,-0.85
118487194,-0.16,0.22,-0.75
118489208,-0.16,0.22,-0.75
118491288,-0.16,0.22,-0.75
118493235,-0.16,0.22,-0.75
118495278,-0.16,0.22,-0.75
118497246,-0.11,0.26,-0.68
118499244,-0.11,0.26,-0.68
118501244,-0.11,0.26,-0.68
118503247,-0.11,0.26,-0.68
118505255,-0.11,0.26,-0.68
118507367,-0.06,0.34,-0.63
118509260,-0.06,0.34,-0.63
118511206,-0.06,0.34,-0.63
118513208,-0.06,0.34,-0.63
118515299,-0.06,0.34,-0.63
118517217,-0.06,0.34,-0.63
118519213,-0.00,0.38,-0.57
118521207,-0.00,0.38,-0.57
118523203,-0.00,0.38,-0.57
118525205,-0.00,0.38,-0.57
118527203,-0.00,0.38,-0.57
118529204,0.04,0.42,-0.54
118531203,0.04,0.42,-0.54
118533208,0.04,0.42,-0.54
118535291,0.04,0.42,-0.54
118537270,0.04,0.42,-0.54
118539245,0.07,0.46,-0.53
118541345,0.07,0.46,-0.53
118543252,0.07,0.46,-0.53
118545246,0.07,0.46,-0.53
118547245,0.07,0.46,-0.53
118549243,0.09,0.46,-0.51
118551207,0.09,0.46,-0.51
118553203,0.09,0.46,-0.51
118555209,0.09,0.46,-0.51
118557203,0.09,0.46,-0.51
118559208,0.11,0.48,-0.45
118561225,0.11,0.48,-0.45
118563208,0.11,0.48,-0.45
118565279,0.11,0.48,-0.45
118567211,0.11,0.48,-0.45
118569205,0.10,0.47,-0.41
118571206,0.10,0.47,-0.41
118573208,0.10,0.47,-0.41
118575254,0.10,0.47,-0.41
118577246,0.10,0.47,-0.41
118579246,0.08,0.43,-0.40
118581246,0.08,0.43,-0.40
118583249,0.08,0.43,-0.40
118585258,0.08,0.43,-0.40
118587204,0.08,0.43,-0.40
118589207,0.05,0.41,-0.43
118591295,0.05,0.41,-0.43
118593211,0.05,0.41,-0.43
118595207,0.05,0.41,-0.43
118597205,0.05,0.41,-0.43
118599206,0.05,0.41,-0.43
118601205,0.02,0.41,-0.47
118603204,0.02,0.41,-0.47
118605203,0.02,0.41,-0.47
118607202,0.02,0.41,-0.47
118609204,0.02,0.41,-0.47
118611204,0.00,0.42,-0.48
118613206,0.00,0.42,-0.48
118615330,0.00,0.42,-0.48
118617252,0.00,0.42,-0.48
118619244,0.00,0.42,-0.48
118621246,-0.03,0.42,-0.43
118623340,-0.03,0.42,-0.43
118625259,-0.03,0.42,-0.43
118627245,-0.03,0.42,-0.43
118629204,-0.03,0.42,-0.43
118631211,-0.05,0.45,-0.38
118633205,-0.05,0.45,-0.38
118635204,-0.05,0.45,-0.38
118637204,-0.05,0.45,-0.38
118639208,-0.05,0.45,-0.38
118641304,-0.07,0.45,-0.43
118643205,-0.07,0.45,-0.43
118645204,-0.07,0.45,-0.43
118647205,-0.07,0.45,-0.43
118649203,-0.07,0.45,-0.43
118651204,-0.11,0.45,-0.46
118653207,-0.11,0.45,-0.46
118655255,-0.11,0.45,-0.46
118657247,-0.11,0.45,-0.46
118659255,-0.11,0.45,-0.46
118661257,-0.16,0.49,-0.46
118663246,-0.16,0.49,-0.46
118665327,-0.16,0.49,-0.46
118667206,-0.16,0.49,-0.46
118669203,-0.16,0.49,-0.46
118671202,-0.22,0.49,-0.47
118673208,-0.22,0.49,-0.47
118675203,-0.22,0.49,-0.47
118677203,-0.22,0.49,-0.47
118679203,-0.22,0.49,-0.47
118681212,-0.22,0.49,-0.47
118683209,-0.30,0.54,-0.48
118685245,-0.30,0.54,-0.48
118687208,-0.30,0.54,-0.48
118689205,-0.30,0.54,-0.48
118691286,-0.30,0.54,-0.48
118693203,-0.41,0.63,-0.52
118695279,-0.41,0.63,-0.52
118697272,-0.41,0.63,-0.52
118699249,-0.41,0.63,-0.52
118701256,-0.41,0.63,-0.52
118703369,-0.51,0.79,-0.64
118705264,-0.51,0.79,-0.64
118707248,-0.51,0.79,-0.64
118709242,-0.51,0.79,-0.64
118711205,-0.51,0.79,-0.64
118713204,-0.64,0.98,-0.76
118715300,-0.64,0.98,-0.76
118717222,-0.64,0.98,-0.76
118719204,-0.64,0.98,-0.76
118721208,-0.64,0.98,-0.76
118723203,-0.76,1.20,-0.76
118725206,-0.76,1.20,-0.76
118727279,-0.76,1.20,-0.76
118729247,-0.76,1.20,-0.76
118731205,-0.76,1.20,-0.76
118733206,-0.88,1.29,-0.77
118735259,-0.88,1.29,-0.77
118737246,-0.88,1.29,-0.77
118739249,-0.88,1.29,-0.77
118741351,-0.88,1.29,-0.77
118743245,-0.96,1.39,-0.76
118745254,-0.96,1.39,-0.76
118747206,-0.96,1.39,-0.76
118749205,-0.96,1.39,-0.76
118751207,-0.96,1.39,-0.76
118753211,-1.05,1.39,-0.75
118755206,-1.05,1.39,-0.75
118757208,-1.05,1.39,-0.75
118759214,-1.05,1.39,-0.75
118761225,-1.05,1.39,-0.75
118763206,-1.05,1.39,-0.75
118765281,-1.13,1.39,-0.78
118767216,-1.13,1.39,-0.78
118769211,-1.13,1.39,-0.78
118771210,-1.13,1.39,-0.78
118773205,-1.13,1.39,-0.78
118775328,-1.18,1.41,-0.84
118777255,-1.18,1.41,-0.84
118779249,-1.18,1.41,-0.84
118781346,-1.18,1.41,-0.84
118783267,-1.18,1.41,-0.84
118785271,-1.16,1.31,-0.86
118787253,-1.16,1.31,-0.86
118789245,-1.16,1.31,-0.86
118791335,-1.16,1.31,-0.86
118793205,-1.16,1.31,-0.86
118795207,-1.12,1.20,-0.80
118797231,-1.12,1.20,-0.80
118799276,-1.12,1.20,-0.80
118801243,-1.12,1.20,-0.80
118803206,-1.12,1.20,-0.80
118805210,-1.05,1.16,-0.86
118807204,-1.05,1.16,-0.86
118809205,-1.05,1.16,-0.86
118811225,-1.05,1.16,-0.86
118813195,-1.05,1.16,-0.86
118815359,-0.98,1.12,-0.94
118817255,-0.98,1.12,-0.94
118819282,-0.98,1.12,-0.94
118821273,-0.98,1.12,-0.94
118823256,-0.98,1.12,-0.94
118825250,-0.89,1.03,-0.90
118827258,-0.89,1.03,-0.90
118829284,-0.89,1.03,-0.90
118831263,-0.89,1.03,-0.90
118833247,-0.89,1.03,-0.90
118835206,-0.81,0.89,-0.77
118837205,-0.81,0.89,-0.77
118839202,-0.81,0.89,-0.77
118841311,-0.81,0.89,-0.77
118843206,-0.81,0.89,-0.77
118845205,-0.74,0.75,-0.73
118847205,-0.74,0.75,-0.73
118849209,-0.74,0.75,-0.73
118851206,-0.74,0.75,-0.73
118853205,-0.74,0.75,-0.73
118855257,-0.74,0.75,-0.73
118857252,-0.68,0.64,-0.72
118859251,-0.68,0.64,-0.72
118861253,-0.68,0.64,-0.72
118863244,-0.68,0.64,-0.72
118865323,-0.68,0.64,-0.72
118867210,-0.62,0.56,-0.70
118869210,-0.62,0.56,-0.70
118871212,-0.62,0.56,-0.70
118873307,-0.62,0.56,-0.70
118875229,-0.62,0.56,-0.70
118877204,-0.54,0.52,-0.64
118879194,-0.54,0.52,-0.64
118881190,-0.54,0.52,-0.64
118883215,-0.54,0.52,-0.64
118885244,-0.54,0.52,-0.64
118887205,-0.46,0.50,-0.51
118889204,-0.46,0.50,-0.51
118891310,-0.46,0.50,-0.51
118893234,-0.46,0.50,-0.51
118895281,-0.46,0.50,-0.51
118897279,-0.39,0.48,-0.39
118899253,-0.39,0.48,-0.39
118901245,-0.39,0.48,-0.39
118903244,-0.39,0.48,-0.39
118905248,-0.39,0.48,-0.39
118907245,-0.31,0.50,-0.33
118909246,-0.31,0.50,-0.33
118911204,-0.31,0.50,-0.33
118913207,-0.31,0.50,-0.33
118915298,-0.31,0.50,-0.33
118917217,-0.24,0.52,-0.40
118919206,-0.24,0.52,-0.40
118921205,-0.24,0.52,-0.40
118923207,-0.24,0.52,-0.40
118925204,-0.24,0.52,-0.40
118927207,-0.18,0.58,-0.51
118929205,-0.18,0.58,-0.51
118931204,-0.18,0.58,-0.51
118933210,-0.18,0.58,-0.51
118935249,-0.18,0.58,-0.51
118937245,-0.18,0.58,-0.51
118939243,-0.14,0.56,-0.53
118941316,-0.14,0.56,-0.53
118943247,-0.14,0.56,-0.53
118945243,-0.14,0.56,-0.53
118947203,-0.14,0.56,-0.53
118949213,-0.11,0.52,-0.43
118951203,-0.11,0.52,-0.43
118953204,-0.11,0.52,-0.43
118955206,-0.11,0.52,-0.43
118957224,-0.11,0.52,-0.43
118959208,-0.09,0.49,-0.35
118961222,-0.09,0.49,-0.35
118963205,-0.09,0.49,-0.35
118965284,-0.09,0.49,-0.35
118967205,-0.09,0.49,-0.35
118969206,-0.08,0.48,-0.40
118971204,-0.08,0.48,-0.40
118973206,-0.08,0.48,-0.40
118975253,-0.08,0.48,-0.40
118977248,-0.08,0.48,-0.40
118979243,-0.08,0.48,-0.50
118981245,-0.08,0.48,-0.50
118983258,-0.08,0.48,-0.50
118985281,-0.08,0.48,-0.50
118987247,-0.08,0.48,-0.50
118989211,-0.08,0.50,-0.53
118991304,-0.08,0.50,-0.53
118993210,-0.08,0.50,-0.53
118995205,-0.08,0.50,-0.53
118997206,-0.08,0.50,-0.53
118999206,-0.09,0.49,-0.48
119001203,-0.09,0.49,-0.48
119003244,-0.09,0.49,-0.48
119005205,-0.09,0.49,-0.48
119007202,-0.09,0.49,-0.48
119009204,-0.10,0.46,-0.43
119011202,-0.10,0.46,-0.43
119013203,-0.10,0.46,-0.43
119015340,-0.10,0.46,-0.43
119017253,-0.10,0.46,-0.43
119019245,-0.09,0.41,-0.45
119021248,-0.09,0.41,-0.45
119023244,-0.09,0.41,-0.45
119025245,-0.09,0.41,-0.45
119027210,-0.09,0.41,-0.45
119029210,-0.09,0.41,-0.45
119031264,-0.11,0.39,-0.49
119033260,-0.11,0.39,-0.49
119035206,-0.11,0.39,-0.49
119037215,-0.11,0.39,-0.49
119039203,-0.11,0.39,-0.49
119041313,-0.11,0.34,-0.49
119043207,-0.11,0.34,-0.49
119045204,-0.11,0.34,-0.49
119047204,-0.11,0.34,-0.49
119049201,-0.11,0.34,-0.49
119051205,-0.11,0.27,-0.47
119053204,-0.11,0.27,-0.47
119055260,-0.11,0.27,-0.47
119057244,-0.11,0.27,-0.47
119059251,-0.11,0.27,-0.47
119061256,-0.09,0.23,-0.43
119063244,-0.09,0.23,-0.43
119065322,-0.09,0.23,-0.43
119067212,-0.09,0.23,-0.43
119069210,-0.09,0.23,-0.43
119071205,-0.08,0.20,-0.43
119073204,-0.08,0.20,-0.43
119075203,-0.08,0.20,-0.43
119077207,-0.08,0.20,-0.43
119079208,-0.08,0.20,-0.43
119081205,-0.07,0.22,-0.46
119083206,-0.07,0.22,-0.46
119085238,-0.07,0.22,-0.46
119087202,-0.07,0.22,-0.46
119089202,-0.07,0.22,-0.46
119091285,-0.05,0.21,-0.52
119093204,-0.05,0.21,-0.52
119095248,-0.05,0.21,-0.52
119097244,-0.05,0.21,-0.52
119099243,-0.05,0.21,-0.52
119101247,-0.01,0.23,-0.55
119103245,-0.01,0.23,-0.55
119105255,-0.01,0.23,-0.55
119107245,-0.01,0.23,-0.55
119109204,-0.01,0.23,-0.55
119111204,-0.01,0.23,-0.55
119113204,0.02,0.29,-0.53
119115288,0.02,0.29,-0.53
119117225,0.02,0.29,-0.53
119119318,0.02,0.29,-0.53
119121233,0.02,0.29,-0.53
119123206,0.03,0.30,-0.53
119125205,0.03,0.30,-0.53
119127203,0.03,0.30,-0.53
119129206,0.03,0.30,-0.53
119131204,0.03,0.30,-0.53
119133202,0.05,0.34,-0.56
119135261,0.05,0.34,-0.56
119137246,0.05,0.34,-0.56
119139246,0.05,0.34,-0.56
119141340,0.05,0.34,-0.56
119143253,0.05,0.34,-0.63
119145254,0.05,0.34,-0.63
119147208,0.05,0.34,-0.63
119149204,0.05,0.34,-0.63
119151209,0.05,0.34,-0.63
119153205,0.02,0.32,-0.64
119155207,0.02,0.32,-0.64
119157202,0.02,0.32,-0.64
119159207,0.02,0.32,-0.64
119161226,0.02,0.32,-0.64
119163205,-0.04,0.38,-0.65
119165283,-0.04,0.38,-0.65
119167208,-0.04,0.38,-0.65
119169211,-0.04,0.38,-0.65
119171210,-0.04,0.38,-0.65
119173203,-0.12,0.45,-0.71
119175251,-0.12,0.45,-0.71
119177247,-0.12,0.45,-0.71
119179247,-0.12,0.45,-0.71
119181242,-0.12,0.45,-0.71
119183270,-0.22,0.66,-0.79
119185289,-0.22,0.66,-0.79
119187278,-0.22,0.66,-0.79
119189249,-0.22,0.66,-0.79
119191312,-0.22,0.66,-0.79
119193204,-0.33,0.84,-0.82
119195203,-0.33,0.84,-0.82
119197202,-0.33,0.84,-0.82
119199206,-0.33,0.84,-0.82
119201203,-0.33,0.84,-0.82
119203219,-0.33,0.84,-0.82
119205277,-0.46,0.93,-0.79
119207227,-0.46,0.93,-0.79
119209205,-0.46,0.93,-0.79
119211206,-0.46,0.93,-0.79
119213206,-0.46,0.93,-0.79
119215355,-0.56,1.00,-0.79
119217247,-0.56,1.00,-0.79
119219243,-0.56,1.00,-0.79
119221248,-0.56,1.00,-0.79
119223248,-0.56,1.00,-0.79
119225245,-0.65,1.02,-0.80
119227241,-0.65,1.02,-0.80
119229305,-0.65,1.02,-0.80
119231231,-0.65,1.02,-0.80
119233205,-0.65,1.02,-0.80
119235195,-0.73,1.00,-0.76
119237194,-0.73,1.00,-0.76
119239202,-0.73,1.00,-0.76
119241308,-0.73,1.00,-0.76
119243194,-0.73,1.00,-0.76
119245195,-0.78,1.09,-0.76
119247204,-0.78,1.09,-0.76
119249207,-0.78,1.09,-0.76
119251195,-0.78,1.09,-0.76
119253205,-0.78,1.09,-0.76
119255261,-0.77,1.08,-0.84
119257247,-0.77,1.08,-0.84
119259250,-0.77,1.08,-0.84
119261252,-0.77,1.08,-0.84
119263241,-0.77,1.08,-0.84
119265324,-0.70,0.94,-0.90
119267217,-0.70,0.94,-0.90
119269210,-0.70,0.94,-0.90
119271203,-0.70,0.94,-0.90
119273203,-0.70,0.94,-0.90
119275202,-0.62,0.78,-0.98
119277217,-0.62,0.78,-0.98
119279280,-0.62,0.78,-0.98
119281232,-0.62,0.78,-0.98
119283202,-0.62,0.78,-0.98
119285195,-0.62,0.78,-0.98
119287242,-0.55,0.77,-1.15
119289206,-0.55,0.77,-1.15
119291308,-0.55,0.77,-1.15
119293202,-0.55,0.77,-1.15
119295259,-0.55,0.77,-1.15
119297249,-0.48,0.86,-1.32
119299245,-0.48,0.86,-1.32
119301246,-0.48,0.86,-1.32
119303249,-0.48,0.86,-1.32
119305245,-0.48,0.86,-1.32
119307215,-0.42,1.03,-1.27
119309207,-0.42,1.03,-1.27
119311194,-0.42,1.03,-1.27
119313203,-0.42,1.03,-1.27
119315282,-0.42,1.03,-1.27
119317210,-0.36,1.14,-1.14
119319206,-0.36,1.14,-1.14
119321203,-0.36,1.14,-1.14
119323205,-0.36,1.14,-1.14
119325204,-0.36,1.14,-1.14
119327210,-0.31,1.27,-1.04
119329210,-0.31,1.27,-1.04
119331207,-0.31,1.27,-1.04
119333202,-0.31,1.27,-1.04
119335254,-0.31,1.27,-1.04
119337248,-0.27,1.41,-0.86
119339246,-0.27,1.41,-0.86
119341324,-0.27,1.41,-0.86
119343249,-0.27,1.41,-0.86
119345246,-0.27,1.41,-0.86
119347207,-0.25,1.40,-0.61
119349203,-0.25,1.40,-0.61
119351206,-0.25,1.40,-0.61
119353203,-0.25,1.40,-0.61
119355204,-0.25,1.40,-0.61
119357202,-0.24,1.29,-0.49
119359209,-0.24,1.29,-0.49
119361222,-0.24,1.29,-0.49
119363240,-0.24,1.29,-0.49
119365362,-0.24,1.29,-0.49
119367240,-0.24,1.29,-0.49
119369207,-0.26,1.13,-0.54
119371363,-0.26,1.13,-0.54
119373242,-0.26,1.13,-0.54
119375261,-0.26,1.13,-0.54
119377248,-0.26,1.13,-0.54
119379248,-0.28,0.93,-0.70
119381255,-0.28,0.93,-0.70
119383274,-0.28,0.93,-0.70
119385255,-0.28,0.93,-0.70
119387264,-0.28,0.93,-0.70
119389250,-0.30,0.78,-0.76
119391349,-0.30,0.78,-0.76
119393287,-0.30,0.78,-0.76
119395240,-0.30,0.78,-0.76
119397205,-0.30,0.78,-0.76
119399204,-0.32,0.59,-0.70
119401205,-0.32,0.59,-0.70
119403205,-0.32,0.59,-0.70
119405205,-0.32,0.59,-0.70
119407214,-0.32,0.59,-0.70
119409207,-0.33,0.39,-0.64
119411219,-0.33,0.39,-0.64
119413271,-0.33,0.39,-0.64
119415364,-0.33,0.39,-0.64
119417260,-0.33,0.39,-0.64
119419248,-0.32,0.28,-0.64
119421260,-0.32,0.28,-0.64
119423274,-0.32,0.28,-0.64
119425267,-0.32,0.28,-0.64
119427250,-0.32,0.28,-0.64
119429251,-0.30,0.18,-0.72
119431284,-0.30,0.18,-0.72
119433263,-0.30,0.18,-0.72
119435215,-0.30,0.18,-0.72
119437215,-0.30,0.18,-0.72
119439208,-0.27,0.12,-0.75
119441311,-0.27,0.12,-0.75
119443212,-0.27,0.12,-0.75
119445216,-0.27,0.12,-0.75
119447210,-0.27,0.12,-0.75
119449219,-0.22,0.04,-0.71
119451210,-0.22,0.04,-0.71
119453215,-0.22,0.04,-0.71
119455255,-0.22,0.04,-0.71
119457251,-0.22,0.04,-0.71
119459257,-0.22,0.04,-0.71
119461250,-0.14,-0.01,-0.63
119463248,-0.14,-0.01,-0.63
119465336,-0.14,-0.01,-0.63
119467212,-0.14,-0.01,-0.63
119469208,-0.14,-0.01,-0.63
119471202,-0.05,-0.02,-0.55
119473214,-0.05,-0.02,-0.55
119475240,-0.05,-0.02,-0.55
119477324,-0.05,-0.02,-0.55
119479237,-0.05,-0.02,-0.55
119481207,0.02,-0.02,-0.50
119483205,0.02,-0.02,-0.50
119485205,0.02,-0.02,-0.50
119487247,0.02,-0.02,-0.50
119489206,0.02,-0.02,-0.50
119491313,0.10,0.02,-0.48
119493207,0.10,0.02,-0.48
119495288,0.10,0.02,-0.48
119497278,0.10,0.02,-0.48
119499265,0.10,0.02,-0.48
119501252,0.18,-0.01,-0.49
119503275,0.18,-0.01,-0.49
119505279,0.18,-0.01,-0.49
119507261,0.18,-0.01,-0.49
119509250,0.18,-0.01,-0.49
119511249,0.24,-0.02,-0.50
119513219,0.24,-0.02,-0.50
119515352,0.24,-0.02,-0.50
119517324,0.24,-0.02,-0.50
119519237,0.24,-0.02,-0.50
119521207,0.30,0.01,-0.51
119523206,0.30,0.01,-0.51
119525223,0.30,0.01,-0.51
119527255,0.30,0.01,-0.51
119529212,0.30,0.01,-0.51
119531208,0.34,0.04,-0.53
119533207,0.34,0.04,-0.53
119535268,0.34,0.04,-0.53
119537254,0.34,0.04,-0.53
119539249,0.34,0.04,-0.53
119541352,0.36,0.13,-0.48
119543254,0.36,0.13,-0.48
119545249,0.36,0.13,-0.48
119547249,0.36,0.13,-0.48
119549213,0.36,0.13,-0.48
119551210,0.36,0.13,-0.48
119553208,0.36,0.17,-0.39
119555208,0.36,0.17,-0.39
119557209,0.36,0.17,-0.39
119559219,0.36,0.17,-0.39
119561227,0.36,0.17,-0.39
119563212,0.33,0.26,-0.32
119565289,0.33,0.26,-0.32
119567221,0.33,0.26,-0.32
119569213,0.33,0.26,-0.32
119571207,0.33,0.26,-0.32
119573208,0.29,0.36,-0.35
119575290,0.29,0.36,-0.35
119577252,0.29,0.36,-0.35
119579244,0.29,0.36,-0.35
119581247,0.29,0.36,-0.35
119583248,0.22,0.37,-0.48
119585295,0.22,0.37,-0.48
119587271,0.22,0.37,-0.48
119589257,0.22,0.37,-0.48
119591349,0.22,0.37,-0.48
119593194,0.12,0.35,-0.62
119595205,0.12,0.35,-0.62
119597204,0.12,0.35,-0.62
119599204,0.12,0.35,-0.62
119601346,0.12,0.35,-0.62
119603248,-0.01,0.37,-0.62
119605208,-0.01,0.37,-0.62
119607195,-0.01,0.37,-0.62
119609239,-0.01,0.37,-0.62
119611257,-0.01,0.37,-0.62
119613203,-0.16,0.44,-0.57
119615375,-0.16,0.44,-0.57
119617264,-0.16,0.44,-0.57
119619249,-0.16,0.44,-0.57
119621249,-0.16,0.44,-0.57
119623253,-0.36,0.56,-0.60
119625251,-0.36,0.56,-0.60
119627246,-0.36,0.56,-0.60
119629245,-0.36,0.56,-0.60
119631204,-0.36,0.56,-0.60
119633203,-0.36,0.56,-0.60
119635207,-0.54,0.75,-0.73
119637204,-0.54,0.75,-0.73
119639211,-0.54,0.75,-0.73
119641290,-0.54,0.75,-0.73
119643204,-0.54,0.75,-0.73
119645205,-0.67,0.91,-0.74
119647205,-0.67,0.91,-0.74
119649206,-0.67,0.91,-0.74
119651205,-0.67,0.91,-0.74
119653204,-0.67,0.91,-0.74
119655251,-0.82,0.97,-0.66
119657248,-0.82,0.97,-0.66
119659250,-0.82,0.97,-0.66
119661254,-0.82,0.97,-0.66
119663246,-0.82,0.97,-0.66
119665331,-0.91,1.07,-0.78
119667211,-0.91,1.07,-0.78
119669215,-0.91,1.07,-0.78
119671210,-0.91,1.07,-0.78
119673220,-0.91,1.07,-0.78
119675331,-0.98,1.28,-0.92
119677235,-0.98,1.28,-0.92
119679203,-0.98,1.28,-0.92
119681206,-0.98,1.28,-0.92
119683195,-0.98,1.28,-0.92
119685203,-1.05,1.52,-0.95
119687245,-1.05,1.52,-0.95
119689195,-1.05,1.52,-0.95
119691308,-1.05,1.52,-0.95
119693203,-1.05,1.52,-0.95
119695264,-1.07,1.46,-0.98
119697246,-1.07,1.46,-0.98
119699293,-1.07,1.46,-0.98
119701266,-1.07,1.46,-0.98
119703248,-1.07,1.46,-0.98
119705246,-1.12,1.51,-1.07
119707248,-1.12,1.51,-1.07
119709245,-1.12,1.51,-1.07
119711211,-1.12,1.51,-1.07
119713221,-1.12,1.51,-1.07
119715365,-1.12,1.51,-1.07
119717224,-1.14,1.66,-1.33
119719238,-1.14,1.66,-1.33
119721211,-1.14,1.66,-1.33
119723237,-1.14,1.66,-1.33
119725205,-1.14,1.66,-1.33
119727265,-1.18,1.43,-1.57
119729252,-1.18,1.43,-1.57
119731203,-1.18,1.43,-1.57
119733195,-1.18,1.43,-1.57
119735286,-1.18,1.43,-1.57
119737250,-1.16,1.30,-1.55
119739253,-1.16,1.30,-1.55
119741346,-1.16,1.30,-1.55
119743247,-1.16,1.30,-1.55
119745244,-1.16,1.30,-1.55
119747242,-1.14,1.07,-1.43
119749213,-1.14,1.07,-1.43
119751205,-1.14,1.07,-1.43
119753203,-1.14,1.07,-1.43
119755204,-1.14,1.07,-1.43
119757203,-1.09,0.88,-1.44
119759210,-1.09,0.88,-1.44
119761220,-1.09,0.88,-1.44
119763205,-1.09,0.88,-1.44
119765284,-1.09,0.88,-1.44
119767210,-1.03,0.76,-1.50
119769208,-1.03,0.76,-1.50
119771205,-1.03,0.76,-1.50
119773207,-1.03,0.76,-1.50
119775361,-1.03,0.76,-1.50
119777273,-0.99,0.59,-1.51
119779259,-0.99,0.59,-1.51
119781244,-0.99,0.59,-1.51
119783244,-0.99,0.59,-1.51
119785249,-0.99,0.59,-1.51
119787293,-0.93,0.46,-1.46
119789297,-0.93,0.46,-1.46
119791368,-0.93,0.46,-1.46
119793243,-0.93,0.46,-1.46
119795210,-0.93,0.46,-1.46
119797206,-0.93,0.46,-1.46
119799214,-0.86,0.36,-1.40
119801210,-0.86,0.36,-1.40
119803206,-0.86,0.36,-1.40
119805205,-0.86,0.36,-1.40
119807204,-0.86,0.36,-1.40
119809215,-0.76,0.32,-1.32
119811227,-0.76,0.32,-1.32
119813203,-0.76,0.32,-1.32
119775361,-1.03,0.76,-1.50
119777273,-0.99,0.59,-1.51
119779259,-0.99,0.59,-1.51
119781244,-0.99,0.59,-1.51
119783244,-0.99,0.59,-1.51
119785249,-0.99,0.59,-1.51
119787293,-0.93,0.46,-1.46
119789297,-0.93,0.46,-1.46
119791368,-0.93,0.46,-1.46
119793243,-0.93,0.46,-1.46
119795210,-0.93,0.46,-1.46
119797206,-0.93,0.46,-1.46
119799214,-0.86,0.36,-1.40
119801210,-0.86,0.36,-1.40
119803206,-0.86,0.36,-1.40
119805205,-0.86,0.36,-1.40
119807204,-0.86,0.36,-1.40
119809215,-0.76,0.32,-1.32
