timestamp,accX,accY,accZ
131835271,0.38,-0.33,-0.82
131837210,0.38,-0.33,-0.82
131839210,0.38,-0.29,-0.88
131841290,0.38,-0.29,-0.88
131843215,0.38,-0.29,-0.88
131845210,0.38,-0.29,-0.88
131847209,0.38,-0.29,-0.88
131849209,0.39,-0.31,-0.86
131851214,0.39,-0.31,-0.86
131853215,0.39,-0.31,-0.86
131855212,0.39,-0.31,-0.86
131857212,0.39,-0.31,-0.86
131859225,0.38,-0.32,-0.74
131861235,0.38,-0.32,-0.74
131863216,0.38,-0.32,-0.74
131865275,0.38,-0.32,-0.74
131867214,0.38,-0.32,-0.74
131869215,0.39,-0.32,-0.69
131871212,0.39,-0.32,-0.69
131873216,0.39,-0.32,-0.69
131875215,0.39,-0.32,-0.69
131877210,0.39,-0.32,-0.69
131879213,0.39,-0.28,-0.72
131881212,0.39,-0.28,-0.72
131883210,0.39,-0.28,-0.72
131941399,0.37,-0.20,-0.70
131943254,0.37,-0.20,-0.70
131945258,0.37,-0.20,-0.70
131947255,0.37,-0.20,-0.70
131949254,0.37,-0.20,-0.70
131951257,0.35,-0.22,-0.55
131953258,0.35,-0.22,-0.55
131955261,0.35,-0.22,-0.55
131957248,0.35,-0.22,-0.55
131959252,0.35,-0.22,-0.55
131961306,0.36,-0.24,-0.48
131963246,0.36,-0.24,-0.48
131965315,0.36,-0.24,-0.48
131967224,0.36,-0.24,-0.48
131969216,0.36,-0.24,-0.48
131971207,0.35,-0.21,-0.52
131973225,0.35,-0.21,-0.52
131975260,0.35,-0.21,-0.52
131977216,0.35,-0.21,-0.52
131979215,0.35,-0.21,-0.52
131981282,0.35,-0.17,-0.57
131983259,0.35,-0.17,-0.57
131985256,0.35,-0.17,-0.57
131987255,0.35,-0.17,-0.57
131989255,0.35,-0.17,-0.57
131991364,0.35,-0.17,-0.54
131993257,0.35,-0.17,-0.54
131995221,0.35,-0.17,-0.54
131997215,0.35,-0.17,-0.54
131999222,0.35,-0.17,-0.54
132001222,0.34,-0.23,-0.45
132003229,0.34,-0.23,-0.45
132005336,0.34,-0.23,-0.45
132007255,0.34,-0.23,-0.45
132009219,0.34,-0.23,-0.45
132011214,0.34,-0.23,-0.45
132013219,0.34,-0.23,-0.41
132015325,0.34,-0.23,-0.41
132017263,0.34,-0.23,-0.41
132019219,0.34,-0.23,-0.41
132021276,0.34,-0.23,-0.41
132023255,0.34,-0.18,-0.48
132025258,0.34,-0.18,-0.48
132027286,0.34,-0.18,-0.48
132029277,0.34,-0.18,-0.48
132031262,0.34,-0.18,-0.48
132033268,0.36,-0.17,-0.56
132035261,0.36,-0.17,-0.56
132037263,0.36,-0.17,-0.56
132039286,0.36,-0.17,-0.56
132041338,0.36,-0.17,-0.56
132043215,0.36,-0.18,-0.56
132045216,0.36,-0.18,-0.56
132047233,0.36,-0.18,-0.56
132049259,0.36,-0.18,-0.56
132051211,0.36,-0.18,-0.56
132053209,0.36,-0.22,-0.54
132055226,0.36,-0.22,-0.54
132057219,0.36,-0.22,-0.54
132059219,0.36,-0.22,-0.54
132061308,0.36,-0.22,-0.54
132063255,0.36,-0.24,-0.57
132065359,0.36,-0.24,-0.57
132067262,0.36,-0.24,-0.57
132069278,0.36,-0.24,-0.57
132071272,0.36,-0.24,-0.57
132073257,0.36,-0.24,-0.70
132075256,0.36,-0.24,-0.70
132077252,0.36,-0.24,-0.70
132079221,0.36,-0.24,-0.70
132081219,0.36,-0.24,-0.70
132083220,0.37,-0.20,-0.80
132085224,0.37,-0.20,-0.80
132087305,0.37,-0.20,-0.80
132089238,0.37,-0.20,-0.80
132091321,0.37,-0.20,-0.80
132093217,0.38,-0.22,-0.87
132095216,0.38,-0.22,-0.87
132097217,0.38,-0.22,-0.87
132099215,0.38,-0.22,-0.87
132101258,0.38,-0.22,-0.87
132103259,0.38,-0.22,-0.87
132105257,0.39,-0.24,-0.87
132107255,0.39,-0.24,-0.87
132109256,0.39,-0.24,-0.87
132111255,0.39,-0.24,-0.87
132113218,0.39,-0.24,-0.87
132115300,0.39,-0.25,-0.89
132117219,0.39,-0.25,-0.89
132119220,0.39,-0.25,-0.89
132121222,0.39,-0.25,-0.89
132123217,0.39,-0.25,-0.89
132125215,0.40,-0.30,-0.95
132127279,0.40,-0.30,-0.95
132129259,0.40,-0.30,-0.95
132131223,0.40,-0.30,-0.95
132133254,0.40,-0.30,-0.95
132135216,0.40,-0.33,-0.99
132137211,0.40,-0.33,-0.99
132139214,0.40,-0.33,-0.99
132141394,0.40,-0.33,-0.99
132143271,0.40,-0.33,-0.99
132145263,0.41,-0.36,-1.00
132147256,0.41,-0.36,-1.00
132149266,0.41,-0.36,-1.00
132151296,0.41,-0.36,-1.00
132153272,0.41,-0.36,-1.00
132155256,0.44,-0.33,-0.98
132157259,0.44,-0.33,-0.98
132159268,0.44,-0.33,-0.98
132161286,0.44,-0.33,-0.98
132163225,0.44,-0.33,-0.98
132165313,0.43,-0.22,-0.98
132167222,0.43,-0.22,-0.98
132169257,0.43,-0.22,-0.98
132171220,0.43,-0.22,-0.98
132173218,0.43,-0.22,-0.98
132175218,0.44,-0.23,-1.15
132177213,0.44,-0.23,-1.15
132179215,0.44,-0.23,-1.15
132181281,0.44,-0.23,-1.15
132183258,0.44,-0.23,-1.15
132185256,0.44,-0.23,-1.15
132187253,0.43,-0.32,-1.26
132189258,0.43,-0.32,-1.26
132191354,0.43,-0.32,-1.26
132193304,0.43,-0.32,-1.26
132195274,0.43,-0.32,-1.26
132197251,0.39,-0.47,-1.21
132199222,0.39,-0.47,-1.21
132201218,0.39,-0.47,-1.21
132203214,0.39,-0.47,-1.21
132205216,0.39,-0.47,-1.21
132207235,0.36,-0.51,-1.09
132209291,0.36,-0.51,-1.09
132211256,0.36,-0.51,-1.09
132213250,0.36,-0.51,-1.09
132215315,0.36,-0.51,-1.09
132217227,0.31,-0.48,-1.16
132219221,0.31,-0.48,-1.16
132221267,0.31,-0.48,-1.16
132223309,0.31,-0.48,-1.16
132225271,0.31,-0.48,-1.16
132227258,0.27,-0.39,-1.38
132229256,0.27,-0.39,-1.38
132231261,0.27,-0.39,-1.38
132233269,0.27,-0.39,-1.38
132235254,0.27,-0.39,-1.38
132237222,0.23,-0.36,-1.41
132239225,0.23,-0.36,-1.41
132241393,0.23,-0.36,-1.41
132243239,0.23,-0.36,-1.41
132245219,0.23,-0.36,-1.41
132247216,0.20,-0.35,-1.16
132249212,0.20,-0.35,-1.16
132251222,0.20,-0.35,-1.16
132253222,0.20,-0.35,-1.16
132255213,0.20,-0.35,-1.16
132257215,0.16,-0.32,-0.97
132259228,0.16,-0.32,-0.97
132261296,0.16,-0.32,-0.97
132263264,0.16,-0.32,-0.97
132265359,0.16,-0.32,-0.97
132267255,0.11,-0.18,-1.05
132269259,0.11,-0.18,-1.05
132271287,0.11,-0.18,-1.05
132273282,0.11,-0.18,-1.05
132275256,0.11,-0.18,-1.05
132277255,0.11,-0.18,-1.05
132279252,0.07,-0.09,-1.30
132281284,0.07,-0.09,-1.30
132283258,0.07,-0.09,-1.30
132285218,0.07,-0.09,-1.30
132287222,0.07,-0.09,-1.30
132289214,0.04,-0.18,-1.20
132291314,0.04,-0.18,-1.20
132293222,0.04,-0.18,-1.20
132295216,0.04,-0.18,-1.20
132297221,0.04,-0.18,-1.20
132299223,0.02,-0.34,-0.86
132301268,0.02,-0.34,-0.86
132303254,0.02,-0.34,-0.86
132305259,0.02,-0.34,-0.86
132307259,0.02,-0.34,-0.86
132309326,0.01,-0.50,-0.68
132311276,0.01,-0.50,-0.68
132313257,0.01,-0.50,-0.68
132315359,0.01,-0.50,-0.68
132317256,0.01,-0.50,-0.68
132319215,0.01,-0.49,-0.73
132321223,0.01,-0.49,-0.73
132323292,0.01,-0.49,-0.73
132325233,0.01,-0.49,-0.73
132327212,0.01,-0.49,-0.73
132329210,0.01,-0.44,-0.95
132331269,0.01,-0.44,-0.95
132333258,0.01,-0.44,-0.95
132335219,0.01,-0.44,-0.95
132337240,0.01,-0.44,-0.95
132339218,0.01,-0.42,-1.05
132341391,0.01,-0.42,-1.05
132343256,0.01,-0.42,-1.05
132345258,0.01,-0.42,-1.05
132347263,0.01,-0.42,-1.05
132349286,0.02,-0.46,-0.94
132351262,0.02,-0.46,-0.94
132353259,0.02,-0.46,-0.94
132355258,0.02,-0.46,-0.94
132357238,0.02,-0.46,-0.94
132359225,0.02,-0.46,-0.94
132361296,0.03,-0.53,-0.72
132363257,0.03,-0.53,-0.72
132365315,0.03,-0.53,-0.72
132367218,0.03,-0.53,-0.72
132369212,0.03,-0.53,-0.72
132371258,0.04,-0.52,-0.56
132373212,0.04,-0.52,-0.56
132375215,0.04,-0.52,-0.56
132377212,0.04,-0.52,-0.56
132379212,0.04,-0.52,-0.56
132381277,0.10,-0.41,-0.50
132383264,0.10,-0.41,-0.50
132385255,0.10,-0.41,-0.50
132387287,0.10,-0.41,-0.50
132389286,0.10,-0.41,-0.50
132391369,0.12,-0.18,-0.41
132393259,0.12,-0.18,-0.41
132395257,0.12,-0.18,-0.41
132397297,0.12,-0.18,-0.41
132399254,0.12,-0.18,-0.41
132401220,0.11,-0.20,-0.43
132403216,0.11,-0.20,-0.43
132405216,0.11,-0.20,-0.43
132407216,0.11,-0.20,-0.43
132409215,0.11,-0.20,-0.43
132411216,0.08,-0.32,-0.54
132413214,0.08,-0.32,-0.54
132415335,0.08,-0.32,-0.54
132417255,0.08,-0.32,-0.54
132419216,0.08,-0.32,-0.54
132421275,0.04,-0.44,-0.62
132423290,0.04,-0.44,-0.62
132425270,0.04,-0.44,-0.62
132427256,0.04,-0.44,-0.62
132429255,0.04,-0.44,-0.62
132431261,0.02,-0.49,-0.66
132433286,0.02,-0.49,-0.66
132435286,0.02,-0.49,-0.66
132437256,0.02,-0.49,-0.66
132439252,0.02,-0.49,-0.66
132441328,0.00,-0.48,-0.70
132443301,0.00,-0.48,-0.70
132445241,0.00,-0.48,-0.70
132447210,0.00,-0.48,-0.70
132449246,0.00,-0.48,-0.70
132451259,0.00,-0.48,-0.70
132453215,-0.01,-0.42,-0.88
132455219,-0.01,-0.42,-0.88
132457230,-0.01,-0.42,-0.88
132459219,-0.01,-0.42,-0.88
132461290,-0.01,-0.42,-0.88
132463261,0.00,-0.34,-1.14
132465362,0.00,-0.34,-1.14
132467277,0.00,-0.34,-1.14
132469282,0.00,-0.34,-1.14
132471265,0.00,-0.34,-1.14
132473260,0.02,-0.40,-1.18
132475261,0.02,-0.40,-1.18
132477301,0.02,-0.40,-1.18
132479282,0.02,-0.40,-1.18
132481255,0.02,-0.40,-1.18
132483220,0.02,-0.49,-0.88
132485231,0.02,-0.49,-0.88
132487291,0.02,-0.49,-0.88
132489231,0.02,-0.49,-0.88
132491313,0.02,-0.49,-0.88
132493215,0.04,-0.48,-0.52
132495253,0.04,-0.48,-0.52
132497254,0.04,-0.48,-0.52
132499212,0.04,-0.48,-0.52
132501280,0.04,-0.48,-0.52
132503258,0.07,-0.45,-0.43
132505258,0.07,-0.45,-0.43
132507280,0.07,-0.45,-0.43
132509285,0.07,-0.45,-0.43
132511262,0.07,-0.45,-0.43
132513257,0.10,-0.31,-0.49
132515359,0.10,-0.31,-0.49
132517260,0.10,-0.31,-0.49
132519258,0.10,-0.31,-0.49
132521219,0.10,-0.31,-0.49
132523220,0.14,-0.18,-0.43
132525212,0.14,-0.18,-0.43
132527218,0.14,-0.18,-0.43
132529214,0.14,-0.18,-0.43
132531216,0.14,-0.18,-0.43
132533222,0.14,-0.18,-0.43
132535257,0.17,-0.07,-0.19
132537228,0.17,-0.07,-0.19
132539218,0.17,-0.07,-0.19
132541368,0.17,-0.07,-0.19
132543258,0.17,-0.07,-0.19
132545258,0.20,0.04,0.01
132547258,0.20,0.04,0.01
132549258,0.20,0.04,0.01
132551257,0.20,0.04,0.01
132553217,0.20,0.04,0.01
132555219,0.19,0.09,-0.17
132557215,0.19,0.09,-0.17
132559224,0.19,0.09,-0.17
132561232,0.19,0.09,-0.17
132563289,0.19,0.09,-0.17
132565361,0.14,0.02,-0.58
132567223,0.14,0.02,-0.58
132569215,0.14,0.02,-0.58
132571220,0.14,0.02,-0.58
132573219,0.14,0.02,-0.58
132575216,0.06,-0.18,-0.82
132577242,0.06,-0.18,-0.82
132579259,0.06,-0.18,-0.82
132581274,0.06,-0.18,-0.82
132583257,0.06,-0.18,-0.82
132585258,0.00,-0.39,-0.79
132587258,0.00,-0.39,-0.79
132589257,0.00,-0.39,-0.79
132591367,0.00,-0.39,-0.79
132593255,0.00,-0.39,-0.79
132595220,-0.05,-0.54,-0.75
132597217,-0.05,-0.54,-0.75
132599217,-0.05,-0.54,-0.75
132601224,-0.05,-0.54,-0.75
132603300,-0.05,-0.54,-0.75
132605238,-0.05,-0.54,-0.85
132607217,-0.05,-0.54,-0.85
132609212,-0.05,-0.54,-0.85
132611214,-0.05,-0.54,-0.85
132613216,-0.05,-0.54,-0.85
132615306,-0.05,-0.54,-0.85
132617222,-0.04,-0.41,-0.97
132619211,-0.04,-0.41,-0.97
132621263,-0.04,-0.41,-0.97
132623280,-0.04,-0.41,-0.97
132625256,-0.04,-0.41,-0.97
132627258,-0.02,-0.25,-1.01
132629255,-0.02,-0.25,-1.01
132631257,-0.02,-0.25,-1.01
132633263,-0.02,-0.25,-1.01
132635334,-0.02,-0.25,-1.01
132637258,0.02,-0.01,-1.02
132639219,0.02,-0.01,-1.02
132641315,0.02,-0.01,-1.02
132643216,0.02,-0.01,-1.02
132645235,0.02,-0.01,-1.02
132647261,0.07,-0.01,-0.99
132649220,0.07,-0.01,-0.99
132651212,0.07,-0.01,-0.99
132653217,0.07,-0.01,-0.99
132655210,0.07,-0.01,-0.99
132657212,0.09,-0.09,-0.86
132659225,0.09,-0.09,-0.86
132661288,0.09,-0.09,-0.86
132663256,0.09,-0.09,-0.86
132665358,0.09,-0.09,-0.86
132667260,0.11,-0.11,-0.80
132669258,0.11,-0.11,-0.80
132671257,0.11,-0.11,-0.80
132673254,0.11,-0.11,-0.80
132675291,0.11,-0.11,-0.80
132677256,0.09,-0.24,-0.93
132679220,0.09,-0.24,-0.93
132681214,0.09,-0.24,-0.93
132683220,0.09,-0.24,-0.93
132685216,0.09,-0.24,-0.93
132687224,0.07,-0.29,-1.06
132689259,0.07,-0.29,-1.06
132691317,0.07,-0.29,-1.06
132693216,0.07,-0.29,-1.06
132695211,0.07,-0.29,-1.06
132697216,0.04,-0.28,-1.09
132699217,0.04,-0.28,-1.09
132701282,0.04,-0.28,-1.09
132703256,0.04,-0.28,-1.09
132705258,0.04,-0.28,-1.09
132707259,0.04,-0.28,-1.09
132709349,0.02,-0.26,-1.14
132711262,0.02,-0.26,-1.14
132713250,0.02,-0.26,-1.14
132715350,0.02,-0.26,-1.14
132717234,0.02,-0.26,-1.14
132719208,0.00,-0.15,-1.17
132721285,0.00,-0.15,-1.17
132723240,0.00,-0.15,-1.17
132725242,0.00,-0.15,-1.17
132727203,0.00,-0.15,-1.17
132729203,-0.01,0.01,-1.16
132731205,-0.01,0.01,-1.16
132733205,-0.01,0.01,-1.16
132735206,-0.01,0.01,-1.16
132737253,-0.01,0.01,-1.16
132739256,0.00,-0.01,-1.05
132741387,0.00,-0.01,-1.05
132743252,0.00,-0.01,-1.05
132745243,0.00,-0.01,-1.05
132747253,0.00,-0.01,-1.05
132749276,0.02,-0.00,-0.80
132751262,0.02,-0.00,-0.80
132753249,0.02,-0.00,-0.80
132755249,0.02,-0.00,-0.80
132757248,0.02,-0.00,-0.80
132759282,0.04,0.06,-0.62
132761232,0.04,0.06,-0.62
132763195,0.04,0.06,-0.62
132765229,0.04,0.06,-0.62
132767224,0.04,0.06,-0.62
132769256,0.06,-0.02,-0.76
132771206,0.06,-0.02,-0.76
132773194,0.06,-0.02,-0.76
132775276,0.06,-0.02,-0.76
132777207,0.06,-0.02,-0.76
132779195,0.06,0.10,-0.97
132781271,0.06,0.10,-0.97
132783249,0.06,0.10,-0.97
132785249,0.06,0.10,-0.97
132787257,0.06,0.10,-0.97
132789253,0.06,0.10,-0.97
132791273,0.03,0.24,-1.21
132793251,0.03,0.24,-1.21
132795320,0.03,0.24,-1.21
132797231,0.03,0.24,-1.21
132799207,0.03,0.24,-1.21
132801195,-0.02,0.40,-1.57
132803202,-0.02,0.40,-1.57
132805203,-0.02,0.40,-1.57
132807202,-0.02,0.40,-1.57
132809209,-0.02,0.40,-1.57
132811256,-0.05,0.52,-1.96
132813204,-0.05,0.52,-1.96
132815225,-0.05,0.52,-1.96
132817209,-0.05,0.52,-1.96
132819203,-0.05,0.52,-1.96
132821264,-0.07,0.56,-2.00
132823248,-0.07,0.56,-2.00
132825252,-0.07,0.56,-2.00
132827269,-0.07,0.56,-2.00
132829246,-0.07,0.56,-2.00
132831246,-0.04,0.61,-1.96
132833245,-0.04,0.61,-1.96
132835242,-0.04,0.61,-1.96
132837247,-0.04,0.61,-1.96
132839205,-0.04,0.61,-1.96
132841231,-0.00,0.55,-1.74
132843206,-0.00,0.55,-1.74
132845202,-0.00,0.55,-1.74
132847202,-0.00,0.55,-1.74
132849204,-0.00,0.55,-1.74
132851194,0.03,0.55,-1.61
132853288,0.03,0.55,-1.61
132855236,0.03,0.55,-1.61
132857203,0.03,0.55,-1.61
132859207,0.03,0.55,-1.61
132861269,0.04,0.55,-1.61
132863245,0.04,0.55,-1.61
132865274,0.04,0.55,-1.61
132867269,0.04,0.55,-1.61
132869265,0.04,0.55,-1.61
132871247,0.02,0.42,-1.68
132873247,0.02,0.42,-1.68
132875251,0.02,0.42,-1.68
132877279,0.02,0.42,-1.68
132879229,0.02,0.42,-1.68
132881202,0.02,0.42,-1.68
132883190,0.00,0.35,-1.66
132885205,0.00,0.35,-1.66
132887204,0.00,0.35,-1.66
132889201,0.00,0.35,-1.66
132891233,0.00,0.35,-1.66
132893203,-0.04,0.14,-1.68
132895204,-0.04,0.14,-1.68
132897194,-0.04,0.14,-1.68
132899256,-0.04,0.14,-1.68
132901263,-0.04,0.14,-1.68
132903250,-0.07,0.11,-1.74
132905247,-0.07,0.11,-1.74
132907254,-0.07,0.11,-1.74
132909270,-0.07,0.11,-1.74
132911264,-0.07,0.11,-1.74
132913243,-0.05,0.05,-1.80
132915267,-0.05,0.05,-1.80
132917242,-0.05,0.05,-1.80
132919273,-0.05,0.05,-1.80
132921220,-0.05,0.05,-1.80
132923203,-0.03,-0.04,-1.69
132925206,-0.03,-0.04,-1.69
132927204,-0.03,-0.04,-1.69
132929248,-0.03,-0.04,-1.69
132931255,-0.03,-0.04,-1.69
132933210,0.02,-0.01,-1.52
132935205,0.02,-0.01,-1.52
132937238,0.02,-0.01,-1.52
132939205,0.02,-0.01,-1.52
132941295,0.02,-0.01,-1.52
132943249,0.09,-0.10,-1.42
132945248,0.09,-0.10,-1.42
132947247,0.09,-0.10,-1.42
132949245,0.09,-0.10,-1.42
132951245,0.09,-0.10,-1.42
132953267,0.12,-0.07,-1.23
132955324,0.12,-0.07,-1.23
132957231,0.12,-0.07,-1.23
132959207,0.12,-0.07,-1.23
132961224,0.12,-0.07,-1.23
132963205,0.12,-0.07,-1.23
132965281,0.15,-0.09,-1.07
132967210,0.15,-0.09,-1.07
132969205,0.15,-0.09,-1.07
132971204,0.15,-0.09,-1.07
132973210,0.15,-0.09,-1.07
132975205,0.18,-0.11,-1.01
132977204,0.18,-0.11,-1.01
132979206,0.18,-0.11,-1.01
132981266,0.18,-0.11,-1.01
132983248,0.18,-0.11,-1.01
132985246,0.18,-0.08,-0.96
132987253,0.18,-0.08,-0.96
132989316,0.18,-0.08,-0.96
132991284,0.18,-0.08,-0.96
132993250,0.18,-0.08,-0.96
132995245,0.19,-0.11,-0.87
132997263,0.19,-0.11,-0.87
132999257,0.19,-0.11,-0.87
133001212,0.19,-0.11,-0.87
133003207,0.19,-0.11,-0.87
133005206,0.19,-0.03,-0.76
133007244,0.19,-0.03,-0.76
133009240,0.19,-0.03,-0.76
133011205,0.19,-0.03,-0.76
133013203,0.19,-0.03,-0.76
133015225,0.20,-0.04,-0.71
133017204,0.20,-0.04,-0.71
133019202,0.20,-0.04,-0.71
133021261,0.20,-0.04,-0.71
133023251,0.20,-0.04,-0.71
133025245,0.19,-0.03,-0.66
133027254,0.19,-0.03,-0.66
133029309,0.19,-0.03,-0.66
133031272,0.19,-0.03,-0.66
133033249,0.19,-0.03,-0.66
133035251,0.18,0.00,-0.61
133037260,0.18,0.00,-0.61
133039274,0.18,0.00,-0.61
133041256,0.18,0.00,-0.61
133043210,0.18,0.00,-0.61
133045203,0.18,0.00,-0.61
133047254,0.17,0.00,-0.61
133049210,0.17,0.00,-0.61
133051203,0.17,0.00,-0.61
133053204,0.17,0.00,-0.61
133055203,0.17,0.00,-0.61
133057210,0.16,0.00,-0.58
133059208,0.16,0.00,-0.58
133061280,0.16,0.00,-0.58
133063254,0.16,0.00,-0.58
133065274,0.16,0.00,-0.58
133067253,0.13,-0.00,-0.55
133069294,0.13,-0.00,-0.55
133071256,0.13,-0.00,-0.55
133073246,0.13,-0.00,-0.55
133075253,0.13,-0.00,-0.55
133077273,0.11,0.00,-0.58
133079255,0.11,0.00,-0.58
133081207,0.11,0.00,-0.58
133083205,0.11,0.00,-0.58
133085203,0.11,0.00,-0.58
133087205,0.10,0.01,-0.66
133089202,0.10,0.01,-0.66
133091231,0.10,0.01,-0.66
133093203,0.10,0.01,-0.66
133095212,0.10,0.01,-0.66
133097257,0.08,0.00,-0.68
133099210,0.08,0.00,-0.68
133101265,0.08,0.00,-0.68
133103253,0.08,0.00,-0.68
133105247,0.08,0.00,-0.68
133107247,0.07,0.02,-0.58
133109245,0.07,0.02,-0.58
133111280,0.07,0.02,-0.58
133113279,0.07,0.02,-0.58
133115280,0.07,0.02,-0.58
133117210,0.06,0.09,-0.55
133119205,0.06,0.09,-0.55
133121203,0.06,0.09,-0.55
133123206,0.06,0.09,-0.55
133125204,0.06,0.09,-0.55
133127203,0.06,0.11,-0.65
133129206,0.06,0.11,-0.65
133131205,0.06,0.11,-0.65
133133235,0.06,0.11,-0.65
133135247,0.06,0.11,-0.65
133137243,0.06,0.11,-0.65
133139202,0.05,0.11,-0.66
133141273,0.05,0.11,-0.66
133143245,0.05,0.11,-0.66
133145249,0.05,0.11,-0.66
133147244,0.05,0.11,-0.66
133149244,0.04,0.10,-0.53
133151249,0.04,0.10,-0.53
133153205,0.04,0.10,-0.53
133155207,0.04,0.10,-0.53
133157204,0.04,0.10,-0.53
133159288,0.03,0.05,-0.49
133161251,0.03,0.05,-0.49
133163209,0.03,0.05,-0.49
133165229,0.03,0.05,-0.49
133167207,0.03,0.05,-0.49
133169219,0.01,0.05,-0.57
133171220,0.01,0.05,-0.57
133173256,0.01,0.05,-0.57
133175206,0.01,0.05,-0.57
133177210,0.01,0.05,-0.57
133179207,-0.01,0.06,-0.70
133181268,-0.01,0.06,-0.70
133183249,-0.01,0.06,-0.70
133185246,-0.01,0.06,-0.70
133187247,-0.01,0.06,-0.70
133189247,-0.03,0.05,-0.75
133191268,-0.03,0.05,-0.75
133193245,-0.03,0.05,-0.75
133195206,-0.03,0.05,-0.75
133197202,-0.03,0.05,-0.75
133199204,-0.04,0.05,-0.75
133201202,-0.04,0.05,-0.75
133203203,-0.04,0.05,-0.75
133205202,-0.04,0.05,-0.75
133207231,-0.04,0.05,-0.75
133209292,-0.04,0.08,-0.78
133211229,-0.04,0.08,-0.78
133213205,-0.04,0.08,-0.78
133215229,-0.04,0.08,-0.78
133217205,-0.04,0.08,-0.78
133219251,-0.04,0.08,-0.78
133221289,-0.04,0.13,-0.86
133223260,-0.04,0.13,-0.86
133225243,-0.04,0.13,-0.86
133227244,-0.04,0.13,-0.86
133229243,-0.04,0.13,-0.86
133231247,-0.04,0.19,-0.93
133233245,-0.04,0.19,-0.93
133235248,-0.04,0.19,-0.93
133237276,-0.04,0.19,-0.93
133239260,-0.04,0.19,-0.93
133241236,-0.04,0.20,-0.91
133243206,-0.04,0.20,-0.91
133245205,-0.04,0.20,-0.91
133247207,-0.04,0.20,-0.91
133249195,-0.04,0.20,-0.91
133251195,-0.02,0.20,-0.86
133253254,-0.02,0.20,-0.86
133255245,-0.02,0.20,-0.86
133257201,-0.02,0.20,-0.86
133259195,-0.02,0.20,-0.86
133261302,-0.01,0.19,-0.86
133263253,-0.01,0.19,-0.86
133265272,-0.01,0.19,-0.86
133267269,-0.01,0.19,-0.86
133269294,-0.01,0.19,-0.86
133271262,-0.01,0.22,-0.93
133273245,-0.01,0.22,-0.93
133275246,-0.01,0.22,-0.93
133277270,-0.01,0.22,-0.93
133279254,-0.01,0.22,-0.93
133281207,-0.02,0.31,-1.09
133283206,-0.02,0.31,-1.09
133285205,-0.02,0.31,-1.09
133287255,-0.02,0.31,-1.09
133289204,-0.02,0.31,-1.09
133291237,-0.03,0.32,-1.24
133293206,-0.03,0.32,-1.24
133295202,-0.03,0.32,-1.24
133297205,-0.03,0.32,-1.24
133299202,-0.03,0.32,-1.24
133301271,-0.04,0.35,-1.26
133303248,-0.04,0.35,-1.26
133305242,-0.04,0.35,-1.26
133307274,-0.04,0.35,-1.26
133309278,-0.04,0.35,-1.26
133311254,-0.04,0.35,-1.26
133313247,-0.05,0.40,-1.27
133315273,-0.05,0.40,-1.27
133317245,-0.05,0.40,-1.27
133319272,-0.05,0.40,-1.27
133321226,-0.05,0.40,-1.27
133323202,-0.06,0.40,-1.30
133325202,-0.06,0.40,-1.30
133327217,-0.06,0.40,-1.30
133329254,-0.06,0.40,-1.30
133331203,-0.06,0.40,-1.30
133333202,-0.07,0.40,-1.25
133335202,-0.07,0.40,-1.25
133337212,-0.07,0.40,-1.25
133339257,-0.07,0.40,-1.25
133341313,-0.07,0.40,-1.25
133343253,-0.08,0.36,-1.20
133345246,-0.08,0.36,-1.20
133347248,-0.08,0.36,-1.20
133349279,-0.08,0.36,-1.20
133351252,-0.08,0.36,-1.20
133353248,-0.10,0.36,-1.26
133355243,-0.10,0.36,-1.26
133357237,-0.10,0.36,-1.26
133359208,-0.10,0.36,-1.26
133361280,-0.10,0.36,-1.26
133363248,-0.13,0.39,-1.36
133365228,-0.13,0.39,-1.36
133367221,-0.13,0.39,-1.36
133369205,-0.13,0.39,-1.36
133371362,-0.13,0.39,-1.36
133373225,-0.14,0.36,-1.38
133375219,-0.14,0.36,-1.38
133377210,-0.14,0.36,-1.38
133379212,-0.14,0.36,-1.38
133381266,-0.14,0.36,-1.38
133383253,-0.12,0.36,-1.34
133385251,-0.12,0.36,-1.34
133387249,-0.12,0.36,-1.34
133389248,-0.12,0.36,-1.34
133391274,-0.12,0.36,-1.34
133393345,-0.11,0.42,-1.37
133395232,-0.11,0.42,-1.37
133397206,-0.11,0.42,-1.37
133399209,-0.11,0.42,-1.37
133401207,-0.11,0.42,-1.37
133403205,-0.11,0.42,-1.37
133405210,-0.07,0.47,-1.43
133407206,-0.07,0.47,-1.43
133409207,-0.07,0.47,-1.43
133411254,-0.07,0.47,-1.43
133413211,-0.07,0.47,-1.43
133415238,-0.03,0.43,-1.42
133417206,-0.03,0.43,-1.42
133419203,-0.03,0.43,-1.42
133421268,-0.03,0.43,-1.42
133423255,-0.03,0.43,-1.42
133425256,0.00,0.35,-1.32
133427254,0.00,0.35,-1.32
133429251,0.00,0.35,-1.32
133431251,0.00,0.35,-1.32
133433248,0.00,0.35,-1.32
133435212,0.03,0.27,-1.23
133437213,0.03,0.27,-1.23
133439244,0.03,0.27,-1.23
133441270,0.03,0.27,-1.23
133443218,0.03,0.27,-1.23
133445311,0.06,0.20,-1.19
133447234,0.06,0.20,-1.19
133449206,0.06,0.20,-1.19
133451203,0.06,0.20,-1.19
133453204,0.06,0.20,-1.19
133455206,0.09,0.13,-1.13
133457220,0.09,0.13,-1.13
133459210,0.09,0.13,-1.13
133461270,0.09,0.13,-1.13
133463248,0.09,0.13,-1.13
133465385,0.11,0.05,-1.03
133467288,0.11,0.05,-1.03
133469268,0.11,0.05,-1.03
133471252,0.11,0.05,-1.03
133473250,0.11,0.05,-1.03
133475249,0.12,0.00,-0.95
133477285,0.12,0.00,-0.95
133479236,0.12,0.00,-0.95
133481208,0.12,0.00,-0.95
133483205,0.12,0.00,-0.95
133485208,0.12,0.00,-0.95
133487210,0.14,-0.05,-0.94
133489208,0.14,-0.05,-0.94
133491240,0.14,-0.05,-0.94
133493211,0.14,-0.05,-0.94
133495208,0.14,-0.05,-0.94
133497216,0.14,-0.12,-0.91
133499210,0.14,-0.12,-0.91
133501281,0.14,-0.12,-0.91
133503270,0.14,-0.12,-0.91
133505258,0.14,-0.12,-0.91
133507249,0.16,-0.14,-0.85
133509253,0.16,-0.14,-0.85
133511279,0.16,-0.14,-0.85
133513260,0.16,-0.14,-0.85
133515359,0.16,-0.14,-0.85
133517251,0.17,-0.18,-0.84
133519236,0.17,-0.18,-0.84
133521217,0.17,-0.18,-0.84
133523264,0.17,-0.18,-0.84
133525280,0.17,-0.18,-0.84
133527221,0.18,-0.24,-0.86
133529210,0.18,-0.24,-0.86
133531212,0.18,-0.24,-0.86
133533211,0.18,-0.24,-0.86
133535217,0.18,-0.24,-0.86
133537243,0.19,-0.26,-0.83
133539256,0.19,-0.26,-0.83
133541301,0.19,-0.26,-0.83
133543268,0.19,-0.26,-0.83
133545253,0.19,-0.26,-0.83
133547251,0.19,-0.29,-0.80
133549283,0.19,-0.29,-0.80
133551273,0.19,-0.29,-0.80
133553252,0.19,-0.29,-0.80
133555248,0.19,-0.29,-0.80
133557248,0.20,-0.28,-0.82
133559274,0.20,-0.28,-0.82
133561231,0.20,-0.28,-0.82
133563220,0.20,-0.28,-0.82
133565230,0.20,-0.28,-0.82
133567207,0.20,-0.28,-0.82
133569205,0.22,-0.18,-0.84
133571205,0.22,-0.18,-0.84
133573205,0.22,-0.18,-0.84
133575261,0.22,-0.18,-0.84
133577210,0.22,-0.18,-0.84
133579215,0.23,-0.13,-0.83
133581270,0.23,-0.13,-0.83
133583250,0.23,-0.13,-0.83
133585252,0.23,-0.13,-0.83
133587258,0.23,-0.13,-0.83
133589268,0.23,-0.06,-0.77
133591288,0.23,-0.06,-0.77
133593250,0.23,-0.06,-0.77
133595250,0.23,-0.06,-0.77
133597241,0.23,-0.06,-0.77
133599312,0.23,0.01,-0.71
133601234,0.23,0.01,-0.71
133603208,0.23,0.01,-0.71
133605208,0.23,0.01,-0.71
133607255,0.23,0.01,-0.71
133609237,0.23,0.02,-0.72
133611212,0.23,0.02,-0.72
133613208,0.23,0.02,-0.72
133615228,0.23,0.02,-0.72
133617210,0.23,0.02,-0.72
133619204,0.22,0.04,-0.70
133621271,0.22,0.04,-0.70
133623252,0.22,0.04,-0.70
133625249,0.22,0.04,-0.70
133627251,0.22,0.04,-0.70
133629265,0.20,0.06,-0.61
133631289,0.20,0.06,-0.61
133633268,0.20,0.06,-0.61
133635248,0.20,0.06,-0.61
133637249,0.20,0.06,-0.61
133639247,0.19,0.04,-0.55
133641242,0.19,0.04,-0.55
133643205,0.19,0.04,-0.55
133645227,0.19,0.04,-0.55
133647285,0.19,0.04,-0.55
133649244,0.19,0.04,-0.55
133651210,0.18,0.05,-0.54
133653208,0.18,0.05,-0.54
133655208,0.18,0.05,-0.54
133657255,0.18,0.05,-0.54
133659216,0.18,0.05,-0.54
133661319,0.16,0.06,-0.57
133663256,0.16,0.06,-0.57
133665279,0.16,0.06,-0.57
133667266,0.16,0.06,-0.57
133669273,0.16,0.06,-0.57
133671262,0.13,0.06,-0.58
133673252,0.13,0.06,-0.58
133675251,0.13,0.06,-0.58
133677248,0.13,0.06,-0.58
133679208,0.13,0.06,-0.58
133681212,0.10,0.06,-0.62
133683207,0.10,0.06,-0.62
133685208,0.10,0.06,-0.62
133687212,0.10,0.06,-0.62
133689212,0.10,0.06,-0.62
133691266,0.08,0.06,-0.68
133693302,0.08,0.06,-0.68
133695234,0.08,0.06,-0.68
133697206,0.08,0.06,-0.68
133699204,0.08,0.06,-0.68
133701258,0.06,0.05,-0.72
133703253,0.06,0.05,-0.72
133705250,0.06,0.05,-0.72
133707283,0.06,0.05,-0.72
133709282,0.06,0.05,-0.72
133711250,0.04,0.04,-0.71
133713253,0.04,0.04,-0.71
133715275,0.04,0.04,-0.71
133717211,0.04,0.04,-0.71
133719214,0.04,0.04,-0.71
133721206,0.02,0.00,-0.70
133723207,0.02,0.00,-0.70
133725207,0.02,0.00,-0.70
133727211,0.02,0.00,-0.70
133729205,0.02,0.00,-0.70
133731211,0.01,-0.03,-0.71
133733206,0.01,-0.03,-0.71
133735210,0.01,-0.03,-0.71
133737208,0.01,-0.03,-0.71
133739245,0.01,-0.03,-0.71
133741270,0.01,-0.03,-0.71
133743255,0.02,-0.01,-0.75
133745286,0.02,-0.01,-0.75
133747267,0.02,-0.01,-0.75
133749279,0.02,-0.01,-0.75
133751254,0.02,-0.01,-0.75
133753256,0.02,-0.04,-0.84
133755252,0.02,-0.04,-0.84
133757244,0.02,-0.04,-0.84
133759214,0.02,-0.04,-0.84
133761227,0.02,-0.04,-0.84
133763213,0.03,-0.05,-0.97
133765234,0.03,-0.05,-0.97
133767290,0.03,-0.05,-0.97
133769238,0.03,-0.05,-0.97
133771208,0.03,-0.05,-0.97
133773211,0.06,-0.05,-1.12
133775288,0.06,-0.05,-1.12
133777232,0.06,-0.05,-1.12
133779255,0.06,-0.05,-1.12
133781288,0.06,-0.05,-1.12
133783254,0.09,-0.06,-1.16
133785251,0.09,-0.06,-1.16
133787253,0.09,-0.06,-1.16
133789250,0.09,-0.06,-1.16
133791273,0.09,-0.06,-1.16
133793252,0.12,-0.05,-1.12
133795213,0.12,-0.05,-1.12
133797207,0.12,-0.05,-1.12
133799213,0.12,-0.05,-1.12
133801210,0.12,-0.05,-1.12
133803208,0.12,-0.01,-1.19
133805206,0.12,-0.01,-1.19
133807270,0.12,-0.01,-1.19
133809256,0.12,-0.01,-1.19
133811226,0.12,-0.01,-1.19
133813215,0.13,0.03,-1.30
133815238,0.13,0.03,-1.30
133817208,0.13,0.03,-1.30
133819205,0.13,0.03,-1.30
133821260,0.13,0.03,-1.30
133823255,0.13,0.03,-1.30
133825270,0.12,-0.05,-1.27
133827252,0.12,-0.05,-1.27
133829253,0.12,-0.05,-1.27
133831253,0.12,-0.05,-1.27
133833248,0.12,-0.05,-1.27
133835210,0.11,-0.16,-1.04
133837209,0.11,-0.16,-1.04
133839246,0.11,-0.16,-1.04
133841227,0.11,-0.16,-1.04
133843211,0.11,-0.16,-1.04
133845212,0.10,-0.23,-0.87
133847211,0.10,-0.23,-0.87
133849208,0.10,-0.23,-0.87
133851206,0.10,-0.23,-0.87
133853242,0.10,-0.23,-0.87
133855349,0.11,-0.32,-0.90
133857235,0.11,-0.32,-0.90
133859209,0.11,-0.32,-0.90
133861270,0.11,-0.32,-0.90
133863250,0.11,-0.32,-0.90
133865357,0.09,-0.36,-1.00
133867250,0.09,-0.36,-1.00
133869251,0.09,-0.36,-1.00
133871251,0.09,-0.36,-1.00
133873249,0.09,-0.36,-1.00
133875214,0.08,-0.32,-1.18
133877212,0.08,-0.32,-1.18
133879215,0.08,-0.32,-1.18
133881212,0.08,-0.32,-1.18
133883211,0.08,-0.32,-1.18
133885203,0.09,-0.28,-1.39
133887208,0.09,-0.28,-1.39
133889207,0.09,-0.28,-1.39
133891225,0.09,-0.28,-1.39
133893202,0.09,-0.28,-1.39
133895215,0.13,-0.27,-1.49
133897208,0.13,-0.27,-1.49
133899207,0.13,-0.27,-1.49
133901254,0.13,-0.27,-1.49
133903248,0.13,-0.27,-1.49
133905246,0.17,-0.21,-1.49
133907251,0.17,-0.21,-1.49
133909250,0.17,-0.21,-1.49
133911246,0.17,-0.21,-1.49
133913209,0.17,-0.21,-1.49
133915311,0.17,-0.21,-1.49
133917285,0.22,-0.13,-1.51
133919239,0.22,-0.13,-1.51
133921207,0.22,-0.13,-1.51
133923211,0.22,-0.13,-1.51
133925210,0.22,-0.13,-1.51
133927208,0.25,0.02,-1.50
133929212,0.25,0.02,-1.50
133931209,0.25,0.02,-1.50
133933219,0.25,0.02,-1.50
133935256,0.25,0.02,-1.50
133937210,0.29,0.17,-1.47
133939244,0.29,0.17,-1.47
133941304,0.29,0.17,-1.47
133943257,0.29,0.17,-1.47
133945250,0.29,0.17,-1.47
133947254,0.34,0.33,-1.37
133949254,0.34,0.33,-1.37
133951253,0.34,0.33,-1.37
133953276,0.34,0.33,-1.37
133955255,0.34,0.33,-1.37
133957233,0.39,0.49,-1.23
133959291,0.39,0.49,-1.23
133961242,0.39,0.49,-1.23
133963210,0.39,0.49,-1.23
133965228,0.39,0.49,-1.23
133967214,0.44,0.53,-1.13
133969255,0.44,0.53,-1.13
133971219,0.44,0.53,-1.13
133973210,0.44,0.53,-1.13
133975208,0.44,0.53,-1.13
133977204,0.46,0.47,-1.04
133979246,0.46,0.47,-1.04
133981333,0.46,0.47,-1.04
133983254,0.46,0.47,-1.04
133985246,0.46,0.47,-1.04
133987262,0.44,0.36,-0.93
133989295,0.44,0.36,-0.93
133991290,0.44,0.36,-0.93
133993249,0.44,0.36,-0.93
133995243,0.44,0.36,-0.93
133997277,0.44,0.36,-0.93
133999255,0.38,0.23,-0.91
134001202,0.38,0.23,-0.91
134003195,0.38,0.23,-0.91
134005204,0.38,0.23,-0.91
134007205,0.38,0.23,-0.91
134009202,0.34,0.11,-1.05
134011202,0.34,0.11,-1.05
134013202,0.34,0.11,-1.05
134015226,0.34,0.11,-1.05
134017203,0.34,0.11,-1.05
134019205,0.30,0.07,-1.18
134021266,0.30,0.07,-1.18
134023247,0.30,0.07,-1.18
134025244,0.30,0.07,-1.18
134027243,0.30,0.07,-1.18
134029249,0.28,-0.01,-1.12
134031247,0.28,-0.01,-1.12
134033204,0.28,-0.01,-1.12
134035215,0.28,-0.01,-1.12
134037221,0.28,-0.01,-1.12
134039245,0.27,-0.07,-0.99
134041217,0.27,-0.07,-0.99
134043202,0.27,-0.07,-0.99
134045203,0.27,-0.07,-0.99
134047202,0.27,-0.07,-0.99
134049204,0.27,-0.03,-0.94
134051205,0.27,-0.03,-0.94
134053206,0.27,-0.03,-0.94
134055246,0.27,-0.03,-0.94
134057203,0.27,-0.03,-0.94
134059249,0.29,0.04,-0.88
134061286,0.29,0.04,-0.88
134063266,0.29,0.04,-0.88
134065274,0.29,0.04,-0.88
134067246,0.29,0.04,-0.88
134069248,0.30,0.08,-0.78
134071249,0.30,0.08,-0.78
134073246,0.30,0.08,-0.78
134075273,0.30,0.08,-0.78
134077262,0.30,0.08,-0.78
134079241,0.30,0.08,-0.78
134081206,0.31,0.05,-0.64
134083204,0.31,0.05,-0.64
134085206,0.31,0.05,-0.64
134087215,0.31,0.05,-0.64
134089206,0.31,0.05,-0.64
134091235,0.30,0.04,-0.49
134093205,0.30,0.04,-0.49
134095206,0.30,0.04,-0.49
134097205,0.30,0.04,-0.49
134099250,0.30,0.04,-0.49
134101282,0.30,0.05,-0.45
134103264,0.30,0.05,-0.45
134105247,0.30,0.05,-0.45
134107245,0.30,0.05,-0.45
134109247,0.30,0.05,-0.45
134111245,0.30,0.01,-0.52
134113246,0.30,0.01,-0.52
134115241,0.30,0.01,-0.52
134117269,0.30,0.01,-0.52
134119228,0.30,0.01,-0.52
134121201,0.29,0.00,-0.53
134123205,0.29,0.00,-0.53
134125206,0.29,0.00,-0.53
134127252,0.29,0.00,-0.53
134129249,0.29,0.00,-0.53
134131205,0.26,-0.03,-0.49
134133206,0.26,-0.03,-0.49
134135207,0.26,-0.03,-0.49
134137195,0.26,-0.03,-0.49
134139236,0.26,-0.03,-0.49
134141237,0.25,-0.04,-0.47
134143269,0.25,-0.04,-0.47
134145253,0.25,-0.04,-0.47
134147247,0.25,-0.04,-0.47
134149246,0.25,-0.04,-0.47
134151247,0.23,-0.02,-0.53
134153250,0.23,-0.02,-0.53
134155247,0.23,-0.02,-0.53
134157240,0.23,-0.02,-0.53
134159248,0.23,-0.02,-0.53
134161221,0.24,0.00,-0.56
134163211,0.24,0.00,-0.56
134165229,0.24,0.00,-0.56
134167211,0.24,0.00,-0.56
134169202,0.24,0.00,-0.56
134171218,0.24,0.00,-0.56
134173290,0.22,0.03,-0.52
134175229,0.22,0.03,-0.52
134177204,0.22,0.03,-0.52
134179202,0.22,0.03,-0.52
134181202,0.22,0.03,-0.52
134183256,0.21,0.01,-0.47
134185245,0.21,0.01,-0.47
134187286,0.21,0.01,-0.47
134189271,0.21,0.01,-0.47
134191268,0.21,0.01,-0.47
134193250,0.21,0.01,-0.44
134195250,0.21,0.01,-0.44
134197319,0.21,0.01,-0.44
134199264,0.21,0.01,-0.44
134201207,0.21,0.01,-0.44
134203210,0.21,0.03,-0.42
134205235,0.21,0.03,-0.42
134207278,0.21,0.03,-0.42
134209220,0.21,0.03,-0.42
134211202,0.21,0.03,-0.42
134213202,0.20,0.03,-0.42
134215195,0.20,0.03,-0.42
134217207,0.20,0.03,-0.42
134219222,0.20,0.03,-0.42
134221253,0.20,0.03,-0.42
134223269,0.19,0.00,-0.45
134225249,0.19,0.00,-0.45
134227247,0.19,0.00,-0.45
134229284,0.19,0.00,-0.45
134231276,0.19,0.00,-0.45
134233253,0.18,-0.02,-0.51
134235249,0.18,-0.02,-0.51
134237258,0.18,-0.02,-0.51
134239271,0.18,-0.02,-0.51
134241270,0.18,-0.02,-0.51
134243205,0.17,-0.04,-0.57
134245207,0.17,-0.04,-0.57
134247204,0.17,-0.04,-0.57
134249202,0.17,-0.04,-0.57
134251203,0.17,-0.04,-0.57
134253203,0.17,-0.04,-0.57
134255202,0.17,-0.02,-0.64
134257271,0.17,-0.02,-0.64
134259250,0.17,-0.02,-0.64
134261247,0.17,-0.02,-0.64
134263276,0.17,-0.02,-0.64
134265363,0.16,-0.03,-0.73
134267251,0.16,-0.03,-0.73
134269274,0.16,-0.03,-0.73
134271260,0.16,-0.03,-0.73
134273257,0.16,-0.03,-0.73
134275248,0.14,-0.00,-0.80
134277248,0.14,-0.00,-0.80
134279321,0.14,-0.00,-0.80
134281258,0.14,-0.00,-0.80
134283209,0.14,-0.00,-0.80
134285217,0.14,0.02,-0.90
134287226,0.14,0.02,-0.90
134289281,0.14,0.02,-0.90
134291248,0.14,0.02,-0.90
134293205,0.14,0.02,-0.90
134295262,0.14,-0.04,-0.98
134297228,0.14,-0.04,-0.98
134299205,0.14,-0.04,-0.98
134301204,0.14,-0.04,-0.98
134303268,0.14,-0.04,-0.98
134305249,0.12,-0.08,-0.95
134307250,0.12,-0.08,-0.95
134309249,0.12,-0.08,-0.95
134311245,0.12,-0.08,-0.95
134313245,0.12,-0.08,-0.95
134315350,0.10,-0.11,-0.93
134317217,0.10,-0.11,-0.93
134319205,0.10,-0.11,-0.93
134321207,0.10,-0.11,-0.93
134323203,0.10,-0.11,-0.93
134325206,0.10,-0.10,-1.06
134327204,0.10,-0.10,-1.06
134329205,0.10,-0.10,-1.06
134331203,0.10,-0.10,-1.06
134333210,0.10,-0.10,-1.06
134335204,0.09,-0.04,-1.24
134337230,0.09,-0.04,-1.24
134339254,0.09,-0.04,-1.24
134341301,0.09,-0.04,-1.24
134343283,0.09,-0.04,-1.24
134345246,0.09,-0.04,-1.24
134347245,0.09,0.05,-1.29
134349255,0.09,0.05,-1.29
134351245,0.09,0.05,-1.29
134353248,0.09,0.05,-1.29
134355244,0.09,0.05,-1.29
134357252,0.09,0.23,-1.28
134359257,0.09,0.23,-1.28
134361232,0.09,0.23,-1.28
134363243,0.09,0.23,-1.28
134365233,0.09,0.23,-1.28
134367206,0.11,0.44,-1.36
134369205,0.11,0.44,-1.36
134371205,0.11,0.44,-1.36
134373204,0.11,0.44,-1.36
134375237,0.11,0.44,-1.36
134377254,0.14,0.54,-1.40
134379207,0.14,0.54,-1.40
134381206,0.14,0.54,-1.40
134383270,0.14,0.54,-1.40
134385248,0.14,0.54,-1.40
134387245,0.12,0.52,-1.39
134389246,0.12,0.52,-1.39
134391268,0.12,0.52,-1.39
134393243,0.12,0.52,-1.39
134395248,0.12,0.52,-1.39
134397206,0.11,0.49,-1.48
134399203,0.11,0.49,-1.48
134401205,0.11,0.49,-1.48
134403204,0.11,0.49,-1.48
134405208,0.11,0.49,-1.48
134407194,0.07,0.39,-1.62
134409275,0.07,0.39,-1.62
134411245,0.07,0.39,-1.62
134413205,0.07,0.39,-1.62
134415237,0.07,0.39,-1.62
134417206,0.02,0.22,-1.72
134419202,0.02,0.22,-1.72
134421207,0.02,0.22,-1.72
134423277,0.02,0.22,-1.72
134425254,0.02,0.22,-1.72
134427252,0.02,0.22,-1.72
134429246,-0.01,0.09,-1.69
134431249,-0.01,0.09,-1.69
134433247,-0.01,0.09,-1.69
134435231,-0.01,0.09,-1.69
134437207,-0.01,0.09,-1.69
134439207,-0.03,-0.04,-1.58
134441225,-0.03,-0.04,-1.58
134443242,-0.03,-0.04,-1.58
134445247,-0.03,-0.04,-1.58
134447276,-0.03,-0.04,-1.58
134449231,-0.01,-0.12,-1.48
134451205,-0.01,-0.12,-1.48
134453203,-0.01,-0.12,-1.48
134455204,-0.01,-0.12,-1.48
134457224,-0.01,-0.12,-1.48
134459206,0.01,-0.21,-1.38
134461216,0.01,-0.21,-1.38
134463257,0.01,-0.21,-1.38
134465287,0.01,-0.21,-1.38
134467250,0.01,-0.21,-1.38
134469246,0.03,-0.26,-1.23
134471253,0.03,-0.26,-1.23
134473251,0.03,-0.26,-1.23
134475251,0.03,-0.26,-1.23
134477205,0.03,-0.26,-1.23
134479204,0.07,-0.28,-1.05
134481208,0.07,-0.28,-1.05
134483202,0.07,-0.28,-1.05
134485212,0.07,-0.28,-1.05
134487194,0.07,-0.28,-1.05
134489241,0.12,-0.30,-0.95
134491311,0.12,-0.30,-0.95
134493234,0.12,-0.30,-0.95
134495202,0.12,-0.30,-0.95
134497195,0.12,-0.30,-0.95
134499203,0.18,-0.25,-0.85
134501209,0.18,-0.25,-0.85
134503285,0.18,-0.25,-0.85
134505273,0.18,-0.25,-0.85
134507247,0.18,-0.25,-0.85
134509246,0.22,-0.21,-0.74
134511282,0.22,-0.21,-0.74
134513272,0.22,-0.21,-0.74
134515276,0.22,-0.21,-0.74
134517248,0.22,-0.21,-0.74
134519246,0.22,-0.21,-0.74
134521276,0.25,-0.19,-0.70
134523252,0.25,-0.19,-0.70
134525212,0.25,-0.19,-0.70
134527210,0.25,-0.19,-0.70
134529204,0.25,-0.19,-0.70
134531252,0.28,-0.18,-0.72
134533203,0.28,-0.18,-0.72
134535204,0.28,-0.18,-0.72
134537218,0.28,-0.18,-0.72
134539195,0.28,-0.18,-0.72
134541238,0.28,-0.17,-0.76
134543287,0.28,-0.17,-0.76
134545261,0.28,-0.17,-0.76
134547248,0.28,-0.17,-0.76
134549245,0.28,-0.17,-0.76
134551272,0.28,-0.21,-0.89
134553278,0.28,-0.21,-0.89
134555251,0.28,-0.21,-0.89
134557248,0.28,-0.21,-0.89
134559251,0.28,-0.21,-0.89
134561224,0.28,-0.21,-0.99
134563205,0.28,-0.21,-0.99
134565229,0.28,-0.21,-0.99
134567251,0.28,-0.21,-0.99
134569243,0.28,-0.21,-0.99
134571203,0.27,-0.21,-1.02
134573265,0.27,-0.21,-1.02
134575253,0.27,-0.21,-1.02
134577207,0.27,-0.21,-1.02
134579203,0.27,-0.21,-1.02
134581202,0.27,-0.21,-1.02
134583262,0.27,-0.21,-1.02
134585277,0.27,-0.21,-1.02
134587272,0.27,-0.21,-1.02
134589251,0.27,-0.21,-1.02
134591266,0.25,-0.18,-1.02
134593252,0.25,-0.18,-1.02
134595335,0.25,-0.18,-1.02
134597268,0.25,-0.18,-1.02
134599243,0.25,-0.18,-1.02
134601205,0.25,-0.18,-1.02
134603208,0.25,-0.19,-1.02
134605273,0.25,-0.19,-1.02
134607222,0.25,-0.19,-1.02
134609203,0.25,-0.19,-1.02
134611212,0.25,-0.19,-1.02
134613204,0.24,-0.13,-0.96
134615227,0.24,-0.13,-0.96
134617204,0.24,-0.13,-0.96
134619195,0.24,-0.13,-0.96
134621195,0.24,-0.13,-0.96
134623277,0.23,-0.09,-0.85
134625278,0.23,-0.09,-0.85
134627253,0.23,-0.09,-0.85
134629248,0.23,-0.09,-0.85
134631247,0.23,-0.09,-0.85
134633246,0.22,-0.07,-0.79
134635274,0.22,-0.07,-0.79
134637273,0.22,-0.07,-0.79
134639246,0.22,-0.07,-0.79
134641241,0.22,-0.07,-0.79
134643242,0.21,-0.05,-0.73
134645202,0.21,-0.05,-0.73
134647205,0.21,-0.05,-0.73
134649203,0.21,-0.05,-0.73
134651206,0.21,-0.05,-0.73
134653204,0.19,-0.01,-0.66
134655202,0.19,-0.01,-0.66
134657202,0.19,-0.01,-0.66
134659195,0.19,-0.01,-0.66
134661224,0.19,-0.01,-0.66
134663254,0.17,-0.03,-0.63
134665261,0.17,-0.03,-0.63
134667248,0.17,-0.03,-0.63
134669248,0.17,-0.03,-0.63
134671245,0.17,-0.03,-0.63
134673280,0.16,-0.01,-0.63
134675264,0.16,-0.01,-0.63
134677254,0.16,-0.01,-0.63
134679214,0.16,-0.01,-0.63
134681207,0.16,-0.01,-0.63
134683205,0.16,-0.01,-0.63
134685206,0.14,-0.01,-0.61
134687205,0.14,-0.01,-0.61
134689204,0.14,-0.01,-0.61
134691235,0.14,-0.01,-0.61
134693208,0.14,-0.01,-0.61
134695208,0.11,-0.03,-0.58
134697212,0.11,-0.03,-0.58
134699279,0.11,-0.03,-0.58
134701248,0.11,-0.03,-0.58
134703260,0.11,-0.03,-0.58
134705251,0.10,-0.04,-0.58
134707252,0.10,-0.04,-0.58
134709246,0.10,-0.04,-0.58
134711251,0.10,-0.04,-0.58
134713270,0.10,-0.04,-0.58
134715290,0.08,-0.08,-0.61
134717237,0.08,-0.08,-0.61
134719212,0.08,-0.08,-0.61
134721205,0.08,-0.08,-0.61
134723206,0.08,-0.08,-0.61
134725217,0.07,-0.10,-0.61
134727270,0.07,-0.10,-0.61
134729227,0.07,-0.10,-0.61
134731206,0.07,-0.10,-0.61
134733202,0.07,-0.10,-0.61
134735204,0.06,-0.10,-0.62
134737266,0.06,-0.10,-0.62
134739221,0.06,-0.10,-0.62
134741241,0.06,-0.10,-0.62
134743289,0.06,-0.10,-0.62
134745264,0.07,-0.11,-0.62
134747250,0.07,-0.11,-0.62
134749253,0.07,-0.11,-0.62
134751287,0.07,-0.11,-0.62
134753269,0.07,-0.11,-0.62
134755247,0.07,-0.07,-0.61
134757246,0.07,-0.07,-0.61
134759251,0.07,-0.07,-0.61
134761228,0.07,-0.07,-0.61
134763204,0.07,-0.07,-0.61
134765232,0.09,-0.11,-0.61
134767205,0.09,-0.11,-0.61
134769206,0.09,-0.11,-0.61
134771203,0.09,-0.11,-0.61
134773275,0.09,-0.11,-0.61
134775310,0.09,-0.11,-0.61
134777204,0.11,-0.12,-0.68
134779203,0.11,-0.12,-0.68
134781194,0.11,-0.12,-0.68
134783292,0.11,-0.12,-0.68
134785275,0.11,-0.12,-0.68
134787259,0.12,-0.14,-0.82
134789253,0.12,-0.14,-0.82
134791269,0.12,-0.14,-0.82
134793247,0.12,-0.14,-0.82
134795249,0.12,-0.14,-0.82
134797247,0.14,-0.18,-0.92
134799205,0.14,-0.18,-0.92
134801286,0.14,-0.18,-0.92
134803238,0.14,-0.18,-0.92
134805203,0.14,-0.18,-0.92
134807204,0.16,-0.18,-0.94
134809215,0.16,-0.18,-0.94
134811227,0.16,-0.18,-0.94
134813253,0.16,-0.18,-0.94
134815226,0.16,-0.18,-0.94
134817204,0.18,-0.20,-0.99
134819203,0.18,-0.20,-0.99
134821203,0.18,-0.20,-0.99
134823269,0.18,-0.20,-0.99
134825251,0.18,-0.20,-0.99
134827254,0.19,-0.16,-1.07
134829244,0.19,-0.16,-1.07
134831245,0.19,-0.16,-1.07
134833245,0.19,-0.16,-1.07
134835244,0.19,-0.16,-1.07
134837204,0.20,-0.11,-1.07
134839207,0.20,-0.11,-1.07
134841233,0.20,-0.11,-1.07
134843245,0.20,-0.11,-1.07
134845195,0.20,-0.11,-1.07
134847195,0.21,-0.07,-1.01
134849194,0.21,-0.07,-1.01
134851207,0.21,-0.07,-1.01
134853202,0.21,-0.07,-1.01
134855195,0.21,-0.07,-1.01
134857203,0.21,-0.07,-1.01
134859194,0.23,-0.05,-0.88
134861220,0.23,-0.05,-0.88
134863252,0.23,-0.05,-0.88
134865263,0.23,-0.05,-0.88
134867248,0.23,-0.05,-0.88
134869248,0.24,-0.09,-0.73
134871246,0.24,-0.09,-0.73
134873250,0.24,-0.09,-0.73
134875206,0.24,-0.09,-0.73
134877204,0.24,-0.09,-0.73
134879203,0.23,-0.14,-0.67
134881206,0.23,-0.14,-0.67
134883203,0.23,-0.14,-0.67
134885204,0.23,-0.14,-0.67
134887204,0.23,-0.14,-0.67
134889204,0.19,-0.22,-0.75
134891221,0.19,-0.22,-0.75
134893205,0.19,-0.22,-0.75
134895210,0.19,-0.22,-0.75
134897211,0.19,-0.22,-0.75
134899204,0.14,-0.30,-0.90
134901205,0.14,-0.30,-0.90
134903247,0.14,-0.30,-0.90
134905247,0.14,-0.30,-0.90
134907246,0.14,-0.30,-0.90
134909244,0.09,-0.32,-1.09
134911294,0.09,-0.32,-1.09
134913253,0.09,-0.32,-1.09
134915265,0.09,-0.32,-1.09
134917207,0.09,-0.32,-1.09
134919206,0.05,-0.41,-1.35
134921203,0.05,-0.41,-1.35
134923205,0.05,-0.41,-1.35
134925203,0.05,-0.41,-1.35
134927202,0.05,-0.41,-1.35
134929203,0.03,-0.47,-1.59
134931209,0.03,-0.47,-1.59
134933206,0.03,-0.47,-1.59
134935205,0.03,-0.47,-1.59
134937207,0.03,-0.47,-1.59
134939215,0.02,-0.38,-1.78
134941220,0.02,-0.38,-1.78
134943270,0.02,-0.38,-1.78
134945249,0.02,-0.38,-1.78
134947245,0.02,-0.38,-1.78
134949251,0.02,-0.38,-1.78
134951247,0.05,-0.30,-1.91
134953247,0.05,-0.30,-1.91
134955210,0.05,-0.30,-1.91
134957229,0.05,-0.30,-1.91
134959280,0.05,-0.30,-1.91
134961251,0.12,-0.18,-1.86
134963206,0.12,-0.18,-1.86
134965227,0.12,-0.18,-1.86
134967209,0.12,-0.18,-1.86
134969204,0.12,-0.18,-1.86
134971206,0.20,-0.03,-1.61
134973209,0.20,-0.03,-1.61
134975203,0.20,-0.03,-1.61
134977261,0.20,-0.03,-1.61
134979234,0.20,-0.03,-1.61
134981205,0.28,0.13,-1.34
134983269,0.28,0.13,-1.34
134985250,0.28,0.13,-1.34
134987245,0.28,0.13,-1.34
134989244,0.28,0.13,-1.34
134991268,0.34,0.25,-1.19
134993244,0.34,0.25,-1.19
134995248,0.34,0.25,-1.19
134997206,0.34,0.25,-1.19
134999204,0.34,0.25,-1.19
135001203,0.38,0.28,-1.12
135003207,0.38,0.28,-1.12
135005211,0.38,0.28,-1.12
135007206,0.38,0.28,-1.12
135009205,0.38,0.28,-1.12
135011205,0.37,0.24,-1.03
135013203,0.37,0.24,-1.03
135015215,0.37,0.24,-1.03
135017205,0.37,0.24,-1.03
135019203,0.37,0.24,-1.03
135021207,0.34,0.16,-0.96
135023266,0.34,0.16,-0.96
135025273,0.34,0.16,-0.96
135027263,0.34,0.16,-0.96
135029248,0.34,0.16,-0.96
135031255,0.34,0.16,-0.96
135033252,0.30,0.05,-1.00
135035258,0.30,0.05,-1.00
135037303,0.30,0.05,-1.00
135039261,0.30,0.05,-1.00
135041247,0.30,0.05,-1.00
135043242,0.27,-0.05,-1.07
135045204,0.27,-0.05,-1.07
135047202,0.27,-0.05,-1.07
135049201,0.27,-0.05,-1.07
135051193,0.27,-0.05,-1.07
135053202,0.24,-0.13,-1.02
135055195,0.24,-0.13,-1.02
135057359,0.24,-0.13,-1.02
135059239,0.24,-0.13,-1.02
135061223,0.24,-0.13,-1.02
135063268,0.22,-0.20,-0.92
135065292,0.22,-0.20,-0.92
135067259,0.22,-0.20,-0.92
135069244,0.22,-0.20,-0.92
135071245,0.22,-0.20,-0.92
135073246,0.23,-0.24,-0.86
135075253,0.23,-0.24,-0.86
135077270,0.23,-0.24,-0.86
135079274,0.23,-0.24,-0.86
135081237,0.23,-0.24,-0.86
135083203,0.23,-0.21,-0.79
135085202,0.23,-0.21,-0.79
135087215,0.23,-0.21,-0.79
135089270,0.23,-0.21,-0.79
135091338,0.23,-0.21,-0.79
135093206,0.24,-0.14,-0.73
135095218,0.24,-0.14,-0.73
135097251,0.24,-0.14,-0.73
135099203,0.24,-0.14,-0.73
135101201,0.24,-0.14,-0.73
135103276,0.25,-0.13,-0.68
135105249,0.25,-0.13,-0.68
135107245,0.25,-0.13,-0.68
135109267,0.25,-0.13,-0.68
135111279,0.25,-0.13,-0.68
135113254,0.26,-0.12,-0.62
135115347,0.26,-0.12,-0.62
135117251,0.26,-0.12,-0.62
135119281,0.26,-0.12,-0.62
135121241,0.26,-0.12,-0.62
135123203,0.26,-0.12,-0.62
135125202,0.25,-0.12,-0.55
135127212,0.25,-0.12,-0.55
135129250,0.25,-0.12,-0.55
135131194,0.25,-0.12,-0.55
135133201,0.25,-0.12,-0.55
135135202,0.24,-0.15,-0.55
135137206,0.24,-0.15,-0.55
135139202,0.24,-0.15,-0.55
135141311,0.24,-0.15,-0.55
135143289,0.24,-0.15,-0.55
135145273,0.21,-0.17,-0.56
135147248,0.21,-0.17,-0.56
135149244,0.21,-0.17,-0.56
135151279,0.21,-0.17,-0.56
135153270,0.21,-0.17,-0.56
135155247,0.19,-0.18,-0.57
135157245,0.19,-0.18,-0.57
135159277,0.19,-0.18,-0.57
135161274,0.19,-0.18,-0.57
135163234,0.19,-0.18,-0.57
135165302,0.16,-0.18,-0.55
135167212,0.16,-0.18,-0.55
135169214,0.16,-0.18,-0.55
135171255,0.16,-0.18,-0.55
135173205,0.16,-0.18,-0.55
135175204,0.14,-0.19,-0.49
135177195,0.14,-0.19,-0.49
135179205,0.14,-0.19,-0.49
135181235,0.14,-0.19,-0.49
135183280,0.14,-0.19,-0.49
135185276,0.12,-0.15,-0.42
135187247,0.12,-0.15,-0.42
135189249,0.12,-0.15,-0.42
135191376,0.12,-0.15,-0.42
135193274,0.12,-0.15,-0.42
135195252,0.12,-0.12,-0.41
135197244,0.12,-0.12,-0.41
135199248,0.12,-0.12,-0.41
135201224,0.12,-0.12,-0.41
135203215,0.12,-0.12,-0.41
135205272,0.12,-0.12,-0.41
135207222,0.11,-0.07,-0.41
135209203,0.11,-0.07,-0.41
135211203,0.11,-0.07,-0.41
135213201,0.11,-0.07,-0.41
135215299,0.11,-0.07,-0.41
135217212,0.11,-0.04,-0.42
135219204,0.11,-0.04,-0.42
135221203,0.11,-0.04,-0.42
135223268,0.11,-0.04,-0.42
135225252,0.11,-0.04,-0.42
135227244,0.10,-0.02,-0.40
135229245,0.10,-0.02,-0.40
135231246,0.10,-0.02,-0.40
135233245,0.10,-0.02,-0.40
135235207,0.10,-0.02,-0.40
135237203,0.09,-0.03,-0.43
135239203,0.09,-0.03,-0.43
135241313,0.09,-0.03,-0.43
135243293,0.09,-0.03,-0.43
135245249,0.09,-0.03,-0.43
135247202,0.07,-0.04,-0.49
135249195,0.07,-0.04,-0.49
135251203,0.07,-0.04,-0.49
135253202,0.07,-0.04,-0.49
135255204,0.07,-0.04,-0.49
135257202,0.05,-0.00,-0.51
135259195,0.05,-0.00,-0.51
135261225,0.05,-0.00,-0.51
135263281,0.05,-0.00,-0.51
135265369,0.05,-0.00,-0.51
135267284,0.02,-0.02,-0.60
135269245,0.02,-0.02,-0.60
135271249,0.02,-0.02,-0.60
135273268,0.02,-0.02,-0.60
135275258,0.02,-0.02,-0.60
135277245,-0.01,-0.07,-0.71
135279246,-0.01,-0.07,-0.71
135281205,-0.01,-0.07,-0.71
135283202,-0.01,-0.07,-0.71
135285205,-0.01,-0.07,-0.71
135287211,-0.01,-0.07,-0.71
135289207,-0.05,-0.07,-0.78
135291305,-0.05,-0.07,-0.78
135293206,-0.05,-0.07,-0.78
135295204,-0.05,-0.07,-0.78
135297204,-0.05,-0.07,-0.78
135299203,-0.07,-0.09,-0.83
135301257,-0.07,-0.09,-0.83
135303286,-0.07,-0.09,-0.83
135305261,-0.07,-0.09,-0.83
135307247,-0.07,-0.09,-0.83
135309247,-0.07,-0.11,-0.98
135311245,-0.07,-0.11,-0.98
135313267,-0.07,-0.11,-0.98
135315367,-0.07,-0.11,-0.98
135317259,-0.07,-0.11,-0.98
135319244,-0.08,-0.07,-1.17
135321204,-0.08,-0.07,-1.17
135323230,-0.08,-0.07,-1.17
135325297,-0.08,-0.07,-1.17
135327229,-0.08,-0.07,-1.17
135329201,-0.09,0.04,-1.30
135331205,-0.09,0.04,-1.30
135333252,-0.09,0.04,-1.30
135335204,-0.09,0.04,-1.30
135337195,-0.09,0.04,-1.30
135339189,-0.09,0.23,-1.42
135341310,-0.09,0.23,-1.42
135343205,-0.09,0.23,-1.42
135345291,-0.09,0.23,-1.42
135347265,-0.09,0.23,-1.42
135349245,-0.04,0.40,-1.57
135351246,-0.04,0.40,-1.57
135353278,-0.04,0.40,-1.57
135355276,-0.04,0.40,-1.57
135357247,-0.04,0.40,-1.57
135359251,0.04,0.52,-1.67
135361251,0.04,0.52,-1.67
135363204,0.04,0.52,-1.67
135365303,0.04,0.52,-1.67
135367269,0.04,0.52,-1.67
135369251,0.07,0.51,-1.77
135371370,0.07,0.51,-1.77
135373238,0.07,0.51,-1.77
135375207,0.07,0.51,-1.77
135377208,0.07,0.51,-1.77
135379241,0.07,0.51,-1.77
135381258,0.07,0.41,-1.85
135383213,0.07,0.41,-1.85
135385276,0.07,0.41,-1.85
135387266,0.07,0.41,-1.85
135389254,0.07,0.41,-1.85
135391358,0.02,0.32,-1.84
135393288,0.02,0.32,-1.84
135395265,0.02,0.32,-1.84
135397249,0.02,0.32,-1.84
135399247,0.02,0.32,-1.84
135401322,-0.02,0.20,-1.87
135403260,-0.02,0.20,-1.87
135405248,-0.02,0.20,-1.87
135407215,-0.02,0.20,-1.87
135409218,-0.02,0.20,-1.87
135411211,-0.04,0.14,-1.82
135413211,-0.04,0.14,-1.82
135415309,-0.04,0.14,-1.82
135417235,-0.04,0.14,-1.82
135419317,-0.04,0.14,-1.82
135421232,-0.03,0.09,-1.63
135423207,-0.03,0.09,-1.63
135425281,-0.03,0.09,-1.63
135427272,-0.03,0.09,-1.63
135429259,-0.03,0.09,-1.63
135431251,-0.02,0.04,-1.45
135433255,-0.02,0.04,-1.45
135435270,-0.02,0.04,-1.45
135437261,-0.02,0.04,-1.45
135439255,-0.02,0.04,-1.45
135441347,-0.00,-0.02,-1.32
135443234,-0.00,-0.02,-1.32
135445293,-0.00,-0.02,-1.32
135447251,-0.00,-0.02,-1.32
135449211,-0.00,-0.02,-1.32
135451207,0.00,-0.11,-1.22
135453257,0.00,-0.11,-1.22
135455210,0.00,-0.11,-1.22
135457221,0.00,-0.11,-1.22
135459209,0.00,-0.11,-1.22
135461226,0.00,-0.11,-1.22
135463218,0.01,-0.21,-1.11
135465366,0.01,-0.21,-1.11
135467254,0.01,-0.21,-1.11
135469248,0.01,-0.21,-1.11
135471253,0.01,-0.21,-1.11
135473257,0.02,-0.25,-1.05
135475291,0.02,-0.25,-1.05
135477273,0.02,-0.25,-1.05
135479253,0.02,-0.25,-1.05
135481247,0.02,-0.25,-1.05
135483212,0.04,-0.31,-1.05
135485210,0.04,-0.31,-1.05
135487208,0.04,-0.31,-1.05
135489275,0.04,-0.31,-1.05
135491352,0.04,-0.31,-1.05
135493210,0.06,-0.34,-1.01
135495211,0.06,-0.34,-1.01
135497218,0.06,-0.34,-1.01
135499261,0.06,-0.34,-1.01
135501211,0.06,-0.34,-1.01
135503216,0.08,-0.36,-0.96
135505268,0.08,-0.36,-0.96
135507251,0.08,-0.36,-0.96
135509249,0.08,-0.36,-0.96
135511250,0.08,-0.36,-0.96
135513251,0.11,-0.37,-0.91
135515352,0.11,-0.37,-0.91
135517252,0.11,-0.37,-0.91
135519212,0.11,-0.37,-0.91
135521214,0.11,-0.37,-0.91
135523208,0.14,-0.33,-0.88
135525208,0.14,-0.33,-0.88
135527211,0.14,-0.33,-0.88
135529227,0.14,-0.33,-0.88
135531305,0.14,-0.33,-0.88
135533233,0.17,-0.30,-0.88
135535208,0.17,-0.30,-0.88
135537221,0.17,-0.30,-0.88
135539205,0.17,-0.30,-0.88
135541309,0.17,-0.30,-0.88
135543219,0.20,-0.24,-0.87
135545284,0.20,-0.24,-0.87
135547277,0.20,-0.24,-0.87
135549257,0.20,-0.24,-0.87
135551251,0.20,-0.24,-0.87
135553250,0.20,-0.24,-0.87
135555256,0.21,-0.21,-0.84
135557251,0.21,-0.21,-0.84
135559255,0.21,-0.21,-0.84
135561287,0.21,-0.21,-0.84
135563246,0.21,-0.21,-0.84
135565312,0.23,-0.18,-0.84
135567215,0.23,-0.18,-0.84
135569210,0.23,-0.18,-0.84
135571206,0.23,-0.18,-0.84
135573204,0.23,-0.18,-0.84
135575230,0.24,-0.18,-0.87
135577210,0.24,-0.18,-0.87
135579213,0.24,-0.18,-0.87
135581212,0.24,-0.18,-0.87
135583208,0.24,-0.18,-0.87
135585260,0.23,-0.19,-0.88
135587252,0.23,-0.19,-0.88
135589253,0.23,-0.19,-0.88
135591331,0.23,-0.19,-0.88
135593251,0.23,-0.19,-0.88
135595247,0.23,-0.22,-0.84
135597223,0.23,-0.22,-0.84
135599328,0.23,-0.22,-0.84
135601236,0.23,-0.22,-0.84
135603206,0.23,-0.22,-0.84
135605208,0.23,-0.24,-0.77
135607205,0.23,-0.24,-0.77
135609216,0.23,-0.24,-0.77
135611254,0.23,-0.24,-0.77
135613209,0.23,-0.24,-0.77
135615300,0.23,-0.24,-0.76
135617216,0.23,-0.24,-0.76
135619206,0.23,-0.24,-0.76
135621203,0.23,-0.24,-0.76
135623206,0.23,-0.24,-0.76
135625272,0.23,-0.22,-0.76
135627252,0.23,-0.22,-0.76
135629253,0.23,-0.22,-0.76
135631253,0.23,-0.22,-0.76
135633249,0.23,-0.22,-0.76
135635252,0.23,-0.22,-0.76
135637305,0.22,-0.21,-0.73
135639266,0.22,-0.21,-0.73
135641341,0.22,-0.21,-0.73
135643210,0.22,-0.21,-0.73
135645217,0.22,-0.21,-0.73
135647285,0.21,-0.19,-0.71
135649249,0.21,-0.19,-0.71
135651210,0.21,-0.19,-0.71
135653207,0.21,-0.19,-0.71
135655268,0.21,-0.19,-0.71
135657237,0.19,-0.17,-0.71
135659209,0.19,-0.17,-0.71
135661227,0.19,-0.17,-0.71
135663211,0.19,-0.17,-0.71
135665359,0.19,-0.17,-0.71
135667257,0.18,-0.13,-0.71
135669251,0.18,-0.13,-0.71
135671252,0.18,-0.13,-0.71
135673304,0.18,-0.13,-0.71
135675271,0.18,-0.13,-0.71
135677254,0.17,-0.13,-0.66
135679249,0.17,-0.13,-0.66
135681246,0.17,-0.13,-0.66
135683205,0.17,-0.13,-0.66
135685210,0.17,-0.13,-0.66
135687213,0.15,-0.14,-0.56
135689359,0.15,-0.14,-0.56
135691335,0.15,-0.14,-0.56
135693208,0.15,-0.14,-0.56
135695218,0.15,-0.14,-0.56
135697243,0.14,-0.14,-0.48
135699211,0.14,-0.14,-0.48
135701210,0.14,-0.14,-0.48
135703207,0.14,-0.14,-0.48
135705262,0.14,-0.14,-0.48
135707256,0.13,-0.12,-0.44
135709297,0.13,-0.12,-0.44
135711271,0.13,-0.12,-0.44
135713255,0.13,-0.12,-0.44
135715350,0.13,-0.12,-0.44
135717254,0.12,-0.07,-0.46
135719277,0.12,-0.07,-0.46
135721258,0.12,-0.07,-0.46
135723239,0.12,-0.07,-0.46
135725218,0.12,-0.07,-0.46
135727224,0.12,-0.07,-0.46
135729276,0.11,-0.04,-0.52
135731224,0.11,-0.04,-0.52
135733207,0.11,-0.04,-0.52
135735210,0.11,-0.04,-0.52
135737208,0.11,-0.04,-0.52
135739206,0.08,-0.05,-0.61
135741309,0.08,-0.05,-0.61
135743214,0.08,-0.05,-0.61
135745275,0.08,-0.05,-0.61
135747270,0.08,-0.05,-0.61
135749265,0.06,-0.07,-0.69
135751260,0.06,-0.07,-0.69
135753256,0.06,-0.07,-0.69
135755253,0.06,-0.07,-0.69
135757254,0.06,-0.07,-0.69
135759256,0.05,-0.12,-0.73
135761234,0.05,-0.12,-0.73
135763212,0.05,-0.12,-0.73
135765311,0.05,-0.12,-0.73
135767216,0.05,-0.12,-0.73
135769207,0.02,-0.21,-0.73
135771211,0.02,-0.21,-0.73
135773211,0.02,-0.21,-0.73
135775281,0.02,-0.21,-0.73
135777231,0.02,-0.21,-0.73
135779233,0.00,-0.30,-0.82
135781204,0.00,-0.30,-0.82
135783206,0.00,-0.30,-0.82
135785257,0.00,-0.30,-0.82
135787252,0.00,-0.30,-0.82
135789251,-0.02,-0.35,-1.00
135791350,-0.02,-0.35,-1.00
135793250,-0.02,-0.35,-1.00
135795251,-0.02,-0.35,-1.00
135797249,-0.02,-0.35,-1.00
135799207,-0.02,-0.30,-1.16
135801205,-0.02,-0.30,-1.16
135803202,-0.02,-0.30,-1.16
135805203,-0.02,-0.30,-1.16
135807236,-0.02,-0.30,-1.16
135809345,-0.02,-0.30,-1.16
135811239,0.00,-0.20,-1.13
135813203,0.00,-0.20,-1.13
135815300,0.00,-0.20,-1.13
135817207,0.00,-0.20,-1.13
135819202,0.00,-0.20,-1.13
135821206,0.05,-0.15,-1.04
135823202,0.05,-0.15,-1.04
135825259,0.05,-0.15,-1.04
135827248,0.05,-0.15,-1.04
135829246,0.05,-0.15,-1.04
135831247,0.09,-0.07,-1.02
135833247,0.09,-0.07,-1.02
135835244,0.09,-0.07,-1.02
135837203,0.09,-0.07,-1.02
135839203,0.09,-0.07,-1.02
135841288,0.08,-0.02,-1.16
135843206,0.08,-0.02,-1.16
135845203,0.08,-0.02,-1.16
135847205,0.08,-0.02,-1.16
135849208,0.08,-0.02,-1.16
135851243,0.04,-0.07,-1.38
135853203,0.04,-0.07,-1.38
135855202,0.04,-0.07,-1.38
135857204,0.04,-0.07,-1.38
135859207,0.04,-0.07,-1.38
135861223,0.04,-0.12,-1.52
135863204,0.04,-0.12,-1.52
135865361,0.04,-0.12,-1.52
135867271,0.04,-0.12,-1.52
135869248,0.04,-0.12,-1.52
135871244,0.05,-0.13,-1.56
135873248,0.05,-0.13,-1.56
135875253,0.05,-0.13,-1.56
135877254,0.05,-0.13,-1.56
135879251,0.05,-0.13,-1.56
135881275,0.06,-0.17,-1.60
135883227,0.06,-0.17,-1.60
135885205,0.06,-0.17,-1.60
135887205,0.06,-0.17,-1.60
135889202,0.06,-0.17,-1.60
135891310,0.08,-0.07,-1.64
135893204,0.08,-0.07,-1.64
135895195,0.08,-0.07,-1.64
135897207,0.08,-0.07,-1.64
135899204,0.08,-0.07,-1.64
135901202,0.08,-0.07,-1.64
135903205,0.13,0.06,-1.67
135905258,0.13,0.06,-1.67
135907247,0.13,0.06,-1.67
135909245,0.13,0.06,-1.67
135911244,0.13,0.06,-1.67
135913248,0.17,0.24,-1.52
135915325,0.17,0.24,-1.52
135917214,0.17,0.24,-1.52
135919205,0.17,0.24,-1.52
135921204,0.17,0.24,-1.52
135923211,0.23,0.39,-1.34
135925205,0.23,0.39,-1.34
135927211,0.23,0.39,-1.34
135929211,0.23,0.39,-1.34
135931204,0.23,0.39,-1.34
135933206,0.30,0.51,-1.18
135935207,0.30,0.51,-1.18
135937204,0.30,0.51,-1.18
135939205,0.30,0.51,-1.18
135941268,0.30,0.51,-1.18
135943206,0.36,0.57,-0.99
135945250,0.36,0.57,-0.99
135947245,0.36,0.57,-0.99
135949247,0.36,0.57,-0.99
135951274,0.36,0.57,-0.99
135953293,0.38,0.54,-0.79
135955273,0.38,0.54,-0.79
135957253,0.38,0.54,-0.79
135959251,0.38,0.54,-0.79
135961222,0.38,0.54,-0.79
135963203,0.36,0.43,-0.71
135965299,0.36,0.43,-0.71
135967217,0.36,0.43,-0.71
135969204,0.36,0.43,-0.71
135971274,0.36,0.43,-0.71
135973224,0.32,0.30,-0.77
135975205,0.32,0.30,-0.77
135977202,0.32,0.30,-0.77
135979202,0.32,0.30,-0.77
135981206,0.32,0.30,-0.77
135983195,0.32,0.30,-0.77
135985265,0.27,0.13,-0.88
135987284,0.27,0.13,-0.88
135989268,0.27,0.13,-0.88
135991351,0.27,0.13,-0.88
135993247,0.27,0.13,-0.88
135995247,0.22,0.02,-0.91
135997245,0.22,0.02,-0.91
135999277,0.22,0.02,-0.91
136001279,0.22,0.02,-0.91
136003246,0.22,0.02,-0.91
136005210,0.17,-0.12,-0.91
136007204,0.17,-0.12,-0.91
136009271,0.17,-0.12,-0.91
136011251,0.17,-0.12,-0.91
136013207,0.17,-0.12,-0.91
136015300,0.13,-0.22,-0.92
136017237,0.13,-0.22,-0.92
136019248,0.13,-0.22,-0.92
136021206,0.13,-0.22,-0.92
136023204,0.13,-0.22,-0.92
136025267,0.11,-0.25,-0.91
136027249,0.11,-0.25,-0.91
136029244,0.11,-0.25,-0.91
136031249,0.11,-0.25,-0.91
136033240,0.11,-0.25,-0.91
136035247,0.11,-0.23,-0.91
136037251,0.11,-0.23,-0.91
136039207,0.11,-0.23,-0.91
136041311,0.11,-0.23,-0.91
136043208,0.11,-0.23,-0.91
136045210,0.11,-0.18,-0.88
136047205,0.11,-0.18,-0.88
136049242,0.11,-0.18,-0.88
136051301,0.11,-0.18,-0.88
136053259,0.11,-0.18,-0.88
136055206,0.13,-0.13,-0.84
136057202,0.13,-0.13,-0.84
136059209,0.13,-0.13,-0.84
136061251,0.13,-0.13,-0.84
136063256,0.13,-0.13,-0.84
136065360,0.13,-0.13,-0.84
136067256,0.14,-0.09,-0.75
136069246,0.14,-0.09,-0.75
136071258,0.14,-0.09,-0.75
136073327,0.14,-0.09,-0.75
136075262,0.14,-0.09,-0.75
136077248,0.16,-0.05,-0.69
136079249,0.16,-0.05,-0.69
136081244,0.16,-0.05,-0.69
136083221,0.16,-0.05,-0.69
136085278,0.16,-0.05,-0.69
136087220,0.16,-0.01,-0.68
136089207,0.16,-0.01,-0.68
136091312,0.16,-0.01,-0.68
136093207,0.16,-0.01,-0.68
136095202,0.16,-0.01,-0.68
136097210,0.16,0.01,-0.67
136099203,0.16,0.01,-0.67
136101210,0.16,0.01,-0.67
136103252,0.16,0.01,-0.67
136105276,0.16,0.01,-0.67
136107279,0.14,0.06,-0.64
136109249,0.14,0.06,-0.64
136111243,0.14,0.06,-0.64
136113246,0.14,0.06,-0.64
136115347,0.14,0.06,-0.64
136117252,0.14,0.07,-0.62
136119261,0.14,0.07,-0.62
136121220,0.14,0.07,-0.62
136123278,0.14,0.07,-0.62
136125230,0.14,0.07,-0.62
136127202,0.11,0.08,-0.64
136129202,0.11,0.08,-0.64
136131210,0.11,0.08,-0.64
136133202,0.11,0.08,-0.64
136135195,0.11,0.08,-0.64
136137203,0.11,0.12,-0.66
136139218,0.11,0.12,-0.66
136141354,0.11,0.12,-0.66
136143211,0.11,0.12,-0.66
136145266,0.11,0.12,-0.66
136147250,0.09,0.17,-0.69
136149245,0.09,0.17,-0.69
136151250,0.09,0.17,-0.69
136153268,0.09,0.17,-0.69
136155245,0.09,0.17,-0.69
136157247,0.09,0.17,-0.69
136159214,0.09,0.23,-0.71
136161223,0.09,0.23,-0.71
136163204,0.09,0.23,-0.71
136165295,0.09,0.23,-0.71
136167218,0.09,0.23,-0.71
136169202,0.09,0.21,-0.66
136171205,0.09,0.21,-0.66
136173202,0.09,0.21,-0.66
136175204,0.09,0.21,-0.66
136177206,0.09,0.21,-0.66
136179204,0.10,0.18,-0.57
136181204,0.10,0.18,-0.57
136183207,0.10,0.18,-0.57
136185252,0.10,0.18,-0.57
136187245,0.10,0.18,-0.57
136189243,0.11,0.18,-0.52
136191327,0.11,0.18,-0.52
136193247,0.11,0.18,-0.52
136195247,0.11,0.18,-0.52
136197205,0.11,0.18,-0.52
136199210,0.12,0.16,-0.62
136201203,0.12,0.16,-0.62
136203207,0.12,0.16,-0.62
136205247,0.12,0.16,-0.62
136207248,0.12,0.16,-0.62
136209207,0.09,0.16,-0.79
136211206,0.09,0.16,-0.79
136213211,0.09,0.16,-0.79
136215366,0.09,0.16,-0.79
136217238,0.09,0.16,-0.79
136219206,0.04,0.17,-0.95
136221195,0.04,0.17,-0.95
136223202,0.04,0.17,-0.95
136225259,0.04,0.17,-0.95
136227247,0.04,0.17,-0.95
136229251,0.00,0.26,-1.15
136231253,0.00,0.26,-1.15
136233248,0.00,0.26,-1.15
136235244,0.00,0.26,-1.15
136237204,0.00,0.26,-1.15
136239207,0.00,0.26,-1.15
136241294,0.02,0.46,-1.36
136243209,0.02,0.46,-1.36
136245205,0.02,0.46,-1.36
136247203,0.02,0.46,-1.36
136249204,0.02,0.46,-1.36
136251213,0.07,0.55,-1.40
136253239,0.07,0.55,-1.40
136255204,0.07,0.55,-1.40
136257202,0.07,0.55,-1.40
136259214,0.07,0.55,-1.40
136261222,0.11,0.42,-1.25
136263203,0.11,0.42,-1.25
136265347,0.11,0.42,-1.25
136267251,0.11,0.42,-1.25
136269248,0.11,0.42,-1.25
136271247,0.12,0.33,-1.18
136273248,0.12,0.33,-1.18
136275244,0.12,0.33,-1.18
136277209,0.12,0.33,-1.18
136279205,0.12,0.33,-1.18
136281192,0.06,0.27,-1.40
136283251,0.06,0.27,-1.40
136285302,0.06,0.27,-1.40
136287224,0.06,0.27,-1.40
136289202,0.06,0.27,-1.40
136291311,0.00,0.13,-1.68
136293202,0.00,0.13,-1.68
136295205,0.00,0.13,-1.68
136297194,0.00,0.13,-1.68
136299201,0.00,0.13,-1.68
136301195,-0.02,-0.04,-1.67
136303254,-0.02,-0.04,-1.67
136305270,-0.02,-0.04,-1.67
136307258,-0.02,-0.04,-1.67
136309276,-0.02,-0.04,-1.67
136311250,-0.03,-0.21,-1.37
136313276,-0.03,-0.21,-1.37
136315370,-0.03,-0.21,-1.37
136317267,-0.03,-0.21,-1.37
136319248,-0.03,-0.21,-1.37
136321246,-0.02,-0.32,-1.19
136323255,-0.02,-0.32,-1.19
136325256,-0.02,-0.32,-1.19
136327206,-0.02,-0.32,-1.19
136329203,-0.02,-0.32,-1.19
136331204,-0.02,-0.32,-1.19
136333209,0.02,-0.36,-1.21
136335224,0.02,-0.36,-1.21
136337261,0.02,-0.36,-1.21
136339206,0.02,-0.36,-1.21
136341310,0.02,-0.36,-1.21
136343203,0.09,-0.34,-1.09
136345267,0.09,-0.34,-1.09
136347249,0.09,-0.34,-1.09
136349246,0.09,-0.34,-1.09
136351249,0.09,-0.34,-1.09
136353272,0.16,-0.29,-0.85
136355246,0.16,-0.29,-0.85
136357249,0.16,-0.29,-0.85
136359210,0.16,-0.29,-0.85
136361221,0.16,-0.29,-0.85
136363204,0.21,-0.23,-0.66
136365297,0.21,-0.23,-0.66
136367221,0.21,-0.23,-0.66
136369205,0.21,-0.23,-0.66
136371205,0.21,-0.23,-0.66
136373206,0.24,-0.17,-0.67
136375204,0.24,-0.17,-0.67
136377205,0.24,-0.17,-0.67
136379203,0.24,-0.17,-0.67
136381208,0.24,-0.17,-0.67
136383213,0.25,-0.11,-0.77
136385249,0.25,-0.11,-0.77
136387249,0.25,-0.11,-0.77
136389246,0.25,-0.11,-0.77
136391324,0.25,-0.11,-0.77
136393249,0.25,-0.12,-0.88
136395248,0.25,-0.12,-0.88
136397252,0.25,-0.12,-0.88
136399291,0.25,-0.12,-0.88
136401227,0.25,-0.12,-0.88
136403208,0.23,-0.20,-0.93
136405204,0.23,-0.20,-0.93
136407204,0.23,-0.20,-0.93
136409203,0.23,-0.20,-0.93
136411203,0.23,-0.20,-0.93
136413204,0.23,-0.20,-0.93
136415195,0.19,-0.27,-0.96
136417217,0.19,-0.27,-0.96
136419203,0.19,-0.27,-0.96
136421202,0.19,-0.27,-0.96
136423202,0.19,-0.27,-0.96
136425255,0.15,-0.36,-1.03
136427252,0.15,-0.36,-1.03
136429254,0.15,-0.36,-1.03
136431247,0.15,-0.36,-1.03
136433244,0.15,-0.36,-1.03
136435245,0.14,-0.45,-1.17
136437206,0.14,-0.45,-1.17
136439206,0.14,-0.45,-1.17
136441289,0.14,-0.45,-1.17
136443214,0.14,-0.45,-1.17
136445205,0.11,-0.52,-1.23
136447211,0.11,-0.52,-1.23
136449205,0.11,-0.52,-1.23
136451212,0.11,-0.52,-1.23
136453251,0.11,-0.52,-1.23
136455205,0.11,-0.60,-1.14
136457221,0.11,-0.60,-1.14
136459207,0.11,-0.60,-1.14
136461219,0.11,-0.60,-1.14
136463203,0.11,-0.60,-1.14
136465342,0.11,-0.61,-1.04
136467253,0.11,-0.61,-1.04
136469242,0.11,-0.61,-1.04
136471246,0.11,-0.61,-1.04
136473276,0.11,-0.61,-1.04
136475270,0.12,-0.54,-0.98
136477254,0.12,-0.54,-0.98
136479247,0.12,-0.54,-0.98
136481206,0.12,-0.54,-0.98
136483208,0.12,-0.54,-0.98
136485205,0.16,-0.45,-0.94
136487205,0.16,-0.45,-0.94
136489193,0.16,-0.45,-0.94
136491308,0.16,-0.45,-0.94
136493207,0.16,-0.45,-0.94
136495205,0.16,-0.45,-0.94
136497207,0.19,-0.33,-0.85
136499203,0.19,-0.33,-0.85
136501205,0.19,-0.33,-0.85
136503204,0.19,-0.33,-0.85
136505250,0.19,-0.33,-0.85
136507256,0.22,-0.25,-0.74
136509252,0.22,-0.25,-0.74
136511246,0.22,-0.25,-0.74
136513274,0.22,-0.25,-0.74
136515335,0.22,-0.25,-0.74
136517253,0.24,-0.21,-0.64
136519205,0.24,-0.21,-0.64
136521215,0.24,-0.21,-0.64
136523302,0.24,-0.21,-0.64
136525231,0.24,-0.21,-0.64
136527203,0.24,-0.16,-0.64
136529194,0.24,-0.16,-0.64
136531195,0.24,-0.16,-0.64
136533219,0.24,-0.16,-0.64
136535254,0.24,-0.16,-0.64
136537219,0.24,-0.15,-0.64
136539203,0.24,-0.15,-0.64
136541312,0.24,-0.15,-0.64
136543207,0.24,-0.15,-0.64
136545262,0.24,-0.15,-0.64
136547248,0.23,-0.14,-0.59
136549245,0.23,-0.14,-0.59
136551269,0.23,-0.14,-0.59
136553281,0.23,-0.14,-0.59
136555275,0.23,-0.14,-0.59
136557248,0.21,-0.16,-0.55
136559248,0.21,-0.16,-0.55
136561281,0.21,-0.16,-0.55
136563275,0.21,-0.16,-0.55
136565325,0.21,-0.16,-0.55
136567212,0.16,-0.22,-0.61
136569210,0.16,-0.22,-0.61
136571205,0.16,-0.22,-0.61
136573205,0.16,-0.22,-0.61
136575203,0.16,-0.22,-0.61
136577215,0.13,-0.23,-0.74
136579223,0.13,-0.23,-0.74
136581279,0.13,-0.23,-0.74
136583226,0.13,-0.23,-0.74
136585255,0.13,-0.23,-0.74
136587262,0.13,-0.23,-0.74
136589274,0.09,-0.23,-0.80
136591353,0.09,-0.23,-0.80
136593246,0.09,-0.23,-0.80
136595248,0.09,-0.23,-0.80
136597255,0.09,-0.23,-0.80
136599278,0.06,-0.26,-0.77
136601252,0.06,-0.26,-0.77
136603210,0.06,-0.26,-0.77
136605206,0.06,-0.26,-0.77
136607204,0.06,-0.26,-0.77
136609205,0.05,-0.25,-0.71
136611203,0.05,-0.25,-0.71
136613287,0.05,-0.25,-0.71
136615356,0.05,-0.25,-0.71
136617211,0.05,-0.25,-0.71
136619205,0.05,-0.29,-0.71
136621275,0.05,-0.29,-0.71
136623219,0.05,-0.29,-0.71
136625265,0.05,-0.29,-0.71
136627252,0.05,-0.29,-0.71
136629246,0.06,-0.25,-0.73
136631251,0.06,-0.25,-0.73
136633252,0.06,-0.25,-0.73
136635319,0.06,-0.25,-0.73
136637258,0.06,-0.25,-0.73
136639247,0.07,-0.26,-0.73
136641319,0.07,-0.26,-0.73
136643221,0.07,-0.26,-0.73
136645280,0.07,-0.26,-0.73
136647221,0.07,-0.26,-0.73
136649205,0.08,-0.32,-0.69
136651222,0.08,-0.32,-0.69
136653255,0.08,-0.32,-0.69
136655245,0.08,-0.32,-0.69
136657205,0.08,-0.32,-0.69
136659214,0.05,-0.34,-0.69
136661225,0.05,-0.34,-0.69
136663207,0.05,-0.34,-0.69
136665366,0.05,-0.34,-0.69
136667253,0.05,-0.34,-0.69
136669244,0.05,-0.34,-0.69
136671245,0.06,-0.32,-0.76
136673252,0.06,-0.32,-0.76
136675334,0.06,-0.32,-0.76
136677265,0.06,-0.32,-0.76
136679249,0.06,-0.32,-0.76
136681239,0.07,-0.22,-0.76
136683206,0.07,-0.22,-0.76
136685204,0.07,-0.22,-0.76
136687204,0.07,-0.22,-0.76
136689203,0.07,-0.22,-0.76
136691308,0.12,-0.09,-0.71
136693203,0.12,-0.09,-0.71
136695204,0.12,-0.09,-0.71
136697204,0.12,-0.09,-0.71
136699208,0.12,-0.09,-0.71
136701206,0.16,-0.08,-0.69
136703206,0.16,-0.08,-0.69
136705254,0.16,-0.08,-0.69
136707251,0.16,-0.08,-0.69
136709246,0.16,-0.08,-0.69
136711246,0.16,-0.07,-0.70
136713250,0.16,-0.07,-0.70
136715328,0.16,-0.07,-0.70
136717241,0.16,-0.07,-0.70
136719247,0.16,-0.07,-0.70
136721205,0.10,-0.05,-0.82
136723204,0.10,-0.05,-0.82
136725208,0.10,-0.05,-0.82
136727205,0.10,-0.05,-0.82
136729205,0.10,-0.05,-0.82
136731204,0.01,-0.04,-1.23
136733204,0.01,-0.04,-1.23
136735202,0.01,-0.04,-1.23
136737206,0.01,-0.04,-1.23
136739202,0.01,-0.04,-1.23
136741275,-0.05,-0.11,-1.77
136743204,-0.05,-0.11,-1.77
136745255,-0.05,-0.11,-1.77
136747244,-0.05,-0.11,-1.77
136749245,-0.05,-0.11,-1.77
136751248,-0.07,-0.28,-1.91
136753251,-0.07,-0.28,-1.91
136755262,-0.07,-0.28,-1.91
136757205,-0.07,-0.28,-1.91
136759207,-0.07,-0.28,-1.91
136761226,-0.07,-0.28,-1.91
136763291,-0.08,-0.28,-1.73
136765339,-0.08,-0.28,-1.73
136767216,-0.08,-0.28,-1.73
136769204,-0.08,-0.28,-1.73
136771208,-0.08,-0.28,-1.73
136773205,-0.10,-0.29,-1.81
136775281,-0.10,-0.29,-1.81
136777202,-0.10,-0.29,-1.81
136779202,-0.10,-0.29,-1.81
136781202,-0.10,-0.29,-1.81
136783255,-0.07,-0.11,-2.00
136785270,-0.07,-0.11,-2.00
136787252,-0.07,-0.11,-2.00
136789245,-0.07,-0.11,-2.00
136791351,-0.07,-0.11,-2.00
136793251,-0.04,0.00,-1.88
136795246,-0.04,0.00,-1.88
136797244,-0.04,0.00,-1.88
136799213,-0.04,0.00,-1.88
136801207,-0.04,0.00,-1.88
136803214,0.00,0.12,-1.54
136805290,0.00,0.12,-1.54
136807229,0.00,0.12,-1.54
136809195,0.00,0.12,-1.54
136811225,0.00,0.12,-1.54
136813202,0.06,0.25,-1.31
136815297,0.06,0.25,-1.31
136817210,0.06,0.25,-1.31
136819206,0.06,0.25,-1.31
136821203,0.06,0.25,-1.31
136823201,0.12,0.27,-1.24
136825258,0.12,0.27,-1.24
136827256,0.12,0.27,-1.24
136829252,0.12,0.27,-1.24
136831251,0.12,0.27,-1.24
136833254,0.14,0.31,-1.06
136835244,0.14,0.31,-1.06
136837207,0.14,0.31,-1.06
136839224,0.14,0.31,-1.06
136841290,0.14,0.31,-1.06
136843202,0.14,0.31,-1.06
136845204,0.16,0.25,-0.88
136847202,0.16,0.25,-0.88
136849207,0.16,0.25,-0.88
136851203,0.16,0.25,-0.88
136853323,0.16,0.25,-0.88
136855253,0.13,0.11,-0.80
136857207,0.13,0.11,-0.80
136859209,0.13,0.11,-0.80
136861227,0.13,0.11,-0.80
136863203,0.13,0.11,-0.80
136865358,0.10,-0.03,-0.84
136867252,0.10,-0.03,-0.84
136869248,0.10,-0.03,-0.84
136871244,0.10,-0.03,-0.84
136873247,0.10,-0.03,-0.84
136875250,0.09,-0.09,-0.86
136877205,0.09,-0.09,-0.86
136879206,0.09,-0.09,-0.86
136881205,0.09,-0.09,-0.86
136883204,0.09,-0.09,-0.86
136885207,0.07,-0.15,-0.81
136887206,0.07,-0.15,-0.81
136889205,0.07,-0.15,-0.81
136891287,0.07,-0.15,-0.81
136893205,0.07,-0.15,-0.81
136895205,0.06,-0.15,-0.74
136897205,0.06,-0.15,-0.74
136899203,0.06,-0.15,-0.74
136901207,0.06,-0.15,-0.74
136903204,0.06,-0.15,-0.74
136905256,0.06,-0.15,-0.75
136907249,0.06,-0.15,-0.75
136909247,0.06,-0.15,-0.75
136911247,0.06,-0.15,-0.75
136913250,0.06,-0.15,-0.75
136915326,0.07,-0.17,-0.81
136917207,0.07,-0.17,-0.81
136919207,0.07,-0.17,-0.81
136921241,0.07,-0.17,-0.81
136923252,0.07,-0.17,-0.81
136925205,0.07,-0.17,-0.81
136927202,0.07,-0.14,-0.78
136929204,0.07,-0.14,-0.78
136931203,0.07,-0.14,-0.78
136933204,0.07,-0.14,-0.78
136935209,0.07,-0.14,-0.78
136937205,0.07,-0.11,-0.69
136939205,0.07,-0.11,-0.69
136941281,0.07,-0.11,-0.69
136943204,0.07,-0.11,-0.69
136945253,0.07,-0.11,-0.69
136947247,0.09,-0.08,-0.66
136949244,0.09,-0.08,-0.66
136951251,0.09,-0.08,-0.66
136953265,0.09,-0.08,-0.66
136955273,0.09,-0.08,-0.66
136957252,0.09,-0.05,-0.69
136959209,0.09,-0.05,-0.69
136961222,0.09,-0.05,-0.69
136963204,0.09,-0.05,-0.69
136965297,0.09,-0.05,-0.69
136967216,0.08,-0.05,-0.70
136969203,0.08,-0.05,-0.70
136971224,0.08,-0.05,-0.70
136973209,0.08,-0.05,-0.70
136975204,0.08,-0.05,-0.70
136977204,0.07,-0.04,-0.70
136979206,0.07,-0.04,-0.70
136981205,0.07,-0.04,-0.70
136983203,0.07,-0.04,-0.70
136985252,0.07,-0.04,-0.70
136987245,0.05,-0.03,-0.67
136989246,0.05,-0.03,-0.67
136991323,0.05,-0.03,-0.67
136993247,0.05,-0.03,-0.67
136995244,0.05,-0.03,-0.67
136997204,0.05,-0.02,-0.70
136999202,0.05,-0.02,-0.70
137001203,0.05,-0.02,-0.70
137003202,0.05,-0.02,-0.70
137005205,0.05,-0.02,-0.70
137007207,0.04,0.02,-0.76
137009203,0.04,0.02,-0.76
137011203,0.04,0.02,-0.76
137013207,0.04,0.02,-0.76
137015280,0.04,0.02,-0.76
137017213,0.04,0.02,-0.76
137019203,0.04,0.02,-0.79
137021204,0.04,0.02,-0.79
137023204,0.04,0.02,-0.79
137025249,0.04,0.02,-0.79
137027248,0.04,0.02,-0.79
137029288,0.03,0.00,-0.77
137031256,0.03,0.00,-0.77
137033182,0.03,0.00,-0.77
137035181,0.03,0.00,-0.77
137037207,0.03,0.00,-0.77
137039180,0.04,-0.01,-0.76
137041283,0.04,-0.01,-0.76
137043180,0.04,-0.01,-0.76
137045181,0.04,-0.01,-0.76
137047182,0.04,-0.01,-0.76
137049186,0.05,-0.06,-0.79
137051180,0.05,-0.06,-0.79
137053182,0.05,-0.06,-0.79
137055243,0.05,-0.06,-0.79
137057182,0.05,-0.06,-0.79
137059181,0.05,-0.07,-0.91
137061219,0.05,-0.07,-0.91
137063180,0.05,-0.07,-0.91
137065187,0.05,-0.07,-0.91
137067281,0.05,-0.07,-0.91
137069293,0.06,-0.06,-1.07
137071264,0.06,-0.06,-1.07
137073250,0.06,-0.06,-1.07
137077251,0.06,-0.06,-1.07
137079245,0.05,-0.08,-1.17
137081245,0.05,-0.08,-1.17
137083247,0.05,-0.08,-1.17
137085248,0.05,-0.08,-1.17
137087246,0.05,-0.08,-1.17
137089230,0.06,-0.10,-1.20
137091313,0.06,-0.10,-1.20
137093205,0.06,-0.10,-1.20
137095205,0.06,-0.10,-1.20
137097203,0.06,-0.10,-1.20
137099204,0.06,-0.10,-1.20
137101202,0.08,-0.06,-1.25
137103214,0.08,-0.06,-1.25
137105206,0.08,-0.06,-1.25
137107207,0.08,-0.06,-1.25
137109204,0.08,-0.06,-1.25
137111208,0.12,-0.01,-1.30
137113210,0.12,-0.01,-1.30
137115265,0.12,-0.01,-1.30
137117255,0.12,-0.01,-1.30
137119248,0.12,-0.01,-1.30
137121244,0.16,0.00,-1.25
137123244,0.16,0.00,-1.25
137125256,0.16,0.00,-1.25
137127252,0.16,0.00,-1.25
137129249,0.16,0.00,-1.25
137131211,0.19,-0.06,-1.17
137133205,0.19,-0.06,-1.17
137135202,0.19,-0.06,-1.17
137137206,0.19,-0.06,-1.17
137139202,0.19,-0.06,-1.17
137141305,0.18,-0.04,-1.19
137143202,0.18,-0.04,-1.19
137145208,0.18,-0.04,-1.19
137147212,0.18,-0.04,-1.19
137149207,0.18,-0.04,-1.19
137151202,0.16,0.02,-1.34
137153204,0.16,0.02,-1.34
137155242,0.16,0.02,-1.34
137157263,0.16,0.02,-1.34
137159256,0.16,0.02,-1.34
137161256,0.14,0.05,-1.49
137163247,0.14,0.05,-1.49
137165338,0.14,0.05,-1.49
137167256,0.14,0.05,-1.49
137169245,0.14,0.05,-1.49
137171205,0.14,0.03,-1.46
137173204,0.14,0.03,-1.46
137175203,0.14,0.03,-1.46
137177203,0.14,0.03,-1.46
137179202,0.14,0.03,-1.46
137181203,0.14,-0.11,-1.26
137183206,0.14,-0.11,-1.26
137185207,0.14,-0.11,-1.26
137187215,0.14,-0.11,-1.26
137189327,0.14,-0.11,-1.26
137191332,0.14,-0.11,-1.26
137193204,0.15,-0.21,-1.11
137195205,0.15,-0.21,-1.11
137197253,0.15,-0.21,-1.11
137199253,0.15,-0.21,-1.11
137201277,0.15,-0.21,-1.11
137203256,0.15,-0.25,-1.05
137205244,0.15,-0.25,-1.05
137207247,0.15,-0.25,-1.05
137209247,0.15,-0.25,-1.05
137211247,0.15,-0.25,-1.05
137213205,0.18,-0.30,-1.03
137215301,0.18,-0.30,-1.03
137217213,0.18,-0.30,-1.03
137219204,0.18,-0.30,-1.03
137221204,0.18,-0.30,-1.03
137223203,0.20,-0.34,-0.96
137225204,0.20,-0.34,-0.96
137227207,0.20,-0.34,-0.96
137229202,0.20,-0.34,-0.96
137231205,0.20,-0.34,-0.96
137233211,0.23,-0.32,-0.82
137235261,0.23,-0.32,-0.82
137237268,0.23,-0.32,-0.82
137239260,0.23,-0.32,-0.82
137241344,0.23,-0.32,-0.82
137243247,0.25,-0.31,-0.73
137245245,0.25,-0.31,-0.73
137247250,0.25,-0.31,-0.73
137249246,0.25,-0.31,-0.73
137251247,0.25,-0.31,-0.73
137253214,0.25,-0.30,-0.70
137255244,0.25,-0.30,-0.70
137257195,0.25,-0.30,-0.70
137259205,0.25,-0.30,-0.70
137261220,0.25,-0.30,-0.70
137263203,0.25,-0.32,-0.72
137265285,0.25,-0.32,-0.72
137267223,0.25,-0.32,-0.72
137269323,0.25,-0.32,-0.72
137271231,0.25,-0.32,-0.72
137273206,0.25,-0.32,-0.72
137275202,0.24,-0.32,-0.74
137277203,0.24,-0.32,-0.74
137279258,0.24,-0.32,-0.74
137281247,0.24,-0.32,-0.74
137283250,0.24,-0.32,-0.74
137285274,0.23,-0.33,-0.75
137287257,0.23,-0.33,-0.75
137289245,0.23,-0.33,-0.75
137291346,0.23,-0.33,-0.75
137293266,0.23,-0.33,-0.75
137295278,0.22,-0.36,-0.78
137297227,0.22,-0.36,-0.78
137299209,0.22,-0.36,-0.78
137301202,0.22,-0.36,-0.78
137303254,0.22,-0.36,-0.78
137305238,0.21,-0.36,-0.85
137307203,0.21,-0.36,-0.85
137309203,0.21,-0.36,-0.85
137311202,0.21,-0.36,-0.85
137313195,0.21,-0.36,-0.85
137315298,0.20,-0.38,-0.93
137317217,0.20,-0.38,-0.93
137319271,0.20,-0.38,-0.93
137321249,0.20,-0.38,-0.93
137323245,0.20,-0.38,-0.93
137325245,0.19,-0.40,-0.97
137327244,0.19,-0.40,-0.97
137329250,0.19,-0.40,-0.97
137331254,0.19,-0.40,-0.97
137333248,0.19,-0.40,-0.97
137335204,0.19,-0.40,-0.96
137337201,0.19,-0.40,-0.96
137339203,0.19,-0.40,-0.96
137341303,0.19,-0.40,-0.96
137343204,0.19,-0.40,-0.96
137345207,0.19,-0.38,-0.96
137347202,0.19,-0.38,-0.96
137349201,0.19,-0.38,-0.96
137351206,0.19,-0.38,-0.96
137353204,0.19,-0.38,-0.96
137355245,0.20,-0.33,-0.95
137357205,0.20,-0.33,-0.95
137359259,0.20,-0.33,-0.95
137361255,0.20,-0.33,-0.95
137363248,0.20,-0.33,-0.95
137365351,0.20,-0.33,-0.95
137367286,0.21,-0.29,-0.93
137369273,0.21,-0.29,-0.93
137371396,0.21,-0.29,-0.93
137373266,0.21,-0.29,-0.93
137375246,0.21,-0.29,-0.93
137377219,0.22,-0.20,-0.89
137379209,0.22,-0.20,-0.89
137381233,0.22,-0.20,-0.89
137383280,0.22,-0.20,-0.89
137385230,0.22,-0.20,-0.89
137387211,0.23,-0.17,-0.80
137389208,0.23,-0.17,-0.80
137391315,0.23,-0.17,-0.80
137393213,0.23,-0.17,-0.80
137395207,0.23,-0.17,-0.80
137397206,0.22,-0.18,-0.73
137399252,0.22,-0.18,-0.73
137401249,0.22,-0.18,-0.73
137403247,0.22,-0.18,-0.73
137405250,0.22,-0.18,-0.73
137407251,0.22,-0.13,-0.70
137409251,0.22,-0.13,-0.70
137411215,0.22,-0.13,-0.70
137413216,0.22,-0.13,-0.70
137415288,0.22,-0.13,-0.70
137417273,0.20,-0.15,-0.73
137419254,0.20,-0.15,-0.73
137421211,0.20,-0.15,-0.73
137423210,0.20,-0.15,-0.73
137425211,0.20,-0.15,-0.73
137427206,0.19,-0.14,-0.71
137429212,0.19,-0.14,-0.71
137431215,0.19,-0.14,-0.71
137433258,0.19,-0.14,-0.71
137435247,0.19,-0.14,-0.71
137437215,0.17,-0.13,-0.65
137439261,0.17,-0.13,-0.65
137441349,0.17,-0.13,-0.65
137443255,0.17,-0.13,-0.65
137445252,0.17,-0.13,-0.65
137447356,0.15,-0.14,-0.64
137449265,0.15,-0.14,-0.64
137451250,0.15,-0.14,-0.64
137453250,0.15,-0.14,-0.64
137455261,0.15,-0.14,-0.64
137457249,0.15,-0.14,-0.64
137459274,0.14,-0.14,-0.68
137461235,0.14,-0.14,-0.68
137463207,0.14,-0.14,-0.68
137465301,0.14,-0.14,-0.68
137467227,0.14,-0.14,-0.68
137469258,0.14,-0.15,-0.74
137471205,0.14,-0.15,-0.74
137473204,0.14,-0.15,-0.74
137475208,0.14,-0.15,-0.74
137477204,0.14,-0.15,-0.74
137479266,0.13,-0.15,-0.77
137481253,0.13,-0.15,-0.77
137483252,0.13,-0.15,-0.77
137485255,0.13,-0.15,-0.77
137487275,0.13,-0.15,-0.77
137489259,0.12,-0.20,-0.81
137491349,0.12,-0.20,-0.81
137493251,0.12,-0.20,-0.81
137495248,0.12,-0.20,-0.81
137497230,0.12,-0.20,-0.81
137499314,0.12,-0.22,-0.86
137501234,0.12,-0.22,-0.86
137503215,0.12,-0.22,-0.86
137505207,0.12,-0.22,-0.86
137507259,0.12,-0.22,-0.86
137509234,0.12,-0.26,-0.92
137511211,0.12,-0.26,-0.92
137513214,0.12,-0.26,-0.92
137515304,0.12,-0.26,-0.92
137517220,0.12,-0.26,-0.92
137519264,0.11,-0.31,-0.92
137521252,0.11,-0.31,-0.92
137523257,0.11,-0.31,-0.92
137525266,0.11,-0.31,-0.92
137527277,0.11,-0.31,-0.92
137529263,0.10,-0.31,-0.88
137531250,0.10,-0.31,-0.88
137533250,0.10,-0.31,-0.88
137535251,0.10,-0.31,-0.88
137537254,0.10,-0.31,-0.88
137539211,0.10,-0.31,-0.88
137541309,0.12,-0.26,-0.88
137543232,0.12,-0.26,-0.88
137545280,0.12,-0.26,-0.88
137547227,0.12,-0.26,-0.88
137549207,0.12,-0.26,-0.88
137551205,0.15,-0.23,-0.84
137553213,0.15,-0.23,-0.84
137555248,0.15,-0.23,-0.84
137557213,0.15,-0.23,-0.84
137559260,0.15,-0.23,-0.84
137561254,0.19,-0.25,-0.78
137563251,0.19,-0.25,-0.78
137565358,0.19,-0.25,-0.78
137567258,0.19,-0.25,-0.78
137569256,0.19,-0.25,-0.78
137571345,0.18,-0.30,-0.75
137573267,0.18,-0.30,-0.75
137575273,0.18,-0.30,-0.75
137577232,0.18,-0.30,-0.75
137579205,0.18,-0.30,-0.75
137581203,0.14,-0.41,-0.80
137583205,0.14,-0.41,-0.80
137585206,0.14,-0.41,-0.80
137587263,0.14,-0.41,-0.80
137589258,0.14,-0.41,-0.80
137591314,0.11,-0.42,-0.94
137593204,0.11,-0.42,-0.94
137595205,0.11,-0.42,-0.94
137597256,0.11,-0.42,-0.94
137599266,0.11,-0.42,-0.94
137601253,0.05,-0.39,-1.12
137603246,0.05,-0.39,-1.12
137605245,0.05,-0.39,-1.12
137607247,0.05,-0.39,-1.12
137609246,0.05,-0.39,-1.12
137611251,0.03,-0.39,-1.36
137613265,0.03,-0.39,-1.36
137615326,0.03,-0.39,-1.36
137617213,0.03,-0.39,-1.36
137619202,0.03,-0.39,-1.36
137621194,0.03,-0.39,-1.36
137623257,0.02,-0.42,-1.48
137625245,0.02,-0.42,-1.48
137627208,0.02,-0.42,-1.48
137629195,0.02,-0.42,-1.48
137631204,0.02,-0.42,-1.48
137633194,0.01,-0.45,-1.51
137635194,0.01,-0.45,-1.51
137637195,0.01,-0.45,-1.51
137639277,0.01,-0.45,-1.51
137641371,0.01,-0.45,-1.51
137643246,0.02,-0.46,-1.58
137645250,0.02,-0.46,-1.58
137647244,0.02,-0.46,-1.58
137649317,0.02,-0.46,-1.58
137651266,0.02,-0.46,-1.58
137653249,0.07,-0.41,-1.59
137655273,0.07,-0.41,-1.59
137657245,0.07,-0.41,-1.59
137659207,0.07,-0.41,-1.59
137661225,0.07,-0.41,-1.59
137663211,0.13,-0.29,-1.41
137665303,0.13,-0.29,-1.41
137667223,0.13,-0.29,-1.41
137669205,0.13,-0.29,-1.41
137671205,0.13,-0.29,-1.41
137673206,0.18,-0.18,-1.24
137675351,0.18,-0.18,-1.24
137677230,0.18,-0.18,-1.24
137679259,0.18,-0.18,-1.24
137681248,0.18,-0.18,-1.24
137683247,0.23,-0.07,-1.16
137685250,0.23,-0.07,-1.16
137687244,0.23,-0.07,-1.16
137689246,0.23,-0.07,-1.16
137691312,0.23,-0.07,-1.16
137693208,0.27,0.00,-1.09
137695203,0.27,0.00,-1.09
137697208,0.27,0.00,-1.09
137699203,0.27,0.00,-1.09
137701206,0.27,0.00,-1.09
137703205,0.27,0.00,-1.09
137705217,0.29,0.05,-0.97
137707289,0.29,0.05,-0.97
137709230,0.29,0.05,-0.97
137711202,0.29,0.05,-0.97
137713195,0.29,0.05,-0.97
137715295,0.30,0.02,-0.89
137717216,0.30,0.02,-0.89
137719284,0.30,0.02,-0.89
137721277,0.30,0.02,-0.89
137723250,0.30,0.02,-0.89
137725247,0.27,-0.02,-0.84
137727251,0.27,-0.02,-0.84
137729264,0.27,-0.02,-0.84
137731288,0.27,-0.02,-0.84
137733265,0.27,-0.02,-0.84
137735245,0.25,-0.11,-0.83
137737207,0.25,-0.11,-0.83
137739204,0.25,-0.11,-0.83
137741334,0.25,-0.11,-0.83
137743280,0.25,-0.11,-0.83
137745246,0.21,-0.20,-0.84
137747212,0.21,-0.20,-0.84
137749203,0.21,-0.20,-0.84
137751209,0.21,-0.20,-0.84
137753259,0.21,-0.20,-0.84
137755244,0.19,-0.23,-0.83
137757223,0.19,-0.23,-0.83
137759271,0.19,-0.23,-0.83
137761254,0.19,-0.23,-0.83
137763246,0.19,-0.23,-0.83
137765355,0.18,-0.27,-0.77
137767250,0.18,-0.27,-0.77
137769246,0.18,-0.27,-0.77
137771246,0.18,-0.27,-0.77
137773203,0.18,-0.27,-0.77
137775282,0.17,-0.30,-0.70
137777206,0.17,-0.30,-0.70
137779205,0.17,-0.30,-0.70
137781203,0.17,-0.30,-0.70
137783251,0.17,-0.30,-0.70
137785282,0.17,-0.28,-0.66
137787230,0.17,-0.28,-0.66
137789202,0.17,-0.28,-0.66
137791313,0.17,-0.28,-0.66
137793203,0.17,-0.28,-0.66
137795202,0.17,-0.28,-0.66
137797202,0.17,-0.26,-0.70
137799257,0.17,-0.26,-0.70
137801247,0.17,-0.26,-0.70
137803246,0.17,-0.26,-0.70
137805246,0.17,-0.26,-0.70
137807244,0.17,-0.25,-0.70
137809250,0.17,-0.25,-0.70
137811227,0.17,-0.25,-0.70
137813204,0.17,-0.25,-0.70
137815279,0.17,-0.25,-0.70
137817270,0.18,-0.23,-0.67
137819252,0.18,-0.23,-0.67
137821207,0.18,-0.23,-0.67
137823226,0.18,-0.23,-0.67
137825210,0.18,-0.23,-0.67
137827204,0.18,-0.22,-0.62
137829205,0.18,-0.22,-0.62
137831204,0.18,-0.22,-0.62
137833207,0.18,-0.22,-0.62
137835204,0.18,-0.22,-0.62
137837202,0.18,-0.23,-0.60
137839287,0.18,-0.23,-0.60
137841442,0.18,-0.23,-0.60
137843269,0.18,-0.23,-0.60
137845275,0.18,-0.23,-0.60
137847248,0.18,-0.25,-0.61
137849254,0.18,-0.25,-0.61
137851272,0.18,-0.25,-0.61
137853260,0.18,-0.25,-0.61
137855265,0.18,-0.25,-0.61
137857248,0.18,-0.25,-0.62
137859269,0.18,-0.25,-0.62
137861251,0.18,-0.25,-0.62
137863205,0.18,-0.25,-0.62
137865302,0.18,-0.25,-0.62
137867244,0.17,-0.25,-0.64
137869259,0.17,-0.25,-0.64
137871203,0.17,-0.25,-0.64
137873202,0.17,-0.25,-0.64
137875202,0.17,-0.25,-0.64
137877205,0.17,-0.25,-0.64
137879274,0.16,-0.21,-0.69
137881247,0.16,-0.21,-0.69
137883247,0.16,-0.21,-0.69
137885250,0.16,-0.21,-0.69
137887244,0.16,-0.21,-0.69
137889245,0.16,-0.18,-0.71
137891385,0.16,-0.18,-0.71
137893253,0.16,-0.18,-0.71
137895226,0.16,-0.18,-0.71
137897205,0.16,-0.18,-0.71
137899205,0.16,-0.16,-0.71
137901212,0.16,-0.16,-0.71
137903259,0.16,-0.16,-0.71
137905205,0.16,-0.16,-0.71
137907201,0.16,-0.16,-0.71
137909265,0.17,-0.16,-0.70
137911224,0.17,-0.16,-0.70
137913205,0.17,-0.16,-0.70
137915294,0.17,-0.16,-0.70
137917213,0.17,-0.16,-0.70
137919274,0.20,-0.19,-0.69
137921250,0.20,-0.19,-0.69
137923250,0.20,-0.19,-0.69
137925251,0.20,-0.19,-0.69
137927247,0.20,-0.19,-0.69
137929244,0.21,-0.23,-0.70
137931248,0.21,-0.23,-0.70
137933207,0.21,-0.23,-0.70
137935204,0.21,-0.23,-0.70
137937204,0.21,-0.23,-0.70
137939207,0.21,-0.31,-0.76
137941303,0.21,-0.31,-0.76
137943203,0.21,-0.31,-0.76
137945237,0.21,-0.31,-0.76
137947251,0.21,-0.31,-0.76
137949240,0.20,-0.37,-0.91
137951307,0.20,-0.37,-0.91
137953231,0.20,-0.37,-0.91
137955251,0.20,-0.37,-0.91
137957226,0.20,-0.37,-0.91
137959260,0.19,-0.38,-1.10
137961272,0.19,-0.38,-1.10
137963268,0.19,-0.38,-1.10
137965358,0.19,-0.38,-1.10
137967253,0.19,-0.38,-1.10
137969259,0.19,-0.38,-1.10
137971272,0.18,-0.38,-1.24
137973266,0.18,-0.38,-1.24
137975246,0.18,-0.38,-1.24
137977206,0.18,-0.38,-1.24
137979259,0.18,-0.38,-1.24
137981257,0.17,-0.35,-1.27
137983206,0.17,-0.35,-1.27
137985192,0.17,-0.35,-1.27
137987205,0.17,-0.35,-1.27
137989204,0.17,-0.35,-1.27
137991310,0.18,-0.26,-1.21
137993208,0.18,-0.26,-1.21
137995205,0.18,-0.26,-1.21
137997205,0.18,-0.26,-1.21
137999255,0.18,-0.26,-1.21
138001247,0.20,-0.21,-1.20
138003246,0.20,-0.21,-1.20
138005253,0.20,-0.21,-1.20
138007336,0.20,-0.21,-1.20
138009269,0.20,-0.21,-1.20
138011250,0.22,-0.18,-1.21
138013248,0.22,-0.18,-1.21
138015300,0.22,-0.18,-1.21
138017218,0.22,-0.18,-1.21
138019213,0.22,-0.18,-1.21
138021205,0.23,-0.19,-1.18
138023203,0.23,-0.19,-1.18
138025216,0.23,-0.19,-1.18
138027280,0.23,-0.19,-1.18
138029220,0.23,-0.19,-1.18
138031203,0.22,-0.16,-1.15
138033201,0.22,-0.16,-1.15
138035204,0.22,-0.16,-1.15
138037220,0.22,-0.16,-1.15
138039261,0.22,-0.16,-1.15
138041345,0.19,-0.11,-1.26
138043275,0.19,-0.11,-1.26
138045317,0.19,-0.11,-1.26
138047269,0.19,-0.11,-1.26
138049268,0.19,-0.11,-1.26
138051252,0.19,-0.11,-1.26
138053249,0.15,-0.12,-1.48
138055266,0.15,-0.12,-1.48
138057247,0.15,-0.12,-1.48
138059262,0.15,-0.12,-1.48
138061224,0.15,-0.12,-1.48
138063203,0.12,-0.19,-1.54
138065298,0.12,-0.19,-1.54
138067210,0.12,-0.19,-1.54
138069210,0.12,-0.19,-1.54
138071204,0.12,-0.19,-1.54
138073210,0.11,-0.25,-1.35
138075205,0.11,-0.25,-1.35
138077267,0.11,-0.25,-1.35
138079288,0.11,-0.25,-1.35
138081260,0.11,-0.25,-1.35
138083249,0.11,-0.30,-1.17
138085253,0.11,-0.30,-1.17
138087312,0.11,-0.30,-1.17
138089266,0.11,-0.30,-1.17
138091361,0.11,-0.30,-1.17
138093254,0.13,-0.29,-1.09
138095266,0.13,-0.29,-1.09
138097277,0.13,-0.29,-1.09
138099224,0.13,-0.29,-1.09
138101202,0.13,-0.29,-1.09
138103202,0.15,-0.31,-1.02
138105202,0.15,-0.31,-1.02
138107205,0.15,-0.31,-1.02
138109205,0.15,-0.31,-1.02
138111195,0.15,-0.31,-1.02
138113202,0.18,-0.33,-0.87
138115195,0.18,-0.33,-0.87
138117212,0.18,-0.33,-0.87
138119259,0.18,-0.33,-0.87
138121250,0.18,-0.33,-0.87
138123249,0.20,-0.36,-0.74
138125245,0.20,-0.36,-0.74
138127245,0.20,-0.36,-0.74
138129244,0.20,-0.36,-0.74
138131205,0.20,-0.36,-0.74
138133203,0.22,-0.36,-0.72
138135215,0.22,-0.36,-0.72
138137286,0.22,-0.36,-0.72
138139225,0.22,-0.36,-0.72
138141311,0.22,-0.36,-0.72
138143204,0.22,-0.36,-0.72
138145195,0.23,-0.35,-0.75
138147206,0.23,-0.35,-0.75
138149202,0.23,-0.35,-0.75
138151252,0.23,-0.35,-0.75
138153231,0.23,-0.35,-0.75
138155255,0.25,-0.36,-0.74
138157247,0.25,-0.36,-0.74
138159271,0.25,-0.36,-0.74
138161259,0.25,-0.36,-0.74
138163245,0.25,-0.36,-0.74
138165354,0.25,-0.39,-0.70
138167298,0.25,-0.39,-0.70
138169276,0.25,-0.39,-0.70
138171248,0.25,-0.39,-0.70
138173250,0.25,-0.39,-0.70
138175246,0.26,-0.38,-0.65
138177215,0.26,-0.38,-0.65
138179280,0.26,-0.38,-0.65
138181218,0.26,-0.38,-0.65
138183207,0.26,-0.38,-0.65
138185204,0.25,-0.40,-0.68
138187212,0.25,-0.40,-0.68
138189255,0.25,-0.40,-0.68
138191309,0.25,-0.40,-0.68
138193204,0.25,-0.40,-0.68
138195194,0.26,-0.40,-0.75
138197204,0.26,-0.40,-0.75
138199269,0.26,-0.40,-0.75
138201247,0.26,-0.40,-0.75
138203245,0.26,-0.40,-0.75
138205249,0.26,-0.39,-0.76
138207250,0.26,-0.39,-0.76
138209246,0.26,-0.39,-0.76
138211273,0.26,-0.39,-0.76
138213319,0.26,-0.39,-0.76
138215335,0.26,-0.43,-0.74
138217215,0.26,-0.43,-0.74
138219195,0.26,-0.43,-0.74
138221203,0.26,-0.43,-0.74
138223202,0.26,-0.43,-0.74
138225206,0.26,-0.43,-0.74
138227202,0.26,-0.43,-0.74
138229202,0.26,-0.43,-0.74
138231191,0.26,-0.43,-0.74
138233203,0.26,-0.43,-0.74
138235202,0.26,-0.43,-0.74
138237194,0.26,-0.41,-0.80
138239256,0.26,-0.41,-0.80
138241321,0.26,-0.41,-0.80
138243250,0.26,-0.41,-0.80
138245247,0.26,-0.41,-0.80
138247245,0.28,-0.43,-0.83
138249246,0.28,-0.43,-0.83
138251206,0.28,-0.43,-0.83
138253244,0.28,-0.43,-0.83
138255249,0.28,-0.43,-0.83
138257248,0.29,-0.37,-0.77
138259211,0.29,-0.37,-0.77
138261221,0.29,-0.37,-0.77
138263203,0.29,-0.37,-0.77
138265295,0.29,-0.37,-0.77
138267220,0.32,-0.32,-0.67
138269292,0.32,-0.32,-0.67
138271229,0.32,-0.32,-0.67
138273202,0.32,-0.32,-0.67
138275206,0.32,-0.32,-0.67
138277204,0.34,-0.27,-0.65
138279258,0.34,-0.27,-0.65
138281272,0.34,-0.27,-0.65
138283257,0.34,-0.27,-0.65
138285250,0.34,-0.27,-0.65
138287249,0.36,-0.24,-0.68
138289247,0.36,-0.24,-0.68
138291351,0.36,-0.24,-0.68
138293244,0.36,-0.24,-0.68
138295215,0.36,-0.24,-0.68
138297210,0.35,-0.21,-0.65
138299205,0.35,-0.21,-0.65
138301219,0.35,-0.21,-0.65
138303288,0.35,-0.21,-0.65
138305229,0.35,-0.21,-0.65
138307205,0.35,-0.24,-0.61
138309204,0.35,-0.24,-0.61
138311206,0.35,-0.24,-0.61
138313203,0.35,-0.24,-0.61
138315299,0.35,-0.24,-0.61
138317211,0.35,-0.24,-0.61
138319259,0.34,-0.26,-0.59
138321245,0.34,-0.26,-0.59
138323245,0.34,-0.26,-0.59
138325244,0.34,-0.26,-0.59
138327276,0.34,-0.26,-0.59
138329272,0.32,-0.29,-0.63
138331250,0.32,-0.29,-0.63
138333250,0.32,-0.29,-0.63
138335211,0.32,-0.29,-0.63
138337227,0.32,-0.29,-0.63
138339208,0.30,-0.31,-0.71
138341317,0.30,-0.31,-0.71
138343205,0.30,-0.31,-0.71
138345206,0.30,-0.31,-0.71
138347218,0.30,-0.31,-0.71
138349208,0.29,-0.32,-0.77
138351205,0.29,-0.32,-0.77
138353206,0.29,-0.32,-0.77
138355234,0.29,-0.32,-0.77
138357262,0.29,-0.32,-0.77
138359258,0.28,-0.36,-0.79
138361255,0.28,-0.36,-0.79
138363245,0.28,-0.36,-0.79
138365340,0.28,-0.36,-0.79
138367254,0.28,-0.36,-0.79
138369249,0.29,-0.39,-0.84
138371233,0.29,-0.39,-0.84
138373207,0.29,-0.39,-0.84
138375211,0.29,-0.39,-0.84
138377205,0.29,-0.39,-0.84
138379215,0.29,-0.38,-0.93
138381327,0.29,-0.38,-0.93
138383235,0.29,-0.38,-0.93
138385202,0.29,-0.38,-0.93
138387202,0.29,-0.38,-0.93
138389204,0.30,-0.36,-1.00
138391313,0.30,-0.36,-1.00
138393237,0.30,-0.36,-1.00
138395247,0.30,-0.36,-1.00
138397207,0.30,-0.36,-1.00
138399265,0.30,-0.36,-1.00
138401248,0.29,-0.36,-1.06
138403245,0.29,-0.36,-1.06
138405257,0.29,-0.36,-1.06
138407284,0.29,-0.36,-1.06
138409270,0.29,-0.36,-1.06
138411254,0.27,-0.39,-1.15
138413247,0.27,-0.39,-1.15
138415349,0.27,-0.39,-1.15
138417213,0.27,-0.39,-1.15
138419206,0.27,-0.39,-1.15
138421202,0.25,-0.43,-1.19
138423210,0.25,-0.43,-1.19
138425278,0.25,-0.43,-1.19
138427245,0.25,-0.43,-1.19
138429204,0.25,-0.43,-1.19
138431206,0.26,-0.39,-1.11
138433204,0.26,-0.39,-1.11
138435207,0.26,-0.39,-1.11
138437203,0.26,-0.39,-1.11
138439284,0.26,-0.39,-1.11
138441372,0.27,-0.34,-0.97
138443250,0.27,-0.34,-0.97
138445246,0.27,-0.34,-0.97
138447245,0.27,-0.34,-0.97
138449248,0.27,-0.34,-0.97
138451246,0.28,-0.33,-0.91
138453248,0.28,-0.33,-0.91
138455209,0.28,-0.33,-0.91
138457244,0.28,-0.33,-0.91
138459194,0.28,-0.33,-0.91
138461220,0.27,-0.39,-0.94
138463203,0.27,-0.39,-0.94
138465286,0.27,-0.39,-0.94
138467213,0.27,-0.39,-0.94
138469211,0.27,-0.39,-0.94
138471206,0.23,-0.39,-0.96
138473203,0.23,-0.39,-0.96
138475193,0.23,-0.39,-0.96
138477203,0.23,-0.39,-0.96
138479255,0.23,-0.39,-0.96
138481247,0.20,-0.35,-1.04
138483247,0.20,-0.35,-1.04
138485248,0.20,-0.35,-1.04
138487249,0.20,-0.35,-1.04
138489246,0.20,-0.35,-1.04
138491290,0.20,-0.35,-1.04
138493204,0.18,-0.36,-1.21
138495205,0.18,-0.36,-1.21
138497206,0.18,-0.36,-1.21
138499207,0.18,-0.36,-1.21
138501203,0.18,-0.36,-1.21
138503207,0.17,-0.37,-1.36
138505207,0.17,-0.37,-1.36
138507206,0.17,-0.37,-1.36
138509204,0.17,-0.37,-1.36
138511208,0.17,-0.37,-1.36
138513205,0.16,-0.43,-1.43
138515266,0.16,-0.43,-1.43
138517208,0.16,-0.43,-1.43
138519256,0.16,-0.43,-1.43
138521287,0.16,-0.43,-1.43
138523267,0.14,-0.50,-1.48
138525245,0.14,-0.50,-1.48
138527248,0.14,-0.50,-1.48
138529248,0.14,-0.50,-1.48
138531249,0.14,-0.50,-1.48
138533245,0.16,-0.52,-1.59
138535213,0.16,-0.52,-1.59
138537219,0.16,-0.52,-1.59
138539209,0.16,-0.52,-1.59
138541380,0.16,-0.52,-1.59
138543224,0.20,-0.51,-1.57
138545207,0.20,-0.51,-1.57
138547195,0.20,-0.51,-1.57
138549204,0.20,-0.51,-1.57
138551204,0.20,-0.51,-1.57
138553195,0.24,-0.47,-1.42
138555235,0.24,-0.47,-1.42
138557276,0.24,-0.47,-1.42
138559294,0.24,-0.47,-1.42
138561264,0.24,-0.47,-1.42
138563247,0.29,-0.38,-1.28
138565353,0.29,-0.38,-1.28
138567348,0.29,-0.38,-1.28
138569264,0.29,-0.38,-1.28
138571247,0.29,-0.38,-1.28
138573244,0.29,-0.38,-1.28
138575340,0.33,-0.27,-1.19
138577261,0.33,-0.27,-1.19
138579247,0.33,-0.27,-1.19
138581206,0.33,-0.27,-1.19
138583254,0.33,-0.27,-1.19
138585289,0.36,-0.18,-1.13
138587207,0.36,-0.18,-1.13
138589203,0.36,-0.18,-1.13
138591309,0.36,-0.18,-1.13
138593204,0.36,-0.18,-1.13
138595202,0.38,-0.12,-1.06
138597204,0.38,-0.12,-1.06
138599254,0.38,-0.12,-1.06
138601250,0.38,-0.12,-1.06
138603250,0.38,-0.12,-1.06
138605248,0.37,-0.17,-0.98
138607245,0.37,-0.17,-0.98
138609258,0.37,-0.17,-0.98
138611286,0.37,-0.17,-0.98
138613235,0.37,-0.17,-0.98
138615299,0.34,-0.24,-0.90
138617219,0.34,-0.24,-0.90
138619206,0.34,-0.24,-0.90
138621203,0.34,-0.24,-0.90
138623218,0.34,-0.24,-0.90
138625255,0.30,-0.30,-0.89
138627208,0.30,-0.30,-0.89
138629203,0.30,-0.30,-0.89
138631204,0.30,-0.30,-0.89
138633203,0.30,-0.30,-0.89
138635203,0.27,-0.37,-0.96
138637202,0.27,-0.37,-0.96
138639270,0.27,-0.37,-0.96
138641358,0.27,-0.37,-0.96
138643248,0.27,-0.37,-0.96
138645249,0.25,-0.39,-0.91
138647326,0.25,-0.39,-0.91
138649258,0.25,-0.39,-0.91
138651247,0.25,-0.39,-0.91
138653246,0.25,-0.39,-0.91
138655249,0.24,-0.43,-0.75
138657249,0.24,-0.43,-0.75
138659278,0.24,-0.43,-0.75
138661233,0.24,-0.43,-0.75
138663211,0.24,-0.43,-0.75
138665312,0.24,-0.43,-0.75
138667248,0.23,-0.42,-0.62
138669263,0.23,-0.42,-0.62
138671237,0.23,-0.42,-0.62
138673203,0.23,-0.42,-0.62
138675206,0.23,-0.42,-0.62
138677204,0.24,-0.36,-0.57
138679260,0.24,-0.36,-0.57
138681251,0.24,-0.36,-0.57
138683244,0.24,-0.36,-0.57
138685253,0.24,-0.36,-0.57
138687274,0.24,-0.32,-0.56
138689255,0.24,-0.32,-0.56
138691345,0.24,-0.32,-0.56
138693250,0.24,-0.32,-0.56
138695220,0.24,-0.32,-0.56
138697300,0.23,-0.32,-0.54
138699233,0.23,-0.32,-0.54
138701205,0.23,-0.32,-0.54
138703205,0.23,-0.32,-0.54
138705219,0.23,-0.32,-0.54
138707253,0.21,-0.33,-0.51
138709204,0.21,-0.33,-0.51
138711203,0.21,-0.33,-0.51
138713203,0.21,-0.33,-0.51
138715300,0.21,-0.33,-0.51
138717213,0.20,-0.35,-0.50
138719268,0.20,-0.35,-0.50
138721248,0.20,-0.35,-0.50
138723247,0.20,-0.35,-0.50
138725250,0.20,-0.35,-0.50
138727246,0.18,-0.37,-0.52
138729248,0.18,-0.37,-0.52
138731272,0.18,-0.37,-0.52
138733274,0.18,-0.37,-0.52
138735219,0.18,-0.37,-0.52
138737203,0.16,-0.39,-0.58
138739203,0.16,-0.39,-0.58
138741313,0.16,-0.39,-0.58
138743204,0.16,-0.39,-0.58
138745253,0.16,-0.39,-0.58
138747204,0.16,-0.39,-0.58
138749202,0.14,-0.43,-0.65
138751203,0.14,-0.43,-0.65
138753203,0.14,-0.43,-0.65
138755205,0.14,-0.43,-0.65
138757246,0.14,-0.43,-0.65
138759274,0.12,-0.45,-0.68
138761254,0.12,-0.45,-0.68
138763246,0.12,-0.45,-0.68
138765353,0.12,-0.45,-0.68
138767272,0.12,-0.45,-0.68
138769261,0.11,-0.45,-0.68
138771254,0.11,-0.45,-0.68
138773246,0.11,-0.45,-0.68
138775308,0.11,-0.45,-0.68
138777203,0.11,-0.45,-0.68
138779204,0.10,-0.43,-0.71
138781236,0.10,-0.43,-0.71
138783274,0.10,-0.43,-0.71
138785223,0.10,-0.43,-0.71
138787217,0.10,-0.43,-0.71
138789202,0.11,-0.38,-0.75
138791332,0.11,-0.38,-0.75
138793253,0.11,-0.38,-0.75
138795201,0.11,-0.38,-0.75
138797202,0.11,-0.38,-0.75
138799269,0.11,-0.37,-0.77
138801247,0.11,-0.37,-0.77
138803246,0.11,-0.37,-0.77
138805265,0.11,-0.37,-0.77
138807273,0.11,-0.37,-0.77
138809257,0.11,-0.37,-0.77
138811252,0.11,-0.37,-0.77
138813238,0.11,-0.37,-0.77
138815302,0.11,-0.37,-0.77
138817214,0.11,-0.37,-0.77
138819209,0.12,-0.42,-0.80
138821206,0.12,-0.42,-0.80
138823204,0.12,-0.42,-0.80
138825204,0.12,-0.42,-0.80
138827205,0.12,-0.42,-0.80
138829205,0.12,-0.49,-0.84
138831206,0.12,-0.49,-0.84
138833206,0.12,-0.49,-0.84
138835205,0.12,-0.49,-0.84
138837207,0.12,-0.49,-0.84
138839247,0.12,-0.49,-0.84
138841322,0.11,-0.54,-0.88
138843247,0.11,-0.54,-0.88
138845251,0.11,-0.54,-0.88
138847247,0.11,-0.54,-0.88
138849245,0.11,-0.54,-0.88
138851211,0.09,-0.49,-0.89
138853205,0.09,-0.49,-0.89
138855206,0.09,-0.49,-0.89
138857242,0.09,-0.49,-0.89
138859194,0.09,-0.49,-0.89
138861221,0.08,-0.34,-0.98
138863204,0.08,-0.34,-0.98
138865192,0.08,-0.34,-0.98
138867209,0.08,-0.34,-0.98
138869195,0.08,-0.34,-0.98
138871286,0.09,-0.23,-1.06
138873247,0.09,-0.23,-1.06
138875207,0.09,-0.23,-1.06
138877204,0.09,-0.23,-1.06
138879260,0.09,-0.23,-1.06
138881245,0.07,-0.18,-1.03
138883245,0.07,-0.18,-1.03
138885245,0.07,-0.18,-1.03
138887249,0.07,-0.18,-1.03
138889247,0.07,-0.18,-1.03
138891315,0.08,-0.11,-0.98
138893219,0.08,-0.11,-0.98
138895204,0.08,-0.11,-0.98
138897203,0.08,-0.11,-0.98
138899204,0.08,-0.11,-0.98
138901232,0.03,-0.21,-0.98
138903211,0.03,-0.21,-0.98
138905207,0.03,-0.21,-0.98
138907204,0.03,-0.21,-0.98
138909203,0.03,-0.21,-0.98
138911206,0.01,-0.37,-0.94
138913210,0.01,-0.37,-0.94
138915272,0.01,-0.37,-0.94
138917273,0.01,-0.37,-0.94
138919265,0.01,-0.37,-0.94
138921264,0.01,-0.37,-0.94
138923248,-0.01,-0.48,-0.95
138925245,-0.01,-0.48,-0.95
138927244,-0.01,-0.48,-0.95
138929266,-0.01,-0.48,-0.95
138931272,-0.01,-0.48,-0.95
138933259,-0.06,-0.50,-1.02
138935239,-0.06,-0.50,-1.02
138937216,-0.06,-0.50,-1.02
138939206,-0.06,-0.50,-1.02
138941390,-0.06,-0.50,-1.02
138943243,-0.09,-0.56,-1.18
138945202,-0.09,-0.56,-1.18
138947203,-0.09,-0.56,-1.18
138949236,-0.09,-0.56,-1.18
138951255,-0.09,-0.56,-1.18
138953205,-0.11,-0.53,-1.26
138955195,-0.11,-0.53,-1.26
138957239,-0.11,-0.53,-1.26
138959272,-0.11,-0.53,-1.26
138961263,-0.11,-0.53,-1.26
138963245,-0.11,-0.51,-1.22
138965349,-0.11,-0.51,-1.22
138967264,-0.11,-0.51,-1.22
138969279,-0.11,-0.51,-1.22
138971272,-0.11,-0.51,-1.22
138973250,-0.10,-0.49,-1.12
138975248,-0.10,-0.49,-1.12
138977231,-0.10,-0.49,-1.12
138979207,-0.10,-0.49,-1.12
138981265,-0.10,-0.49,-1.12
138983251,-0.09,-0.42,-1.07
138985204,-0.09,-0.42,-1.07
138987204,-0.09,-0.42,-1.07
138989204,-0.09,-0.42,-1.07
138991313,-0.09,-0.42,-1.07
138993255,-0.07,-0.45,-1.07
138995203,-0.07,-0.45,-1.07
138997192,-0.07,-0.45,-1.07
138959272,-0.11,-0.53,-1.26
138961263,-0.11,-0.53,-1.26
138963245,-0.11,-0.51,-1.22
138965349,-0.11,-0.51,-1.22
138967264,-0.11,-0.51,-1.22
138969279,-0.11,-0.51,-1.22
138971272,-0.11,-0.51,-1.22
138973250,-0.10,-0.49,-1.12
138975248,-0.10,-0.49,-1.12
138977231,-0.10,-0.49,-1.12
138979207,-0.10,-0.49,-1.12
138981265,-0.10,-0.49,-1.12
138983251,-0.09,-0.42,-1.07
138985204,-0.09,-0.42,-1.07
138987204,-0.09,-0.42,-1.07
138989204,-0.09,-0.42,-1.07
138991313,-0.09,-0.42,-1.07
