timestamp,accX,accY,accZ
96863282,-0.16,-0.28,-0.67
96865282,-0.16,-0.28,-0.67
96867214,-0.16,-0.28,-0.67
96869213,-0.16,-0.28,-0.67
96871213,-0.16,-0.26,-0.68
96873210,-0.16,-0.26,-0.68
96875211,-0.16,-0.26,-0.68
96877211,-0.16,-0.26,-0.68
96879209,-0.16,-0.26,-0.68
96881248,-0.16,-0.23,-0.71
96883225,-0.16,-0.23,-0.71
96885257,-0.16,-0.23,-0.71
96887211,-0.16,-0.23,-0.71
96889209,-0.16,-0.23,-0.71
96891298,-0.16,-0.27,-0.75
96893215,-0.16,-0.27,-0.75
96895215,-0.16,-0.27,-0.75
96897210,-0.16,-0.27,-0.75
96899215,-0.16,-0.27,-0.75
96901212,-0.16,-0.27,-0.77
96903214,-0.16,-0.27,-0.77
96905215,-0.16,-0.27,-0.77
96907212,-0.16,-0.27,-0.77
96909210,-0.16,-0.27,-0.77
96911214,-0.16,-0.27,-0.75
96969281,-0.07,-0.23,-0.62
96971256,-0.07,-0.23,-0.62
96973258,-0.06,-0.23,-0.51
96975255,-0.06,-0.23,-0.51
96977257,-0.06,-0.23,-0.51
96979262,-0.06,-0.23,-0.51
96981301,-0.06,-0.23,-0.51
96983278,-0.05,-0.22,-0.50
96985269,-0.05,-0.22,-0.50
96987246,-0.05,-0.22,-0.50
96989229,-0.05,-0.22,-0.50
96991364,-0.05,-0.22,-0.50
96993220,-0.05,-0.22,-0.55
96995222,-0.05,-0.22,-0.55
96997216,-0.05,-0.22,-0.55
96999238,-0.05,-0.22,-0.55
97001300,-0.05,-0.22,-0.55
97003224,-0.06,-0.23,-0.61
97005216,-0.06,-0.23,-0.61
97007214,-0.06,-0.23,-0.61
97009261,-0.06,-0.23,-0.61
97011255,-0.06,-0.23,-0.61
97013258,-0.08,-0.23,-0.59
97015357,-0.08,-0.23,-0.59
97017259,-0.08,-0.23,-0.59
97019253,-0.08,-0.23,-0.59
97021223,-0.08,-0.23,-0.59
97023289,-0.09,-0.25,-0.55
97025260,-0.09,-0.25,-0.55
97027215,-0.09,-0.25,-0.55
97029215,-0.09,-0.25,-0.55
97031211,-0.09,-0.25,-0.55
97033242,-0.09,-0.25,-0.55
97035261,-0.10,-0.25,-0.55
97037222,-0.10,-0.25,-0.55
97039214,-0.10,-0.25,-0.55
97041319,-0.10,-0.25,-0.55
97043219,-0.10,-0.25,-0.55
97045218,-0.11,-0.25,-0.57
97047219,-0.11,-0.25,-0.57
97049281,-0.11,-0.25,-0.57
97051260,-0.11,-0.25,-0.57
97053257,-0.11,-0.25,-0.57
97055258,-0.12,-0.23,-0.55
97057272,-0.12,-0.23,-0.55
97059344,-0.12,-0.23,-0.55
97061272,-0.12,-0.23,-0.55
97063255,-0.12,-0.23,-0.55
97065353,-0.15,-0.21,-0.49
97067228,-0.15,-0.21,-0.49
97069219,-0.15,-0.21,-0.49
97071214,-0.15,-0.21,-0.49
97073216,-0.15,-0.21,-0.49
97075216,-0.16,-0.21,-0.51
97077222,-0.16,-0.21,-0.51
97079221,-0.16,-0.21,-0.51
97081267,-0.16,-0.21,-0.51
97083279,-0.16,-0.21,-0.51
97085247,-0.17,-0.23,-0.62
97087215,-0.17,-0.23,-0.62
97089287,-0.17,-0.23,-0.62
97091383,-0.17,-0.23,-0.62
97093313,-0.17,-0.23,-0.62
97095275,-0.18,-0.25,-0.68
97097254,-0.18,-0.25,-0.68
97099268,-0.18,-0.25,-0.68
97101278,-0.18,-0.25,-0.68
97103260,-0.18,-0.25,-0.68
97105256,-0.21,-0.25,-0.66
97107263,-0.21,-0.25,-0.66
97109327,-0.21,-0.25,-0.66
97111237,-0.21,-0.25,-0.66
97113214,-0.21,-0.25,-0.66
97115326,-0.25,-0.37,-0.66
97117257,-0.25,-0.37,-0.66
97119213,-0.25,-0.37,-0.66
97121211,-0.25,-0.37,-0.66
97123209,-0.25,-0.37,-0.66
97125216,-0.25,-0.37,-0.66
97127218,-0.29,-0.42,-0.76
97129284,-0.29,-0.42,-0.76
97131257,-0.29,-0.42,-0.76
97133256,-0.29,-0.42,-0.76
97135290,-0.29,-0.42,-0.76
97137270,-0.32,-0.38,-0.86
97139256,-0.32,-0.38,-0.86
97141350,-0.32,-0.38,-0.86
97143258,-0.32,-0.38,-0.86
97145258,-0.32,-0.38,-0.86
97147289,-0.35,-0.34,-0.92
97149239,-0.35,-0.34,-0.92
97151211,-0.35,-0.34,-0.92
97153209,-0.35,-0.34,-0.92
97155264,-0.35,-0.34,-0.92
97157239,-0.39,-0.28,-0.97
97159217,-0.39,-0.28,-0.97
97161229,-0.39,-0.28,-0.97
97163211,-0.39,-0.28,-0.97
97165305,-0.39,-0.28,-0.97
97167220,-0.43,-0.26,-1.07
97169284,-0.43,-0.26,-1.07
97171259,-0.43,-0.26,-1.07
97173256,-0.43,-0.26,-1.07
97175257,-0.43,-0.26,-1.07
97177257,-0.51,-0.19,-1.15
97179257,-0.51,-0.19,-1.15
97181257,-0.51,-0.19,-1.15
97183219,-0.51,-0.19,-1.15
97185253,-0.51,-0.19,-1.15
97187294,-0.68,-0.14,-1.18
97189256,-0.68,-0.14,-1.18
97191364,-0.68,-0.14,-1.18
97193220,-0.68,-0.14,-1.18
97195218,-0.68,-0.14,-1.18
97197221,-0.80,-0.38,-1.32
97199228,-0.80,-0.38,-1.32
97201257,-0.80,-0.38,-1.32
97203215,-0.80,-0.38,-1.32
97205216,-0.80,-0.38,-1.32
97207214,-0.80,-0.38,-1.32
97209281,-0.87,-0.55,-1.56
97211254,-0.87,-0.55,-1.56
97213254,-0.87,-0.55,-1.56
97215357,-0.87,-0.55,-1.56
97217256,-0.87,-0.55,-1.56
97219257,-0.90,-0.56,-1.66
97221255,-0.90,-0.56,-1.66
97223221,-0.90,-0.56,-1.66
97225216,-0.90,-0.56,-1.66
97227220,-0.90,-0.56,-1.66
97229219,-0.87,-0.55,-1.56
97231219,-0.87,-0.55,-1.56
97233214,-0.87,-0.55,-1.56
97235215,-0.87,-0.55,-1.56
97237215,-0.87,-0.55,-1.56
97239216,-0.81,-0.54,-1.45
97241298,-0.81,-0.54,-1.45
97243220,-0.81,-0.54,-1.45
97245216,-0.81,-0.54,-1.45
97247212,-0.81,-0.54,-1.45
97249254,-0.75,-0.48,-1.38
97251258,-0.75,-0.48,-1.38
97253257,-0.75,-0.48,-1.38
97255255,-0.75,-0.48,-1.38
97257260,-0.75,-0.48,-1.38
97259256,-0.66,-0.39,-1.26
97261237,-0.66,-0.39,-1.26
97263220,-0.66,-0.39,-1.26
97265294,-0.66,-0.39,-1.26
97267219,-0.66,-0.39,-1.26
97269215,-0.57,-0.26,-1.07
97271216,-0.57,-0.26,-1.07
97273212,-0.57,-0.26,-1.07
97275219,-0.57,-0.26,-1.07
97277292,-0.57,-0.26,-1.07
97279251,-0.50,-0.18,-0.85
97281212,-0.50,-0.18,-0.85
97283213,-0.50,-0.18,-0.85
97285256,-0.50,-0.18,-0.85
97287226,-0.50,-0.18,-0.85
97289272,-0.50,-0.18,-0.85
97291354,-0.46,-0.20,-0.77
97293268,-0.46,-0.20,-0.77
97295280,-0.46,-0.20,-0.77
97297297,-0.46,-0.20,-0.77
97299277,-0.46,-0.20,-0.77
97301256,-0.45,-0.30,-0.82
97303255,-0.45,-0.30,-0.82
97305249,-0.45,-0.30,-0.82
97307211,-0.45,-0.30,-0.82
97309215,-0.45,-0.30,-0.82
97311214,-0.45,-0.40,-0.94
97313215,-0.45,-0.40,-0.94
97315314,-0.45,-0.40,-0.94
97317222,-0.45,-0.40,-0.94
97319215,-0.45,-0.40,-0.94
97321230,-0.45,-0.45,-1.00
97323324,-0.45,-0.45,-1.00
97325237,-0.45,-0.45,-1.00
97327214,-0.45,-0.45,-1.00
97329264,-0.45,-0.45,-1.00
97331280,-0.43,-0.49,-0.98
97333284,-0.43,-0.49,-0.98
97335255,-0.43,-0.49,-0.98
97337255,-0.43,-0.49,-0.98
97339274,-0.43,-0.49,-0.98
97341386,-0.38,-0.50,-0.91
97343258,-0.38,-0.50,-0.91
97345256,-0.38,-0.50,-0.91
97347216,-0.38,-0.50,-0.91
97349248,-0.38,-0.50,-0.91
97351322,-0.34,-0.45,-0.81
97353240,-0.34,-0.45,-0.81
97355211,-0.34,-0.45,-0.81
97357226,-0.34,-0.45,-0.81
97359264,-0.34,-0.45,-0.81
97361236,-0.29,-0.42,-0.80
97363214,-0.29,-0.42,-0.80
97365316,-0.29,-0.42,-0.80
97367219,-0.29,-0.42,-0.80
97369285,-0.29,-0.42,-0.80
97371406,-0.25,-0.41,-0.84
97373260,-0.25,-0.41,-0.84
97375258,-0.25,-0.41,-0.84
97377257,-0.25,-0.41,-0.84
97379259,-0.25,-0.41,-0.84
97381257,-0.25,-0.41,-0.84
97383227,-0.21,-0.29,-0.78
97385253,-0.21,-0.29,-0.78
97387229,-0.21,-0.29,-0.78
97389221,-0.21,-0.29,-0.78
97391411,-0.21,-0.29,-0.78
97393252,-0.17,-0.20,-0.64
97395226,-0.17,-0.20,-0.64
97397220,-0.17,-0.20,-0.64
97399219,-0.17,-0.20,-0.64
97401252,-0.17,-0.20,-0.64
97403231,-0.16,-0.20,-0.52
97405259,-0.16,-0.20,-0.52
97407222,-0.16,-0.20,-0.52
97409280,-0.16,-0.20,-0.52
97411255,-0.16,-0.20,-0.52
97413260,-0.20,-0.15,-0.48
97415370,-0.20,-0.15,-0.48
97417290,-0.20,-0.15,-0.48
97419255,-0.20,-0.15,-0.48
97421259,-0.20,-0.15,-0.48
97423259,-0.24,-0.23,-0.60
97425282,-0.24,-0.23,-0.60
97427263,-0.24,-0.23,-0.60
97429224,-0.24,-0.23,-0.60
97431220,-0.24,-0.23,-0.60
97433220,-0.29,-0.37,-0.79
97435221,-0.29,-0.37,-0.79
97437218,-0.29,-0.37,-0.79
97439220,-0.29,-0.37,-0.79
97441347,-0.29,-0.37,-0.79
97443379,-0.34,-0.37,-0.87
97445247,-0.34,-0.37,-0.87
97447217,-0.34,-0.37,-0.87
97449267,-0.34,-0.37,-0.87
97451296,-0.34,-0.37,-0.87
97453254,-0.37,-0.45,-0.89
97455261,-0.37,-0.45,-0.89
97457297,-0.37,-0.45,-0.89
97459272,-0.37,-0.45,-0.89
97461264,-0.37,-0.45,-0.89
97463262,-0.37,-0.45,-0.89
97465371,-0.39,-0.51,-0.93
97467277,-0.39,-0.51,-0.93
97469259,-0.39,-0.51,-0.93
97471234,-0.39,-0.51,-0.93
97473287,-0.39,-0.51,-0.93
97475241,-0.39,-0.48,-0.98
97477224,-0.39,-0.48,-0.98
97479222,-0.39,-0.48,-0.98
97481220,-0.39,-0.48,-0.98
97483253,-0.39,-0.48,-0.98
97485268,-0.37,-0.43,-0.97
97487223,-0.37,-0.43,-0.97
97489279,-0.37,-0.43,-0.97
97491369,-0.37,-0.43,-0.97
97493258,-0.37,-0.43,-0.97
97495260,-0.34,-0.30,-0.85
97497258,-0.34,-0.30,-0.85
97499260,-0.34,-0.30,-0.85
97501257,-0.34,-0.30,-0.85
97503222,-0.34,-0.30,-0.85
97505222,-0.30,-0.22,-0.72
97507220,-0.30,-0.22,-0.72
97509221,-0.30,-0.22,-0.72
97511221,-0.30,-0.22,-0.72
97513221,-0.30,-0.22,-0.72
97515303,-0.29,-0.13,-0.66
97517220,-0.29,-0.13,-0.66
97519226,-0.29,-0.13,-0.66
97521217,-0.29,-0.13,-0.66
97523222,-0.29,-0.13,-0.66
97525221,-0.27,-0.14,-0.64
97527221,-0.27,-0.14,-0.64
97529260,-0.27,-0.14,-0.64
97531256,-0.27,-0.14,-0.64
97533260,-0.27,-0.14,-0.64
97535261,-0.27,-0.18,-0.62
97537255,-0.27,-0.18,-0.62
97539258,-0.27,-0.18,-0.62
97541297,-0.27,-0.18,-0.62
97543223,-0.27,-0.18,-0.62
97545220,-0.27,-0.18,-0.62
97547221,-0.28,-0.19,-0.58
97549222,-0.28,-0.19,-0.58
97551251,-0.28,-0.19,-0.58
97553382,-0.28,-0.19,-0.58
97555242,-0.28,-0.19,-0.58
97557214,-0.28,-0.21,-0.57
97559223,-0.28,-0.21,-0.57
97561231,-0.28,-0.21,-0.57
97563221,-0.28,-0.21,-0.57
97565312,-0.28,-0.21,-0.57
97567229,-0.28,-0.20,-0.58
97569264,-0.28,-0.20,-0.58
97571259,-0.28,-0.20,-0.58
97573255,-0.28,-0.20,-0.58
97575265,-0.28,-0.20,-0.58
97577255,-0.27,-0.17,-0.58
97579256,-0.27,-0.17,-0.58
97581253,-0.27,-0.17,-0.58
97583231,-0.27,-0.17,-0.58
97585256,-0.27,-0.17,-0.58
97587220,-0.27,-0.13,-0.54
97589218,-0.27,-0.13,-0.54
97591303,-0.27,-0.13,-0.54
97593224,-0.27,-0.13,-0.54
97595220,-0.27,-0.13,-0.54
97597306,-0.27,-0.09,-0.48
97599254,-0.27,-0.09,-0.48
97601254,-0.27,-0.09,-0.48
97603223,-0.27,-0.09,-0.48
97605223,-0.27,-0.09,-0.48
97607222,-0.27,-0.08,-0.45
97609264,-0.27,-0.08,-0.45
97611256,-0.27,-0.08,-0.45
97613258,-0.27,-0.08,-0.45
97615357,-0.27,-0.08,-0.45
97617256,-0.27,-0.03,-0.42
97619255,-0.27,-0.03,-0.42
97621246,-0.27,-0.03,-0.42
97623222,-0.27,-0.03,-0.42
97625222,-0.27,-0.03,-0.42
97627220,-0.27,-0.03,-0.42
97629219,-0.28,-0.02,-0.46
97631344,-0.28,-0.02,-0.46
97633248,-0.28,-0.02,-0.46
97635220,-0.28,-0.02,-0.46
97637228,-0.28,-0.02,-0.46
97639218,-0.30,-0.09,-0.52
97641366,-0.30,-0.09,-0.52
97643217,-0.30,-0.09,-0.52
97645225,-0.30,-0.09,-0.52
97647216,-0.30,-0.09,-0.52
97649287,-0.34,-0.10,-0.53
97651256,-0.34,-0.10,-0.53
97653258,-0.34,-0.10,-0.53
97655299,-0.34,-0.10,-0.53
97657284,-0.34,-0.10,-0.53
97659262,-0.39,-0.10,-0.57
97661260,-0.39,-0.10,-0.57
97663277,-0.39,-0.10,-0.57
97665370,-0.39,-0.10,-0.57
97667276,-0.39,-0.10,-0.57
97669232,-0.41,-0.08,-0.70
97671219,-0.41,-0.08,-0.70
97673290,-0.41,-0.08,-0.70
97675238,-0.41,-0.08,-0.70
97677222,-0.41,-0.08,-0.70
97679218,-0.46,-0.05,-0.88
97681220,-0.46,-0.05,-0.88
97683220,-0.46,-0.05,-0.88
97685265,-0.46,-0.05,-0.88
97687265,-0.46,-0.05,-0.88
97689298,-0.50,-0.00,-0.99
97691370,-0.50,-0.00,-0.99
97693259,-0.50,-0.00,-0.99
97695259,-0.50,-0.00,-0.99
97697260,-0.50,-0.00,-0.99
97699286,-0.53,-0.00,-1.06
97701292,-0.53,-0.00,-1.06
97703297,-0.53,-0.00,-1.06
97705259,-0.53,-0.00,-1.06
97707256,-0.53,-0.00,-1.06
97709223,-0.55,-0.03,-1.11
97711288,-0.55,-0.03,-1.11
97713257,-0.55,-0.03,-1.11
97715329,-0.55,-0.03,-1.11
97717226,-0.55,-0.03,-1.11
97719275,-0.55,-0.03,-1.11
97721242,-0.58,-0.04,-1.14
97723218,-0.58,-0.04,-1.14
97725220,-0.58,-0.04,-1.14
97727219,-0.58,-0.04,-1.14
97729282,-0.58,-0.04,-1.14
97731256,-0.61,-0.09,-1.16
97733256,-0.61,-0.09,-1.16
97735257,-0.61,-0.09,-1.16
97737298,-0.61,-0.09,-1.16
97739275,-0.61,-0.09,-1.16
97741353,-0.68,-0.10,-1.10
97743254,-0.68,-0.10,-1.10
97745257,-0.68,-0.10,-1.10
97747271,-0.68,-0.10,-1.10
97749232,-0.68,-0.10,-1.10
97751210,-0.78,-0.07,-0.99
97753219,-0.78,-0.07,-0.99
97755254,-0.78,-0.07,-0.99
97757207,-0.78,-0.07,-0.99
97759208,-0.78,-0.07,-0.99
97761223,-0.89,-0.15,-1.05
97763206,-0.89,-0.15,-1.05
97765300,-0.89,-0.15,-1.05
97767218,-0.89,-0.15,-1.05
97769269,-0.89,-0.15,-1.05
97771252,-0.97,-0.22,-1.27
97773253,-0.97,-0.22,-1.27
97775352,-0.97,-0.22,-1.27
97777274,-0.97,-0.22,-1.27
97779273,-0.97,-0.22,-1.27
97781245,-1.03,-0.28,-1.54
97783249,-1.03,-0.28,-1.54
97785276,-1.03,-0.28,-1.54
97787249,-1.03,-0.28,-1.54
97789205,-1.03,-0.28,-1.54
97791318,-1.06,-0.27,-1.70
97793211,-1.06,-0.27,-1.70
97795219,-1.06,-0.27,-1.70
97797324,-1.06,-0.27,-1.70
97799231,-1.06,-0.27,-1.70
97801210,-1.06,-0.27,-1.70
97803205,-1.04,-0.22,-1.71
97805230,-1.04,-0.22,-1.71
97807256,-1.04,-0.22,-1.71
97809270,-1.04,-0.22,-1.71
97811254,-1.04,-0.22,-1.71
97813244,-1.00,-0.23,-1.61
97815291,-1.00,-0.23,-1.61
97817277,-1.00,-0.23,-1.61
97819247,-1.00,-0.23,-1.61
97821248,-1.00,-0.23,-1.61
97823247,-0.94,-0.18,-1.45
97825244,-0.94,-0.18,-1.45
97827207,-0.94,-0.18,-1.45
97829206,-0.94,-0.18,-1.45
97831278,-0.94,-0.18,-1.45
97833245,-0.87,-0.12,-1.30
97835204,-0.87,-0.12,-1.30
97837201,-0.87,-0.12,-1.30
97839195,-0.87,-0.12,-1.30
97841232,-0.87,-0.12,-1.30
97843207,-0.80,-0.11,-1.16
97845201,-0.80,-0.11,-1.16
97847206,-0.80,-0.11,-1.16
97849256,-0.80,-0.11,-1.16
97851252,-0.80,-0.11,-1.16
97853310,-0.75,-0.14,-1.05
97855263,-0.75,-0.14,-1.05
97857245,-0.75,-0.14,-1.05
97859244,-0.75,-0.14,-1.05
97861251,-0.75,-0.14,-1.05
97863248,-0.69,-0.21,-1.03
97865234,-0.69,-0.21,-1.03
97867210,-0.69,-0.21,-1.03
97869205,-0.69,-0.21,-1.03
97871203,-0.69,-0.21,-1.03
97873272,-0.64,-0.23,-1.02
97875242,-0.64,-0.23,-1.02
97877205,-0.64,-0.23,-1.02
97879203,-0.64,-0.23,-1.02
97881205,-0.64,-0.23,-1.02
97883209,-0.64,-0.23,-1.02
97885272,-0.58,-0.26,-1.01
97887203,-0.58,-0.26,-1.01
97889270,-0.58,-0.26,-1.01
97891270,-0.58,-0.26,-1.01
97893274,-0.58,-0.26,-1.01
97895272,-0.52,-0.29,-0.98
97897262,-0.52,-0.29,-0.98
97899248,-0.52,-0.29,-0.98
97901251,-0.52,-0.29,-0.98
97903247,-0.52,-0.29,-0.98
97905230,-0.46,-0.32,-0.91
97907207,-0.46,-0.32,-0.91
97909210,-0.46,-0.32,-0.91
97911212,-0.46,-0.32,-0.91
97913213,-0.46,-0.32,-0.91
97915246,-0.40,-0.29,-0.82
97917282,-0.40,-0.29,-0.82
97919231,-0.40,-0.29,-0.82
97921201,-0.40,-0.29,-0.82
97923202,-0.40,-0.29,-0.82
97925195,-0.34,-0.28,-0.76
97927210,-0.34,-0.28,-0.76
97929283,-0.34,-0.28,-0.76
97931270,-0.34,-0.28,-0.76
97933248,-0.34,-0.28,-0.76
97935251,-0.29,-0.27,-0.74
97937274,-0.29,-0.27,-0.74
97939260,-0.29,-0.27,-0.74
97941268,-0.29,-0.27,-0.74
97943250,-0.29,-0.27,-0.74
97945307,-0.25,-0.24,-0.70
97947257,-0.25,-0.24,-0.70
97949205,-0.25,-0.24,-0.70
97951217,-0.25,-0.24,-0.70
97953279,-0.25,-0.24,-0.70
97955220,-0.21,-0.23,-0.63
97957220,-0.21,-0.23,-0.63
97959256,-0.21,-0.23,-0.63
97961224,-0.21,-0.23,-0.63
97963205,-0.21,-0.23,-0.63
97965225,-0.21,-0.23,-0.63
97967203,-0.18,-0.23,-0.55
97969267,-0.18,-0.23,-0.55
97971248,-0.18,-0.23,-0.55
97973242,-0.18,-0.23,-0.55
97975246,-0.18,-0.23,-0.55
97977252,-0.16,-0.22,-0.51
97979278,-0.16,-0.22,-0.51
97981270,-0.16,-0.22,-0.51
97983254,-0.16,-0.22,-0.51
97985249,-0.16,-0.22,-0.51
97987203,-0.15,-0.20,-0.52
97989195,-0.15,-0.20,-0.52
97991247,-0.15,-0.20,-0.52
97993273,-0.15,-0.20,-0.52
97995228,-0.15,-0.20,-0.52
97997205,-0.14,-0.20,-0.53
97999205,-0.14,-0.20,-0.53
98001202,-0.14,-0.20,-0.53
98003204,-0.14,-0.20,-0.53
98005261,-0.14,-0.20,-0.53
98007237,-0.15,-0.20,-0.52
98009273,-0.15,-0.20,-0.52
98011272,-0.15,-0.20,-0.52
98013248,-0.15,-0.20,-0.52
98015274,-0.15,-0.20,-0.52
98017278,-0.15,-0.23,-0.48
98019278,-0.15,-0.23,-0.48
98021247,-0.15,-0.23,-0.48
98023247,-0.15,-0.23,-0.48
98025244,-0.15,-0.23,-0.48
98027205,-0.16,-0.24,-0.46
98029203,-0.16,-0.24,-0.46
98031207,-0.16,-0.24,-0.46
98033238,-0.16,-0.24,-0.46
98035302,-0.16,-0.24,-0.46
98037227,-0.17,-0.23,-0.43
98039204,-0.17,-0.23,-0.43
98041234,-0.17,-0.23,-0.43
98043214,-0.17,-0.23,-0.43
98045209,-0.17,-0.23,-0.43
98047250,-0.17,-0.18,-0.45
98049266,-0.17,-0.18,-0.45
98051249,-0.17,-0.18,-0.45
98053244,-0.17,-0.18,-0.45
98055279,-0.17,-0.18,-0.45
98057265,-0.17,-0.18,-0.45
98059249,-0.16,-0.15,-0.46
98061262,-0.16,-0.15,-0.46
98063271,-0.16,-0.15,-0.46
98065276,-0.16,-0.15,-0.46
98067248,-0.16,-0.15,-0.46
98069206,-0.16,-0.14,-0.41
98071302,-0.16,-0.14,-0.41
98073232,-0.16,-0.14,-0.41
98075204,-0.16,-0.14,-0.41
98077209,-0.16,-0.14,-0.41
98079255,-0.16,-0.12,-0.35
98081210,-0.16,-0.12,-0.35
98083215,-0.16,-0.12,-0.35
98085239,-0.16,-0.12,-0.35
98087205,-0.16,-0.12,-0.35
98089279,-0.16,-0.05,-0.32
98091269,-0.16,-0.05,-0.32
98093247,-0.16,-0.05,-0.32
98095282,-0.16,-0.05,-0.32
98097275,-0.16,-0.05,-0.32
98099251,-0.17,0.00,-0.38
98101247,-0.17,0.00,-0.38
98103245,-0.17,0.00,-0.38
98105263,-0.17,0.00,-0.38
98107271,-0.17,0.00,-0.38
98109231,-0.20,0.02,-0.45
98111204,-0.20,0.02,-0.45
98113237,-0.20,0.02,-0.45
98115268,-0.20,0.02,-0.45
98117276,-0.20,0.02,-0.45
98119218,-0.23,-0.02,-0.48
98121202,-0.23,-0.02,-0.48
98123206,-0.23,-0.02,-0.48
98125205,-0.23,-0.02,-0.48
98127207,-0.23,-0.02,-0.48
98129268,-0.29,-0.10,-0.50
98131251,-0.29,-0.10,-0.50
98133249,-0.29,-0.10,-0.50
98135248,-0.29,-0.10,-0.50
98137246,-0.29,-0.10,-0.50
98139245,-0.29,-0.10,-0.50
98141264,-0.36,-0.14,-0.56
98143210,-0.36,-0.14,-0.56
98145211,-0.36,-0.14,-0.56
98147205,-0.36,-0.14,-0.56
98149211,-0.36,-0.14,-0.56
98151209,-0.42,-0.15,-0.68
98153296,-0.42,-0.15,-0.68
98155231,-0.42,-0.15,-0.68
98157202,-0.42,-0.15,-0.68
98159209,-0.42,-0.15,-0.68
98161224,-0.48,-0.19,-0.81
98163203,-0.48,-0.19,-0.81
98165226,-0.48,-0.19,-0.81
98167210,-0.48,-0.19,-0.81
98169253,-0.48,-0.19,-0.81
98171251,-0.54,-0.21,-0.87
98173277,-0.54,-0.21,-0.87
98175254,-0.54,-0.21,-0.87
98177246,-0.54,-0.21,-0.87
98179245,-0.54,-0.21,-0.87
98181292,-0.58,-0.20,-0.87
98183256,-0.58,-0.20,-0.87
98185265,-0.58,-0.20,-0.87
98187207,-0.58,-0.20,-0.87
98189203,-0.58,-0.20,-0.87
98191234,-0.61,-0.12,-0.87
98193204,-0.61,-0.12,-0.87
98195215,-0.61,-0.12,-0.87
98197271,-0.61,-0.12,-0.87
98199223,-0.61,-0.12,-0.87
98201209,-0.65,-0.01,-0.89
98203212,-0.65,-0.01,-0.89
98205207,-0.65,-0.01,-0.89
98207202,-0.65,-0.01,-0.89
98209261,-0.65,-0.01,-0.89
98211247,-0.68,0.04,-0.98
98213245,-0.68,0.04,-0.98
98215278,-0.68,0.04,-0.98
98217309,-0.68,0.04,-0.98
98219271,-0.68,0.04,-0.98
98221247,-0.68,0.04,-0.98
98223245,-0.72,0.08,-1.07
98225269,-0.72,0.08,-1.07
98227249,-0.72,0.08,-1.07
98229210,-0.72,0.08,-1.07
98231203,-0.72,0.08,-1.07
98233218,-0.76,0.09,-1.09
98235254,-0.76,0.09,-1.09
98237205,-0.76,0.09,-1.09
98239221,-0.76,0.09,-1.09
98241236,-0.76,0.09,-1.09
98243205,-0.80,-0.05,-1.12
98245204,-0.80,-0.05,-1.12
98247205,-0.80,-0.05,-1.12
98249274,-0.80,-0.05,-1.12
98251248,-0.80,-0.05,-1.12
98253273,-0.84,-0.11,-1.14
98255287,-0.84,-0.11,-1.14
98257268,-0.84,-0.11,-1.14
98259251,-0.84,-0.11,-1.14
98261253,-0.84,-0.11,-1.14
98263272,-0.88,-0.02,-1.13
98265277,-0.88,-0.02,-1.13
98267245,-0.88,-0.02,-1.13
98269202,-0.88,-0.02,-1.13
98271235,-0.88,-0.02,-1.13
98273270,-0.98,0.13,-1.09
98275222,-0.98,0.13,-1.09
98277204,-0.98,0.13,-1.09
98279232,-0.98,0.13,-1.09
98281254,-0.98,0.13,-1.09
98283204,-1.06,0.20,-1.19
98285246,-1.06,0.20,-1.19
98287216,-1.06,0.20,-1.19
98289272,-1.06,0.20,-1.19
98291270,-1.06,0.20,-1.19
98293247,-1.07,0.05,-1.39
98295244,-1.07,0.05,-1.39
98297244,-1.07,0.05,-1.39
98299244,-1.07,0.05,-1.39
98301246,-1.07,0.05,-1.39
98303273,-1.07,-0.06,-1.48
98305255,-1.07,-0.06,-1.48
98307211,-1.07,-0.06,-1.48
98309205,-1.07,-0.06,-1.48
98311205,-1.07,-0.06,-1.48
98313203,-1.07,-0.06,-1.48
98315225,-1.04,-0.14,-1.37
98317220,-1.04,-0.14,-1.37
98319238,-1.04,-0.14,-1.37
98321255,-1.04,-0.14,-1.37
98323205,-1.04,-0.14,-1.37
98325203,-0.98,-0.27,-1.28
98327203,-0.98,-0.27,-1.28
98329266,-0.98,-0.27,-1.28
98331248,-0.98,-0.27,-1.28
98333266,-0.98,-0.27,-1.28
98335309,-0.89,-0.25,-1.27
98337267,-0.89,-0.25,-1.27
98339245,-0.89,-0.25,-1.27
98341269,-0.89,-0.25,-1.27
98343267,-0.89,-0.25,-1.27
98345266,-0.78,-0.21,-1.22
98347247,-0.78,-0.21,-1.22
98349206,-0.78,-0.21,-1.22
98351206,-0.78,-0.21,-1.22
98353212,-0.78,-0.21,-1.22
98355206,-0.68,-0.19,-1.09
98357208,-0.68,-0.19,-1.09
98359208,-0.68,-0.19,-1.09
98361229,-0.68,-0.19,-1.09
98363285,-0.68,-0.19,-1.09
98365256,-0.56,-0.16,-0.93
98367205,-0.56,-0.16,-0.93
98369259,-0.56,-0.16,-0.93
98371263,-0.56,-0.16,-0.93
98373274,-0.56,-0.16,-0.93
98375259,-0.48,-0.18,-0.81
98377248,-0.48,-0.18,-0.81
98379253,-0.48,-0.18,-0.81
98381270,-0.48,-0.18,-0.81
98383261,-0.48,-0.18,-0.81
98385262,-0.39,-0.19,-0.75
98387222,-0.39,-0.19,-0.75
98389306,-0.39,-0.19,-0.75
98391252,-0.39,-0.19,-0.75
98393206,-0.39,-0.19,-0.75
98395228,-0.39,-0.19,-0.75
98397252,-0.33,-0.24,-0.74
98399204,-0.33,-0.24,-0.74
98401202,-0.33,-0.24,-0.74
98403203,-0.33,-0.24,-0.74
98405204,-0.33,-0.24,-0.74
98407205,-0.29,-0.29,-0.73
98409272,-0.29,-0.29,-0.73
98411245,-0.29,-0.29,-0.73
98413248,-0.29,-0.29,-0.73
98415271,-0.29,-0.29,-0.73
98417244,-0.26,-0.32,-0.68
98419248,-0.26,-0.32,-0.68
98421271,-0.26,-0.32,-0.68
98423279,-0.26,-0.32,-0.68
98425244,-0.26,-0.32,-0.68
98427210,-0.23,-0.36,-0.63
98429206,-0.23,-0.36,-0.63
98431192,-0.23,-0.36,-0.63
98433195,-0.23,-0.36,-0.63
98435212,-0.23,-0.36,-0.63
98437207,-0.21,-0.37,-0.62
98439205,-0.21,-0.37,-0.62
98441235,-0.21,-0.37,-0.62
98443205,-0.21,-0.37,-0.62
98445203,-0.21,-0.37,-0.62
98447276,-0.21,-0.40,-0.65
98449266,-0.21,-0.40,-0.65
98451253,-0.21,-0.40,-0.65
98453247,-0.21,-0.40,-0.65
98455285,-0.21,-0.40,-0.65
98457271,-0.20,-0.42,-0.68
98459256,-0.20,-0.42,-0.68
98461255,-0.20,-0.42,-0.68
98463261,-0.20,-0.42,-0.68
98465285,-0.20,-0.42,-0.68
98467255,-0.20,-0.41,-0.69
98469206,-0.20,-0.41,-0.69
98471204,-0.20,-0.41,-0.69
98473231,-0.20,-0.41,-0.69
98475273,-0.20,-0.41,-0.69
98477228,-0.20,-0.41,-0.69
98479204,-0.18,-0.40,-0.66
98481195,-0.18,-0.40,-0.66
98483205,-0.18,-0.40,-0.66
98485269,-0.18,-0.40,-0.66
98487238,-0.18,-0.40,-0.66
98489271,-0.16,-0.38,-0.68
98491269,-0.16,-0.38,-0.68
98493247,-0.16,-0.38,-0.68
98495244,-0.16,-0.38,-0.68
98497244,-0.16,-0.38,-0.68
98499245,-0.14,-0.29,-0.71
98501249,-0.14,-0.29,-0.71
98503211,-0.14,-0.29,-0.71
98505212,-0.14,-0.29,-0.71
98507203,-0.14,-0.29,-0.71
98509207,-0.14,-0.24,-0.76
98511203,-0.14,-0.24,-0.76
98513204,-0.14,-0.24,-0.76
98515292,-0.14,-0.24,-0.76
98517217,-0.14,-0.24,-0.76
98519207,-0.15,-0.14,-0.73
98521206,-0.15,-0.14,-0.73
98523208,-0.15,-0.14,-0.73
98525250,-0.15,-0.14,-0.73
98527241,-0.15,-0.14,-0.73
98529307,-0.16,-0.09,-0.70
98531282,-0.16,-0.09,-0.70
98533254,-0.16,-0.09,-0.70
98535256,-0.16,-0.09,-0.70
98537256,-0.16,-0.09,-0.70
98539269,-0.20,-0.06,-0.69
98541286,-0.20,-0.06,-0.69
98543247,-0.20,-0.06,-0.69
98545241,-0.20,-0.06,-0.69
98547269,-0.20,-0.06,-0.69
98549269,-0.23,0.02,-0.70
98551228,-0.23,0.02,-0.70
98553204,-0.23,0.02,-0.70
98555206,-0.23,0.02,-0.70
98557257,-0.23,0.02,-0.70
98559207,-0.23,0.02,-0.70
98561225,-0.26,0.07,-0.73
98563210,-0.26,0.07,-0.73
98565300,-0.26,0.07,-0.73
98567221,-0.26,0.07,-0.73
98569195,-0.26,0.07,-0.73
98571273,-0.30,0.15,-0.72
98573250,-0.30,0.15,-0.72
98575245,-0.30,0.15,-0.72
98577277,-0.30,0.15,-0.72
98579262,-0.30,0.15,-0.72
98581248,-0.34,0.23,-0.70
98583252,-0.34,0.23,-0.70
98585302,-0.34,0.23,-0.70
98587277,-0.34,0.23,-0.70
98589244,-0.34,0.23,-0.70
98591242,-0.39,0.30,-0.66
98593205,-0.39,0.30,-0.66
98595205,-0.39,0.30,-0.66
98597204,-0.39,0.30,-0.66
98599204,-0.39,0.30,-0.66
98601204,-0.43,0.31,-0.61
98603205,-0.43,0.31,-0.61
98605208,-0.43,0.31,-0.61
98607205,-0.43,0.31,-0.61
98609206,-0.43,0.31,-0.61
98611255,-0.48,0.28,-0.63
98613297,-0.48,0.28,-0.63
98615289,-0.48,0.28,-0.63
98617249,-0.48,0.28,-0.63
98619245,-0.48,0.28,-0.63
98621247,-0.52,0.27,-0.67
98623246,-0.52,0.27,-0.67
98625273,-0.52,0.27,-0.67
98627253,-0.52,0.27,-0.67
98629206,-0.52,0.27,-0.67
98631203,-0.55,0.22,-0.68
98633214,-0.55,0.22,-0.68
98635222,-0.55,0.22,-0.68
98637266,-0.55,0.22,-0.68
98639226,-0.55,0.22,-0.68
98641238,-0.59,0.12,-0.64
98643253,-0.59,0.12,-0.64
98645238,-0.59,0.12,-0.64
98647205,-0.59,0.12,-0.64
98649211,-0.59,0.12,-0.64
98651270,-0.59,0.12,-0.64
98653251,-0.62,0.02,-0.65
98655251,-0.62,0.02,-0.65
98657250,-0.62,0.02,-0.65
98659249,-0.62,0.02,-0.65
98661286,-0.62,0.02,-0.65
98663278,-0.63,-0.12,-0.71
98665276,-0.63,-0.12,-0.71
98667249,-0.63,-0.12,-0.71
98669208,-0.63,-0.12,-0.71
98671231,-0.63,-0.12,-0.71
98673274,-0.64,-0.14,-0.76
98675226,-0.64,-0.14,-0.76
98677203,-0.64,-0.14,-0.76
98679207,-0.64,-0.14,-0.76
98681206,-0.64,-0.14,-0.76
98683267,-0.64,-0.11,-0.83
98685232,-0.64,-0.11,-0.83
98687247,-0.64,-0.11,-0.83
98689211,-0.64,-0.11,-0.83
98691302,-0.64,-0.11,-0.83
98693253,-0.63,-0.11,-0.86
98695251,-0.63,-0.11,-0.86
98697270,-0.63,-0.11,-0.86
98699276,-0.63,-0.11,-0.86
98701264,-0.63,-0.11,-0.86
98703244,-0.61,-0.05,-0.77
98705236,-0.61,-0.05,-0.77
98707206,-0.61,-0.05,-0.77
98709205,-0.61,-0.05,-0.77
98711214,-0.61,-0.05,-0.77
98713289,-0.59,-0.07,-0.73
98715260,-0.59,-0.07,-0.73
98717205,-0.59,-0.07,-0.73
98719204,-0.59,-0.07,-0.73
98721205,-0.59,-0.07,-0.73
98723203,-0.55,-0.02,-0.76
98725252,-0.55,-0.02,-0.76
98727252,-0.55,-0.02,-0.76
98729228,-0.55,-0.02,-0.76
98731262,-0.55,-0.02,-0.76
98733251,-0.55,-0.02,-0.76
98735245,-0.53,-0.02,-0.79
98737245,-0.53,-0.02,-0.79
98739247,-0.53,-0.02,-0.79
98741266,-0.53,-0.02,-0.79
98743244,-0.53,-0.02,-0.79
98745203,-0.51,-0.06,-0.75
98747221,-0.51,-0.06,-0.75
98749305,-0.51,-0.06,-0.75
98751230,-0.51,-0.06,-0.75
98753203,-0.51,-0.06,-0.75
98755203,-0.53,-0.10,-0.73
98757192,-0.53,-0.10,-0.73
98759208,-0.53,-0.10,-0.73
98761220,-0.53,-0.10,-0.73
98763213,-0.53,-0.10,-0.73
98765231,-0.57,-0.16,-0.85
98767206,-0.57,-0.16,-0.85
98769208,-0.57,-0.16,-0.85
98771262,-0.57,-0.16,-0.85
98773252,-0.57,-0.16,-0.85
98775374,-0.61,-0.16,-1.04
98777264,-0.61,-0.16,-1.04
98779245,-0.61,-0.16,-1.04
98781244,-0.61,-0.16,-1.04
98783245,-0.61,-0.16,-1.04
98785251,-0.69,-0.04,-1.12
98787246,-0.69,-0.04,-1.12
98789206,-0.69,-0.04,-1.12
98791233,-0.69,-0.04,-1.12
98793202,-0.69,-0.04,-1.12
98795195,-0.80,0.11,-1.02
98797299,-0.80,0.11,-1.02
98799229,-0.80,0.11,-1.02
98801201,-0.80,0.11,-1.02
98803202,-0.80,0.11,-1.02
98805203,-0.91,0.05,-1.13
98807202,-0.91,0.05,-1.13
98809193,-0.91,0.05,-1.13
98811270,-0.91,0.05,-1.13
98813245,-0.91,0.05,-1.13
98815278,-0.91,0.05,-1.13
98817250,-0.96,-0.16,-1.52
98819245,-0.96,-0.16,-1.52
98821249,-0.96,-0.16,-1.52
98823241,-0.96,-0.16,-1.52
98825205,-0.96,-0.16,-1.52
98827210,-0.99,-0.35,-1.76
98829216,-0.99,-0.35,-1.76
98831205,-0.99,-0.35,-1.76
98833210,-0.99,-0.35,-1.76
98835209,-0.99,-0.35,-1.76
98837205,-0.95,-0.45,-1.65
98839205,-0.95,-0.45,-1.65
98841251,-0.95,-0.45,-1.65
98843325,-0.95,-0.45,-1.65
98845229,-0.95,-0.45,-1.65
98847202,-0.85,-0.45,-1.44
98849205,-0.85,-0.45,-1.44
98851260,-0.85,-0.45,-1.44
98853246,-0.85,-0.45,-1.44
98855247,-0.85,-0.45,-1.44
98857245,-0.72,-0.29,-1.29
98859251,-0.72,-0.29,-1.29
98861253,-0.72,-0.29,-1.29
98863207,-0.72,-0.29,-1.29
98865229,-0.72,-0.29,-1.29
98867211,-0.59,-0.23,-1.18
98869205,-0.59,-0.23,-1.18
98871210,-0.59,-0.23,-1.18
98873207,-0.59,-0.23,-1.18
98875207,-0.59,-0.23,-1.18
98877280,-0.50,-0.22,-0.99
98879242,-0.50,-0.22,-0.99
98881202,-0.50,-0.22,-0.99
98883203,-0.50,-0.22,-0.99
98885204,-0.50,-0.22,-0.99
98887242,-0.42,-0.13,-0.77
98889236,-0.42,-0.13,-0.77
98891306,-0.42,-0.13,-0.77
98893271,-0.42,-0.13,-0.77
98895243,-0.42,-0.13,-0.77
98897246,-0.36,-0.14,-0.66
98899254,-0.36,-0.14,-0.66
98901282,-0.36,-0.14,-0.66
98903267,-0.36,-0.14,-0.66
98905245,-0.36,-0.14,-0.66
98907245,-0.36,-0.14,-0.66
98909218,-0.35,-0.19,-0.72
98911272,-0.35,-0.19,-0.72
98913218,-0.35,-0.19,-0.72
98915304,-0.35,-0.19,-0.72
98917220,-0.35,-0.19,-0.72
98919203,-0.33,-0.21,-0.84
98921202,-0.33,-0.21,-0.84
98923204,-0.33,-0.21,-0.84
98925204,-0.33,-0.21,-0.84
98927233,-0.33,-0.21,-0.84
98929257,-0.35,-0.26,-0.89
98931289,-0.35,-0.26,-0.89
98933268,-0.35,-0.26,-0.89
98935247,-0.35,-0.26,-0.89
98937253,-0.35,-0.26,-0.89
98939267,-0.35,-0.33,-0.88
98941283,-0.35,-0.33,-0.88
98943246,-0.35,-0.33,-0.88
98945258,-0.35,-0.33,-0.88
98947273,-0.35,-0.33,-0.88
98949253,-0.35,-0.42,-0.84
98951205,-0.35,-0.42,-0.84
98953210,-0.35,-0.42,-0.84
98955294,-0.35,-0.42,-0.84
98957241,-0.35,-0.42,-0.84
98959209,-0.34,-0.45,-0.82
98961262,-0.34,-0.45,-0.82
98963230,-0.34,-0.45,-0.82
98965299,-0.34,-0.45,-0.82
98967217,-0.34,-0.45,-0.82
98969207,-0.32,-0.45,-0.85
98971272,-0.32,-0.45,-0.85
98973251,-0.32,-0.45,-0.85
98975253,-0.32,-0.45,-0.85
98977252,-0.32,-0.45,-0.85
98979247,-0.29,-0.45,-0.85
98981243,-0.29,-0.45,-0.85
98983247,-0.29,-0.45,-0.85
98985207,-0.29,-0.45,-0.85
98987246,-0.29,-0.45,-0.85
98989193,-0.29,-0.45,-0.85
98991230,-0.25,-0.41,-0.79
98993271,-0.25,-0.41,-0.79
98995250,-0.25,-0.41,-0.79
98997202,-0.25,-0.41,-0.79
98999209,-0.25,-0.41,-0.79
99001203,-0.22,-0.34,-0.71
99003215,-0.22,-0.34,-0.71
99005250,-0.22,-0.34,-0.71
99007202,-0.22,-0.34,-0.71
99009201,-0.22,-0.34,-0.71
99011272,-0.18,-0.31,-0.68
99013247,-0.18,-0.31,-0.68
99015271,-0.18,-0.31,-0.68
99017277,-0.18,-0.31,-0.68
99019275,-0.18,-0.31,-0.68
99021247,-0.14,-0.31,-0.64
99023247,-0.14,-0.31,-0.64
99025256,-0.14,-0.31,-0.64
99027243,-0.14,-0.31,-0.64
99029206,-0.14,-0.31,-0.64
99031202,-0.12,-0.26,-0.56
99033236,-0.12,-0.26,-0.56
99035253,-0.12,-0.26,-0.56
99037221,-0.12,-0.26,-0.56
99039203,-0.12,-0.26,-0.56
99041231,-0.10,-0.23,-0.52
99043204,-0.10,-0.23,-0.52
99045204,-0.10,-0.23,-0.52
99047205,-0.10,-0.23,-0.52
99049203,-0.10,-0.23,-0.52
99051252,-0.09,-0.19,-0.50
99053243,-0.09,-0.19,-0.50
99055251,-0.09,-0.19,-0.50
99057250,-0.09,-0.19,-0.50
99059290,-0.09,-0.19,-0.50
99061278,-0.07,-0.20,-0.46
99063251,-0.07,-0.20,-0.46
99065269,-0.07,-0.20,-0.46
99067203,-0.07,-0.20,-0.46
99069205,-0.07,-0.20,-0.46
99071204,-0.07,-0.20,-0.46
99073204,-0.09,-0.24,-0.41
99075265,-0.09,-0.24,-0.41
99077255,-0.09,-0.24,-0.41
99079224,-0.09,-0.24,-0.41
99081215,-0.09,-0.24,-0.41
99083243,-0.09,-0.21,-0.36
99085265,-0.09,-0.21,-0.36
99087252,-0.09,-0.21,-0.36
99089206,-0.09,-0.21,-0.36
99091301,-0.09,-0.21,-0.36
99093253,-0.10,-0.19,-0.38
99095247,-0.10,-0.19,-0.38
99097252,-0.10,-0.19,-0.38
99099282,-0.10,-0.19,-0.38
99101252,-0.10,-0.19,-0.38
99103247,-0.12,-0.15,-0.42
99105247,-0.12,-0.15,-0.42
99107211,-0.12,-0.15,-0.42
99109205,-0.12,-0.15,-0.42
99111206,-0.12,-0.15,-0.42
99113204,-0.15,-0.12,-0.46
99115226,-0.15,-0.12,-0.46
99117207,-0.15,-0.12,-0.46
99119203,-0.15,-0.12,-0.46
99121205,-0.15,-0.12,-0.46
99123210,-0.18,-0.12,-0.47
99125204,-0.18,-0.12,-0.47
99127205,-0.18,-0.12,-0.47
99129206,-0.18,-0.12,-0.47
99131302,-0.18,-0.12,-0.47
99133275,-0.21,-0.12,-0.50
99135253,-0.21,-0.12,-0.50
99137279,-0.21,-0.12,-0.50
99139251,-0.21,-0.12,-0.50
99141266,-0.21,-0.12,-0.50
99143250,-0.25,-0.09,-0.56
99145294,-0.25,-0.09,-0.56
99147278,-0.25,-0.09,-0.56
99149252,-0.25,-0.09,-0.56
99151244,-0.25,-0.09,-0.56
99153206,-0.25,-0.09,-0.56
99155204,-0.28,-0.07,-0.63
99157216,-0.28,-0.07,-0.63
99159270,-0.28,-0.07,-0.63
99161264,-0.28,-0.07,-0.63
99163204,-0.28,-0.07,-0.63
99165225,-0.31,-0.11,-0.67
99167237,-0.31,-0.11,-0.67
99169254,-0.31,-0.11,-0.67
99171207,-0.31,-0.11,-0.67
99173270,-0.31,-0.11,-0.67
99175251,-0.35,-0.13,-0.61
99177251,-0.35,-0.13,-0.61
99179251,-0.35,-0.13,-0.61
99181324,-0.35,-0.13,-0.61
99183259,-0.35,-0.13,-0.61
99185248,-0.42,-0.09,-0.58
99187269,-0.42,-0.09,-0.58
99189253,-0.42,-0.09,-0.58
99191296,-0.42,-0.09,-0.58
99193228,-0.42,-0.09,-0.58
99195202,-0.48,0.00,-0.65
99197202,-0.48,0.00,-0.65
99199249,-0.48,0.00,-0.65
99201239,-0.48,0.00,-0.65
99203201,-0.48,0.00,-0.65
99205202,-0.54,0.15,-0.76
99207203,-0.54,0.15,-0.76
99209204,-0.54,0.15,-0.76
99211203,-0.54,0.15,-0.76
99213269,-0.54,0.15,-0.76
99215274,-0.66,0.27,-0.84
99217247,-0.66,0.27,-0.84
99219243,-0.66,0.27,-0.84
99221245,-0.66,0.27,-0.84
99223244,-0.66,0.27,-0.84
99225243,-0.79,0.38,-0.90
99227206,-0.79,0.38,-0.90
99229206,-0.79,0.38,-0.90
99231228,-0.79,0.38,-0.90
99233285,-0.79,0.38,-0.90
99235228,-0.96,0.52,-1.03
99237195,-0.96,0.52,-1.03
99239195,-0.96,0.52,-1.03
99241255,-0.96,0.52,-1.03
99243243,-0.96,0.52,-1.03
99245238,-0.96,0.52,-1.03
99247254,-1.11,0.52,-1.23
99249205,-1.11,0.52,-1.23
99251204,-1.11,0.52,-1.23
99253270,-1.11,0.52,-1.23
99255247,-1.11,0.52,-1.23
99257247,-1.25,0.36,-1.45
99259273,-1.25,0.36,-1.45
99261269,-1.25,0.36,-1.45
99263254,-1.25,0.36,-1.45
99265273,-1.25,0.36,-1.45
99267247,-1.35,0.10,-1.54
99269280,-1.35,0.10,-1.54
99271243,-1.35,0.10,-1.54
99273195,-1.35,0.10,-1.54
99275201,-1.35,0.10,-1.54
99277204,-1.39,-0.02,-1.57
99279204,-1.39,-0.02,-1.57
99281203,-1.39,-0.02,-1.57
99283215,-1.39,-0.02,-1.57
99285262,-1.39,-0.02,-1.57
99287246,-1.38,-0.11,-1.66
99289206,-1.38,-0.11,-1.66
99291231,-1.38,-0.11,-1.66
99293272,-1.38,-0.11,-1.66
99295252,-1.38,-0.11,-1.66
99297248,-1.28,-0.05,-1.66
99299269,-1.28,-0.05,-1.66
99301268,-1.28,-0.05,-1.66
99303254,-1.28,-0.05,-1.66
99305247,-1.28,-0.05,-1.66
99307253,-1.14,0.02,-1.44
99309277,-1.14,0.02,-1.44
99311248,-1.14,0.02,-1.44
99313205,-1.14,0.02,-1.44
99315303,-1.14,0.02,-1.44
99317214,-1.01,0.05,-1.18
99319227,-1.01,0.05,-1.18
99321255,-1.01,0.05,-1.18
99323206,-1.01,0.05,-1.18
99325203,-1.01,0.05,-1.18
99327205,-1.01,0.05,-1.18
99329195,-0.89,0.07,-1.05
99331202,-0.89,0.07,-1.05
99333276,-0.89,0.07,-1.05
99335255,-0.89,0.07,-1.05
99337243,-0.89,0.07,-1.05
99339245,-0.78,-0.02,-1.05
99341284,-0.78,-0.02,-1.05
99343269,-0.78,-0.02,-1.05
99345247,-0.78,-0.02,-1.05
99347246,-0.78,-0.02,-1.05
99349207,-0.70,-0.12,-1.04
99351205,-0.70,-0.12,-1.04
99353212,-0.70,-0.12,-1.04
99355210,-0.70,-0.12,-1.04
99357203,-0.70,-0.12,-1.04
99359207,-0.61,-0.19,-1.00
99361231,-0.61,-0.19,-1.00
99363206,-0.61,-0.19,-1.00
99365293,-0.61,-0.19,-1.00
99367216,-0.61,-0.19,-1.00
99369204,-0.54,-0.25,-0.99
99371371,-0.54,-0.25,-0.99
99373266,-0.54,-0.25,-0.99
99375248,-0.54,-0.25,-0.99
99377250,-0.54,-0.25,-0.99
99379296,-0.47,-0.25,-0.98
99381284,-0.47,-0.25,-0.98
99383252,-0.47,-0.25,-0.98
99385251,-0.47,-0.25,-0.98
99387258,-0.47,-0.25,-0.98
99389248,-0.42,-0.27,-0.97
99391243,-0.42,-0.27,-0.97
99393211,-0.42,-0.27,-0.97
99395219,-0.42,-0.27,-0.97
99397278,-0.42,-0.27,-0.97
99399234,-0.37,-0.27,-0.93
99401206,-0.37,-0.27,-0.93
99403208,-0.37,-0.27,-0.93
99405207,-0.37,-0.27,-0.93
99407204,-0.37,-0.27,-0.93
99409210,-0.37,-0.27,-0.93
99411207,-0.33,-0.27,-0.88
99413256,-0.33,-0.27,-0.88
99415279,-0.33,-0.27,-0.88
99417250,-0.33,-0.27,-0.88
99419252,-0.33,-0.27,-0.88
99421250,-0.30,-0.26,-0.86
99423248,-0.30,-0.26,-0.86
99425210,-0.30,-0.26,-0.86
99427207,-0.30,-0.26,-0.86
99429220,-0.30,-0.26,-0.86
99431304,-0.27,-0.26,-0.87
99433229,-0.27,-0.26,-0.87
99435208,-0.27,-0.26,-0.87
99437205,-0.27,-0.26,-0.87
99439208,-0.27,-0.26,-0.87
99441235,-0.25,-0.24,-0.86
99443213,-0.25,-0.24,-0.86
99445247,-0.25,-0.24,-0.86
99447252,-0.25,-0.24,-0.86
99449246,-0.25,-0.24,-0.86
99451206,-0.23,-0.23,-0.86
99453272,-0.23,-0.23,-0.86
99455254,-0.23,-0.23,-0.86
99457254,-0.23,-0.23,-0.86
99459253,-0.23,-0.23,-0.86
99461252,-0.21,-0.20,-0.83
99463372,-0.21,-0.20,-0.83
99465287,-0.21,-0.20,-0.83
99467251,-0.21,-0.20,-0.83
99469248,-0.21,-0.20,-0.83
99471219,-0.18,-0.18,-0.80
99473279,-0.18,-0.18,-0.80
99475222,-0.18,-0.18,-0.80
99477211,-0.18,-0.18,-0.80
99479238,-0.18,-0.18,-0.80
99481253,-0.18,-0.21,-0.73
99483206,-0.18,-0.21,-0.73
99485218,-0.18,-0.21,-0.73
99487245,-0.18,-0.21,-0.73
99489207,-0.18,-0.21,-0.73
99491236,-0.16,-0.20,-0.66
99493275,-0.16,-0.20,-0.66
99495252,-0.16,-0.20,-0.66
99497249,-0.16,-0.20,-0.66
99499273,-0.16,-0.20,-0.66
99501280,-0.16,-0.20,-0.66
99503255,-0.15,-0.21,-0.63
99505250,-0.15,-0.21,-0.63
99507251,-0.15,-0.21,-0.63
99509247,-0.15,-0.21,-0.63
99511207,-0.15,-0.21,-0.63
99513211,-0.15,-0.20,-0.61
99515234,-0.15,-0.20,-0.61
99517222,-0.15,-0.20,-0.61
99519277,-0.15,-0.20,-0.61
99521226,-0.15,-0.20,-0.61
99523207,-0.14,-0.17,-0.60
99525205,-0.14,-0.17,-0.60
99527231,-0.14,-0.17,-0.60
99529256,-0.14,-0.17,-0.60
99531215,-0.14,-0.17,-0.60
99533267,-0.14,-0.18,-0.58
99535252,-0.14,-0.18,-0.58
99537252,-0.14,-0.18,-0.58
99539246,-0.14,-0.18,-0.58
99541266,-0.14,-0.18,-0.58
99543255,-0.14,-0.17,-0.53
99545271,-0.14,-0.17,-0.53
99547280,-0.14,-0.17,-0.53
99549257,-0.14,-0.17,-0.53
99551213,-0.14,-0.17,-0.53
99553211,-0.15,-0.17,-0.48
99555210,-0.15,-0.17,-0.48
99557210,-0.15,-0.17,-0.48
99559211,-0.15,-0.17,-0.48
99561227,-0.15,-0.17,-0.48
99563212,-0.16,-0.15,-0.46
99565235,-0.16,-0.15,-0.46
99567211,-0.16,-0.15,-0.46
99569219,-0.16,-0.15,-0.46
99571306,-0.16,-0.15,-0.46
99573265,-0.17,-0.14,-0.50
99575262,-0.17,-0.14,-0.50
99577250,-0.17,-0.14,-0.50
99579249,-0.17,-0.14,-0.50
99581251,-0.17,-0.14,-0.50
99583249,-0.17,-0.14,-0.50
99585255,-0.18,-0.11,-0.52
99587250,-0.18,-0.11,-0.52
99589207,-0.18,-0.11,-0.52
99591235,-0.18,-0.11,-0.52
99593213,-0.18,-0.11,-0.52
99595210,-0.19,-0.12,-0.49
99597208,-0.19,-0.12,-0.49
99599208,-0.19,-0.12,-0.49
99601208,-0.19,-0.12,-0.49
99603206,-0.19,-0.12,-0.49
99605207,-0.21,-0.11,-0.50
99607208,-0.21,-0.11,-0.50
99609205,-0.21,-0.11,-0.50
99611206,-0.21,-0.11,-0.50
99613252,-0.21,-0.11,-0.50
99615268,-0.23,-0.09,-0.54
99617249,-0.23,-0.09,-0.54
99619246,-0.23,-0.09,-0.54
99621248,-0.23,-0.09,-0.54
99623248,-0.23,-0.09,-0.54
99625218,-0.25,-0.14,-0.58
99627208,-0.25,-0.14,-0.58
99629206,-0.25,-0.14,-0.58
99631210,-0.25,-0.14,-0.58
99633207,-0.25,-0.14,-0.58
99635210,-0.28,-0.12,-0.60
99637219,-0.28,-0.12,-0.60
99639212,-0.28,-0.12,-0.60
99641229,-0.28,-0.12,-0.60
99643210,-0.28,-0.12,-0.60
99645207,-0.32,-0.18,-0.62
99647208,-0.32,-0.18,-0.62
99649251,-0.32,-0.18,-0.62
99651212,-0.32,-0.18,-0.62
99653254,-0.32,-0.18,-0.62
99655248,-0.38,-0.24,-0.65
99657252,-0.38,-0.24,-0.65
99659258,-0.38,-0.24,-0.65
99661274,-0.38,-0.24,-0.65
99663276,-0.38,-0.24,-0.65
99665273,-0.38,-0.24,-0.65
99667250,-0.41,-0.20,-0.73
99669212,-0.41,-0.20,-0.73
99671207,-0.41,-0.20,-0.73
99673209,-0.41,-0.20,-0.73
99675208,-0.41,-0.20,-0.73
99677211,-0.43,-0.20,-0.89
99679211,-0.43,-0.20,-0.89
99681231,-0.43,-0.20,-0.89
99683217,-0.43,-0.20,-0.89
99685276,-0.43,-0.20,-0.89
99687254,-0.43,-0.14,-1.01
99689212,-0.43,-0.14,-1.01
99691240,-0.43,-0.14,-1.01
99693274,-0.43,-0.14,-1.01
99695261,-0.43,-0.14,-1.01
99697275,-0.43,-0.03,-0.95
99699274,-0.43,-0.03,-0.95
99701252,-0.43,-0.03,-0.95
99703248,-0.43,-0.03,-0.95
99705249,-0.43,-0.03,-0.95
99707248,-0.42,-0.02,-0.81
99709211,-0.42,-0.02,-0.81
99711211,-0.42,-0.02,-0.81
99713207,-0.42,-0.02,-0.81
99715234,-0.42,-0.02,-0.81
99717207,-0.47,-0.12,-0.74
99719212,-0.47,-0.12,-0.74
99721207,-0.47,-0.12,-0.74
99723205,-0.47,-0.12,-0.74
99725205,-0.47,-0.12,-0.74
99727272,-0.56,-0.14,-0.82
99729254,-0.56,-0.14,-0.82
99731212,-0.56,-0.14,-0.82
99733254,-0.56,-0.14,-0.82
99735253,-0.56,-0.14,-0.82
99737256,-0.63,-0.20,-1.06
99739275,-0.63,-0.20,-1.06
99741283,-0.63,-0.20,-1.06
99743250,-0.63,-0.20,-1.06
99745252,-0.63,-0.20,-1.06
99747249,-0.63,-0.20,-1.06
99749208,-0.71,-0.29,-1.19
99751283,-0.71,-0.29,-1.19
99753286,-0.71,-0.29,-1.19
99755238,-0.71,-0.29,-1.19
99757211,-0.71,-0.29,-1.19
99759216,-0.75,-0.41,-1.15
99761249,-0.75,-0.41,-1.15
99763254,-0.75,-0.41,-1.15
99765230,-0.75,-0.41,-1.15
99767206,-0.75,-0.41,-1.15
99769207,-0.77,-0.57,-1.22
99771205,-0.77,-0.57,-1.22
99773278,-0.77,-0.57,-1.22
99775313,-0.77,-0.57,-1.22
99777255,-0.77,-0.57,-1.22
99779267,-0.75,-0.58,-1.45
99781298,-0.75,-0.58,-1.45
99783258,-0.75,-0.58,-1.45
99785251,-0.75,-0.58,-1.45
99787271,-0.75,-0.58,-1.45
99789281,-0.67,-0.44,-1.56
99791300,-0.67,-0.44,-1.56
99793247,-0.67,-0.44,-1.56
99795210,-0.67,-0.44,-1.56
99797203,-0.67,-0.44,-1.56
99799276,-0.57,-0.13,-1.36
99801228,-0.57,-0.13,-1.36
99803204,-0.57,-0.13,-1.36
99805210,-0.57,-0.13,-1.36
99807254,-0.57,-0.13,-1.36
99809214,-0.48,0.07,-1.06
99811224,-0.48,0.07,-1.06
99813264,-0.48,0.07,-1.06
99815278,-0.48,0.07,-1.06
99817247,-0.48,0.07,-1.06
99819245,-0.39,0.21,-0.93
99821255,-0.39,0.21,-0.93
99823273,-0.39,0.21,-0.93
99825262,-0.39,0.21,-0.93
99827249,-0.39,0.21,-0.93
99829229,-0.33,0.35,-0.93
99831219,-0.33,0.35,-0.93
99833282,-0.33,0.35,-0.93
99835232,-0.33,0.35,-0.93
99837203,-0.33,0.35,-0.93
99839203,-0.33,0.35,-0.93
99841285,-0.32,0.34,-0.86
99843228,-0.32,0.34,-0.86
99845202,-0.32,0.34,-0.86
99847202,-0.32,0.34,-0.86
99849203,-0.32,0.34,-0.86
99851202,-0.34,0.14,-0.80
99853267,-0.34,0.14,-0.80
99855274,-0.34,0.14,-0.80
99857246,-0.34,0.14,-0.80
99859260,-0.34,0.14,-0.80
99861315,-0.37,0.01,-0.88
99863259,-0.37,0.01,-0.88
99865272,-0.37,0.01,-0.88
99867246,-0.37,0.01,-0.88
99869245,-0.37,0.01,-0.88
99871203,-0.41,-0.12,-1.02
99873204,-0.41,-0.12,-1.02
99875206,-0.41,-0.12,-1.02
99877311,-0.41,-0.12,-1.02
99879232,-0.41,-0.12,-1.02
99881205,-0.43,-0.30,-1.11
99883205,-0.43,-0.30,-1.11
99885236,-0.43,-0.30,-1.11
99887273,-0.43,-0.30,-1.11
99889203,-0.43,-0.30,-1.11
99891235,-0.43,-0.36,-1.09
99893268,-0.43,-0.36,-1.09
99895250,-0.43,-0.36,-1.09
99897254,-0.43,-0.36,-1.09
99899277,-0.43,-0.36,-1.09
99901283,-0.41,-0.35,-1.01
99903253,-0.41,-0.35,-1.01
99905252,-0.41,-0.35,-1.01
99907244,-0.41,-0.35,-1.01
99909255,-0.41,-0.35,-1.01
99911294,-0.38,-0.31,-0.91
99913233,-0.38,-0.31,-0.91
99915195,-0.38,-0.31,-0.91
99917205,-0.38,-0.31,-0.91
99919231,-0.38,-0.31,-0.91
99921251,-0.38,-0.31,-0.91
99923202,-0.34,-0.25,-0.84
99925195,-0.34,-0.25,-0.84
99927202,-0.34,-0.25,-0.84
99929202,-0.34,-0.25,-0.84
99931195,-0.34,-0.25,-0.84
99933268,-0.31,-0.22,-0.85
99935247,-0.31,-0.22,-0.85
99937245,-0.31,-0.22,-0.85
99939247,-0.31,-0.22,-0.85
99941268,-0.31,-0.22,-0.85
99943253,-0.27,-0.15,-0.88
99945243,-0.27,-0.15,-0.88
99947203,-0.27,-0.15,-0.88
99949204,-0.27,-0.15,-0.88
99951202,-0.27,-0.15,-0.88
99953204,-0.25,-0.16,-0.85
99955216,-0.25,-0.16,-0.85
99957245,-0.25,-0.16,-0.85
99959195,-0.25,-0.16,-0.85
99961221,-0.25,-0.16,-0.85
99963206,-0.22,-0.20,-0.79
99965227,-0.22,-0.20,-0.79
99967203,-0.22,-0.20,-0.79
99969206,-0.22,-0.20,-0.79
99971201,-0.22,-0.20,-0.79
99973256,-0.20,-0.20,-0.75
99975322,-0.20,-0.20,-0.75
99977261,-0.20,-0.20,-0.75
99979255,-0.20,-0.20,-0.75
99981251,-0.20,-0.20,-0.75
99983245,-0.19,-0.21,-0.75
99985253,-0.19,-0.21,-0.75
99987274,-0.19,-0.21,-0.75
99989274,-0.19,-0.21,-0.75
99991256,-0.19,-0.21,-0.75
99993206,-0.18,-0.19,-0.74
99995216,-0.18,-0.19,-0.74
99997287,-0.18,-0.19,-0.74
99999230,-0.18,-0.19,-0.74
100001205,-0.18,-0.19,-0.74
100003204,-0.18,-0.19,-0.74
100005203,-0.18,-0.21,-0.74
100007194,-0.18,-0.21,-0.74
100009206,-0.18,-0.21,-0.74
100011194,-0.18,-0.21,-0.74
100013257,-0.18,-0.21,-0.74
100015274,-0.18,-0.23,-0.74
100017247,-0.18,-0.23,-0.74
100019244,-0.18,-0.23,-0.74
100021248,-0.18,-0.23,-0.74
100023248,-0.18,-0.23,-0.74
100025299,-0.18,-0.21,-0.72
100027229,-0.18,-0.21,-0.72
100029195,-0.18,-0.21,-0.72
100031202,-0.18,-0.21,-0.72
100033202,-0.18,-0.21,-0.72
100035210,-0.17,-0.18,-0.70
100037251,-0.17,-0.18,-0.70
100039201,-0.17,-0.18,-0.70
100041239,-0.17,-0.18,-0.70
100043202,-0.17,-0.18,-0.70
100045204,-0.17,-0.14,-0.70
100047202,-0.17,-0.14,-0.70
100049202,-0.17,-0.14,-0.70
100051194,-0.17,-0.14,-0.70
100053272,-0.17,-0.14,-0.70
100055249,-0.18,-0.11,-0.70
100057252,-0.18,-0.11,-0.70
100059271,-0.18,-0.11,-0.70
100061253,-0.18,-0.11,-0.70
100063279,-0.18,-0.11,-0.70
100065315,-0.21,-0.13,-0.68
100067263,-0.21,-0.13,-0.68
100069244,-0.21,-0.13,-0.68
100071205,-0.21,-0.13,-0.68
100073218,-0.21,-0.13,-0.68
100075271,-0.24,-0.19,-0.62
100077220,-0.24,-0.19,-0.62
100079203,-0.24,-0.19,-0.62
100081214,-0.24,-0.19,-0.62
100083247,-0.24,-0.19,-0.62
100085205,-0.24,-0.19,-0.62
100087206,-0.29,-0.18,-0.61
100089241,-0.29,-0.18,-0.61
100091240,-0.29,-0.18,-0.61
100093268,-0.29,-0.18,-0.61
100095249,-0.29,-0.18,-0.61
100097243,-0.32,-0.13,-0.62
100099241,-0.32,-0.13,-0.62
100101245,-0.32,-0.13,-0.62
100103247,-0.32,-0.13,-0.62
100105244,-0.32,-0.13,-0.62
100107212,-0.37,-0.11,-0.68
100109206,-0.37,-0.11,-0.68
100111206,-0.37,-0.11,-0.68
100113203,-0.37,-0.11,-0.68
100115230,-0.37,-0.11,-0.68
100117206,-0.45,-0.00,-0.74
100119229,-0.45,-0.00,-0.74
100121281,-0.45,-0.00,-0.74
100123229,-0.45,-0.00,-0.74
100125204,-0.45,-0.00,-0.74
100127204,-0.54,0.14,-0.84
100129194,-0.54,0.14,-0.84
100131258,-0.54,0.14,-0.84
100133296,-0.54,0.14,-0.84
100135251,-0.54,0.14,-0.84
100137247,-0.65,0.29,-1.02
100139278,-0.65,0.29,-1.02
100141384,-0.65,0.29,-1.02
100143251,-0.65,0.29,-1.02
100145247,-0.65,0.29,-1.02
100147248,-0.73,0.48,-1.11
100149242,-0.73,0.48,-1.11
100151205,-0.73,0.48,-1.11
100153241,-0.73,0.48,-1.11
100155329,-0.73,0.48,-1.11
100157236,-0.77,0.42,-1.01
100159208,-0.77,0.42,-1.01
100161225,-0.77,0.42,-1.01
100163245,-0.77,0.42,-1.01
100165348,-0.77,0.42,-1.01
100167248,-0.86,0.12,-0.90
100169202,-0.86,0.12,-0.90
100171205,-0.86,0.12,-0.90
100173266,-0.86,0.12,-0.90
100175248,-0.86,0.12,-0.90
100177246,-0.86,0.12,-0.90
100179266,-0.96,0.02,-1.03
100181277,-0.96,0.02,-1.03
100183251,-0.96,0.02,-1.03
100185249,-0.96,0.02,-1.03
100187267,-0.96,0.02,-1.03
100189276,-1.07,-0.11,-1.39
100191377,-1.07,-0.11,-1.39
100193212,-1.07,-0.11,-1.39
100195205,-1.07,-0.11,-1.39
100197211,-1.07,-0.11,-1.39
100199205,-1.11,-0.30,-1.66
100201207,-1.11,-0.30,-1.66
100203207,-1.11,-0.30,-1.66
100205212,-1.11,-0.30,-1.66
100207207,-1.11,-0.30,-1.66
100209277,-1.07,-0.41,-1.68
100211244,-1.07,-0.41,-1.68
100213263,-1.07,-0.41,-1.68
100215348,-1.07,-0.41,-1.68
100217256,-1.07,-0.41,-1.68
100219270,-1.00,-0.49,-1.57
100221263,-1.00,-0.49,-1.57
100223247,-1.00,-0.49,-1.57
100225249,-1.00,-0.49,-1.57
100227244,-1.00,-0.49,-1.57
100229204,-0.86,-0.45,-1.42
100231204,-0.86,-0.45,-1.42
100233205,-0.86,-0.45,-1.42
100235206,-0.86,-0.45,-1.42
100237204,-0.86,-0.45,-1.42
100239204,-0.71,-0.30,-1.23
100241309,-0.71,-0.30,-1.23
100243208,-0.71,-0.30,-1.23
100245207,-0.71,-0.30,-1.23
100247205,-0.71,-0.30,-1.23
100249206,-0.58,-0.24,-1.01
100251210,-0.58,-0.24,-1.01
100253270,-0.58,-0.24,-1.01
100255304,-0.58,-0.24,-1.01
100257265,-0.58,-0.24,-1.01
100259251,-0.58,-0.24,-1.01
100261251,-0.47,-0.23,-0.80
100263271,-0.47,-0.23,-0.80
100265357,-0.47,-0.23,-0.80
100267254,-0.47,-0.23,-0.80
100269246,-0.47,-0.23,-0.80
100271212,-0.37,-0.22,-0.70
100273206,-0.37,-0.22,-0.70
100275243,-0.37,-0.22,-0.70
100277313,-0.37,-0.22,-0.70
100279229,-0.37,-0.22,-0.70
100281204,-0.30,-0.22,-0.64
100283205,-0.30,-0.22,-0.64
100285207,-0.30,-0.22,-0.64
100287248,-0.30,-0.22,-0.64
100289206,-0.30,-0.22,-0.64
100291349,-0.25,-0.22,-0.60
100293311,-0.25,-0.22,-0.60
100295254,-0.25,-0.22,-0.60
100297248,-0.25,-0.22,-0.60
100299264,-0.25,-0.22,-0.60
100301281,-0.22,-0.25,-0.59
100303252,-0.22,-0.25,-0.59
100305250,-0.22,-0.25,-0.59
100307245,-0.22,-0.25,-0.59
100309246,-0.22,-0.25,-0.59
100311204,-0.20,-0.29,-0.60
100313204,-0.20,-0.29,-0.60
100315309,-0.20,-0.29,-0.60
100317221,-0.20,-0.29,-0.60
100319206,-0.20,-0.29,-0.60
100321205,-0.18,-0.30,-0.61
100323241,-0.18,-0.30,-0.61
100325313,-0.18,-0.30,-0.61
100327232,-0.18,-0.30,-0.61
100329206,-0.18,-0.30,-0.61
100331201,-0.18,-0.31,-0.64
100333254,-0.18,-0.31,-0.64
100335247,-0.18,-0.31,-0.64
100337264,-0.18,-0.31,-0.64
100339269,-0.18,-0.31,-0.64
100341364,-0.19,-0.32,-0.67
100343247,-0.19,-0.32,-0.67
100345247,-0.19,-0.32,-0.67
100347285,-0.19,-0.32,-0.67
100349270,-0.19,-0.32,-0.67
100351242,-0.19,-0.32,-0.67
100353207,-0.19,-0.32,-0.69
100355206,-0.19,-0.32,-0.69
100357211,-0.19,-0.32,-0.69
100359269,-0.19,-0.32,-0.69
100361251,-0.19,-0.32,-0.69
100363206,-0.20,-0.33,-0.68
100365311,-0.20,-0.33,-0.68
100367248,-0.20,-0.33,-0.68
100369261,-0.20,-0.33,-0.68
100371237,-0.20,-0.33,-0.68
100373267,-0.21,-0.33,-0.66
100375250,-0.21,-0.33,-0.66
100377246,-0.21,-0.33,-0.66
100379273,-0.21,-0.33,-0.66
100381281,-0.21,-0.33,-0.66
100383252,-0.22,-0.34,-0.70
100385248,-0.22,-0.34,-0.70
100387244,-0.22,-0.34,-0.70
100389207,-0.22,-0.34,-0.70
100391395,-0.22,-0.34,-0.70
100393230,-0.23,-0.32,-0.75
100395243,-0.23,-0.32,-0.75
100397195,-0.23,-0.32,-0.75
100399207,-0.23,-0.32,-0.75
100401258,-0.23,-0.32,-0.75
100403205,-0.24,-0.30,-0.76
100405194,-0.24,-0.30,-0.76
100407203,-0.24,-0.30,-0.76
100409195,-0.24,-0.30,-0.76
100411195,-0.24,-0.30,-0.76
100413268,-0.25,-0.29,-0.75
100415352,-0.25,-0.29,-0.75
100417252,-0.25,-0.29,-0.75
100419245,-0.25,-0.29,-0.75
100421253,-0.25,-0.29,-0.75
100423325,-0.25,-0.25,-0.72
100425255,-0.25,-0.25,-0.72
100427252,-0.25,-0.25,-0.72
100429242,-0.25,-0.25,-0.72
100431222,-0.25,-0.25,-0.72
100433281,-0.25,-0.25,-0.72
100435220,-0.25,-0.25,-0.69
100437205,-0.25,-0.25,-0.69
100439203,-0.25,-0.25,-0.69
100441313,-0.25,-0.25,-0.69
100443205,-0.25,-0.25,-0.69
100445234,-0.25,-0.23,-0.70
100447258,-0.25,-0.23,-0.70
100449203,-0.25,-0.23,-0.70
100451203,-0.25,-0.23,-0.70
100453273,-0.25,-0.23,-0.70
100455252,-0.25,-0.23,-0.71
100457252,-0.25,-0.23,-0.71
100459252,-0.25,-0.23,-0.71
100461251,-0.25,-0.23,-0.71
100463246,-0.25,-0.23,-0.71
100465360,-0.25,-0.23,-0.71
100467272,-0.25,-0.23,-0.71
100469247,-0.25,-0.23,-0.71
100471204,-0.25,-0.23,-0.71
100473204,-0.25,-0.23,-0.71
100475204,-0.24,-0.21,-0.69
100477213,-0.24,-0.21,-0.69
100479256,-0.24,-0.21,-0.69
100481203,-0.24,-0.21,-0.69
100483203,-0.24,-0.21,-0.69
100485204,-0.25,-0.23,-0.68
100487195,-0.25,-0.23,-0.68
100489194,-0.25,-0.23,-0.68
100491304,-0.25,-0.23,-0.68
100493276,-0.25,-0.23,-0.68
100495278,-0.24,-0.22,-0.69
100497248,-0.24,-0.22,-0.69
100499248,-0.24,-0.22,-0.69
100501244,-0.24,-0.22,-0.69
100503251,-0.24,-0.22,-0.69
100505304,-0.26,-0.21,-0.72
100507261,-0.26,-0.21,-0.72
100509246,-0.26,-0.21,-0.72
100511211,-0.26,-0.21,-0.72
100513203,-0.26,-0.21,-0.72
100515300,-0.26,-0.21,-0.72
100517221,-0.29,-0.22,-0.70
100519276,-0.29,-0.22,-0.70
100521220,-0.29,-0.22,-0.70
100523204,-0.29,-0.22,-0.70
100525204,-0.29,-0.22,-0.70
100527195,-0.34,-0.14,-0.70
100529202,-0.34,-0.14,-0.70
100531194,-0.34,-0.14,-0.70
100533268,-0.34,-0.14,-0.70
100535248,-0.34,-0.14,-0.70
100537255,-0.41,-0.10,-0.82
100539246,-0.41,-0.10,-0.82
100541342,-0.41,-0.10,-0.82
100543250,-0.41,-0.10,-0.82
100545229,-0.41,-0.10,-0.82
100547204,-0.46,-0.12,-0.99
100549208,-0.46,-0.12,-0.99
100551202,-0.46,-0.12,-0.99
100553207,-0.46,-0.12,-0.99
100555205,-0.46,-0.12,-0.99
100557206,-0.49,-0.12,-1.06
100559206,-0.49,-0.12,-1.06
100561224,-0.49,-0.12,-1.06
100563205,-0.49,-0.12,-1.06
100565280,-0.49,-0.12,-1.06
100567213,-0.51,-0.24,-1.03
100569236,-0.51,-0.24,-1.03
100571284,-0.51,-0.24,-1.03
100573274,-0.51,-0.24,-1.03
100575253,-0.51,-0.24,-1.03
100577251,-0.54,-0.23,-0.91
100579245,-0.54,-0.23,-0.91
100581253,-0.54,-0.23,-0.91
100583284,-0.54,-0.23,-0.91
100585254,-0.54,-0.23,-0.91
100587263,-0.52,-0.24,-0.88
100589244,-0.52,-0.24,-0.88
100591311,-0.52,-0.24,-0.88
100593208,-0.52,-0.24,-0.88
100595242,-0.52,-0.24,-0.88
100597205,-0.52,-0.24,-0.88
100599214,-0.54,-0.26,-0.96
100601317,-0.54,-0.26,-0.96
100603233,-0.54,-0.26,-0.96
100605204,-0.54,-0.26,-0.96
100607202,-0.54,-0.26,-0.96
100609205,-0.54,-0.23,-0.92
100611206,-0.54,-0.23,-0.92
100613254,-0.54,-0.23,-0.92
100615350,-0.54,-0.23,-0.92
100617252,-0.54,-0.23,-0.92
100619247,-0.57,-0.34,-0.82
100621245,-0.57,-0.34,-0.82
100623245,-0.57,-0.34,-0.82
100625204,-0.57,-0.34,-0.82
100627203,-0.57,-0.34,-0.82
100629204,-0.57,-0.44,-0.76
100631313,-0.57,-0.44,-0.76
100633229,-0.57,-0.44,-0.76
100635208,-0.57,-0.44,-0.76
100637207,-0.57,-0.44,-0.76
100639206,-0.58,-0.48,-0.87
100641332,-0.58,-0.48,-0.87
100643255,-0.58,-0.48,-0.87
100645211,-0.58,-0.48,-0.87
100647204,-0.58,-0.48,-0.87
100649205,-0.57,-0.51,-1.09
100651205,-0.57,-0.51,-1.09
100653266,-0.57,-0.51,-1.09
100655247,-0.57,-0.51,-1.09
100657246,-0.57,-0.51,-1.09
100659270,-0.55,-0.59,-1.29
100661274,-0.55,-0.59,-1.29
100663255,-0.55,-0.59,-1.29
100665350,-0.55,-0.59,-1.29
100667248,-0.55,-0.59,-1.29
100669252,-0.52,-0.57,-1.29
100671272,-0.52,-0.57,-1.29
100673244,-0.52,-0.57,-1.29
100675203,-0.52,-0.57,-1.29
100677203,-0.52,-0.57,-1.29
100679205,-0.52,-0.57,-1.29
100681195,-0.47,-0.36,-1.20
100683207,-0.47,-0.36,-1.20
100685205,-0.47,-0.36,-1.20
100687205,-0.47,-0.36,-1.20
100689194,-0.47,-0.36,-1.20
100691356,-0.44,-0.10,-1.12
100693301,-0.44,-0.10,-1.12
100695277,-0.44,-0.10,-1.12
100697247,-0.44,-0.10,-1.12
100699272,-0.44,-0.10,-1.12
100701276,-0.41,0.04,-1.14
100703253,-0.41,0.04,-1.14
100705247,-0.41,0.04,-1.14
100707256,-0.41,0.04,-1.14
100709266,-0.41,0.04,-1.14
100711259,-0.39,0.05,-1.16
100713212,-0.39,0.05,-1.16
100715305,-0.39,0.05,-1.16
100717222,-0.39,0.05,-1.16
100719284,-0.39,0.05,-1.16
100721232,-0.39,-0.07,-1.12
100723204,-0.39,-0.07,-1.12
100725203,-0.39,-0.07,-1.12
100727237,-0.39,-0.07,-1.12
100729250,-0.39,-0.07,-1.12
100731205,-0.38,-0.23,-1.09
100733267,-0.38,-0.23,-1.09
100735248,-0.38,-0.23,-1.09
100737245,-0.38,-0.23,-1.09
100739246,-0.38,-0.23,-1.09
100741370,-0.36,-0.34,-1.07
100743272,-0.36,-0.34,-1.07
100745281,-0.36,-0.34,-1.07
100747253,-0.36,-0.34,-1.07
100749250,-0.36,-0.34,-1.07
100751206,-0.34,-0.37,-1.05
100753202,-0.34,-0.37,-1.05
100755218,-0.34,-0.37,-1.05
100757279,-0.34,-0.37,-1.05
100759224,-0.34,-0.37,-1.05
100761225,-0.34,-0.37,-1.05
100763203,-0.30,-0.38,-1.03
100765299,-0.30,-0.38,-1.03
100767212,-0.30,-0.38,-1.03
100769223,-0.30,-0.38,-1.03
100771258,-0.30,-0.38,-1.03
100773263,-0.26,-0.39,-0.96
100775339,-0.26,-0.39,-0.96
100777251,-0.26,-0.39,-0.96
100779244,-0.26,-0.39,-0.96
100781282,-0.26,-0.39,-0.96
100783280,-0.23,-0.36,-0.82
100785251,-0.23,-0.36,-0.82
100787250,-0.23,-0.36,-0.82
100789243,-0.23,-0.36,-0.82
100791322,-0.23,-0.36,-0.82
100793209,-0.21,-0.32,-0.74
100795243,-0.21,-0.32,-0.74
100797194,-0.21,-0.32,-0.74
100799213,-0.21,-0.32,-0.74
100801325,-0.21,-0.32,-0.74
100803226,-0.17,-0.25,-0.74
100805201,-0.17,-0.25,-0.74
100807202,-0.17,-0.25,-0.74
100809213,-0.17,-0.25,-0.74
100811255,-0.17,-0.25,-0.74
100813268,-0.14,-0.15,-0.76
100815354,-0.14,-0.15,-0.76
100817253,-0.14,-0.15,-0.76
100819252,-0.14,-0.15,-0.76
100821272,-0.14,-0.15,-0.76
100823259,-0.13,-0.18,-0.73
100825244,-0.13,-0.18,-0.73
100827243,-0.13,-0.18,-0.73
100829234,-0.13,-0.18,-0.73
100831205,-0.13,-0.18,-0.73
100833205,-0.13,-0.26,-0.62
100835205,-0.13,-0.26,-0.62
100837206,-0.13,-0.26,-0.62
100839205,-0.13,-0.26,-0.62
100841310,-0.13,-0.26,-0.62
100843205,-0.14,-0.30,-0.57
100845267,-0.14,-0.30,-0.57
100847260,-0.14,-0.30,-0.57
100849204,-0.14,-0.30,-0.57
100851205,-0.14,-0.30,-0.57
100853256,-0.14,-0.30,-0.57
100855248,-0.15,-0.33,-0.65
100857276,-0.15,-0.33,-0.65
100859258,-0.15,-0.33,-0.65
100861253,-0.15,-0.33,-0.65
100863246,-0.15,-0.33,-0.65
100865345,-0.17,-0.34,-0.74
100867248,-0.17,-0.34,-0.74
100869207,-0.17,-0.34,-0.74
100871204,-0.17,-0.34,-0.74
100873204,-0.17,-0.34,-0.74
100875210,-0.18,-0.34,-0.76
100877228,-0.18,-0.34,-0.76
100879250,-0.18,-0.34,-0.76
100881309,-0.18,-0.34,-0.76
100883229,-0.18,-0.34,-0.76
100885195,-0.19,-0.34,-0.75
100887202,-0.19,-0.34,-0.75
100889206,-0.19,-0.34,-0.75
100891351,-0.19,-0.34,-0.75
100893287,-0.19,-0.34,-0.75
100895280,-0.18,-0.31,-0.72
100897245,-0.18,-0.31,-0.72
100899257,-0.18,-0.31,-0.72
100901266,-0.18,-0.31,-0.72
100903258,-0.18,-0.31,-0.72
100905244,-0.19,-0.27,-0.69
100907245,-0.19,-0.27,-0.69
100909243,-0.19,-0.27,-0.69
100911204,-0.19,-0.27,-0.69
100913204,-0.19,-0.27,-0.69
100915301,-0.17,-0.20,-0.69
100917221,-0.17,-0.20,-0.69
100919204,-0.17,-0.20,-0.69
100921207,-0.17,-0.20,-0.69
100923204,-0.17,-0.20,-0.69
100925204,-0.17,-0.17,-0.70
100927214,-0.17,-0.17,-0.70
100929205,-0.17,-0.17,-0.70
100931205,-0.17,-0.17,-0.70
100933248,-0.17,-0.17,-0.70
100935245,-0.17,-0.17,-0.70
100937282,-0.18,-0.20,-0.67
100939275,-0.18,-0.20,-0.67
100941345,-0.18,-0.20,-0.67
100943248,-0.18,-0.20,-0.67
100945247,-0.18,-0.20,-0.67
100947243,-0.20,-0.19,-0.62
100949220,-0.20,-0.19,-0.62
100951271,-0.20,-0.19,-0.62
100953219,-0.20,-0.19,-0.62
100955207,-0.20,-0.19,-0.62
100957219,-0.21,-0.19,-0.60
100959221,-0.21,-0.19,-0.60
100961254,-0.21,-0.19,-0.60
100963194,-0.21,-0.19,-0.60
100965297,-0.21,-0.19,-0.60
100967210,-0.24,-0.20,-0.64
100969210,-0.24,-0.20,-0.64
100971203,-0.24,-0.20,-0.64
100973275,-0.24,-0.20,-0.64
100975249,-0.24,-0.20,-0.64
100977246,-0.27,-0.19,-0.66
100979249,-0.27,-0.19,-0.66
100981297,-0.27,-0.19,-0.66
100983309,-0.27,-0.19,-0.66
100985264,-0.27,-0.19,-0.66
100987244,-0.31,-0.21,-0.72
100989242,-0.31,-0.21,-0.72
100991319,-0.31,-0.21,-0.72
100993285,-0.31,-0.21,-0.72
100995252,-0.31,-0.21,-0.72
100997208,-0.37,-0.20,-0.74
100999203,-0.37,-0.20,-0.74
101001221,-0.37,-0.20,-0.74
101003254,-0.37,-0.20,-0.74
101005206,-0.37,-0.20,-0.74
101007202,-0.42,-0.12,-0.77
101009207,-0.42,-0.12,-0.77
101011202,-0.42,-0.12,-0.77
101013273,-0.42,-0.12,-0.77
101015350,-0.42,-0.12,-0.77
101017251,-0.42,-0.12,-0.77
101019276,-0.47,-0.09,-0.84
101021278,-0.47,-0.09,-0.84
101023252,-0.47,-0.09,-0.84
101025244,-0.47,-0.09,-0.84
101027247,-0.47,-0.09,-0.84
101029249,-0.53,-0.07,-0.90
101031278,-0.53,-0.07,-0.90
101033223,-0.53,-0.07,-0.90
101035208,-0.53,-0.07,-0.90
101037215,-0.53,-0.07,-0.90
101039206,-0.58,-0.04,-1.00
101041334,-0.58,-0.04,-1.00
101043254,-0.58,-0.04,-1.00
101045205,-0.58,-0.04,-1.00
101047195,-0.58,-0.04,-1.00
101049195,-0.64,-0.06,-1.11
101051202,-0.64,-0.06,-1.11
101053265,-0.64,-0.06,-1.11
101055248,-0.64,-0.06,-1.11
101057257,-0.64,-0.06,-1.11
101059251,-0.68,-0.08,-1.13
101061255,-0.68,-0.08,-1.13
101063274,-0.68,-0.08,-1.13
101065355,-0.68,-0.08,-1.13
101067251,-0.68,-0.08,-1.13
101069247,-0.71,-0.14,-1.09
101071210,-0.71,-0.14,-1.09
101073204,-0.71,-0.14,-1.09
101075203,-0.71,-0.14,-1.09
101077210,-0.71,-0.14,-1.09
101079207,-0.73,-0.09,-1.05
101081220,-0.73,-0.09,-1.05
101083276,-0.73,-0.09,-1.05
101085249,-0.73,-0.09,-1.05
101087201,-0.73,-0.09,-1.05
101089195,-0.74,-0.01,-1.09
101091308,-0.74,-0.01,-1.09
101093272,-0.74,-0.01,-1.09
101095299,-0.74,-0.01,-1.09
101097257,-0.74,-0.01,-1.09
101099245,-0.76,0.06,-1.16
101101264,-0.76,0.06,-1.16
101103272,-0.76,0.06,-1.16
101105257,-0.76,0.06,-1.16
101107243,-0.76,0.06,-1.16
101109243,-0.76,0.06,-1.16
101111247,-0.79,0.12,-1.22
101113315,-0.79,0.12,-1.22
101115335,-0.79,0.12,-1.22
101117210,-0.79,0.12,-1.22
101119204,-0.79,0.12,-1.22
101121225,-0.80,0.05,-1.29
101123254,-0.80,0.05,-1.29
101125210,-0.80,0.05,-1.29
101127204,-0.80,0.05,-1.29
101129205,-0.80,0.05,-1.29
101131202,-0.81,-0.14,-1.35
101133270,-0.81,-0.14,-1.35
101135249,-0.81,-0.14,-1.35
101137245,-0.81,-0.14,-1.35
101139247,-0.81,-0.14,-1.35
101141343,-0.79,-0.33,-1.36
101143248,-0.79,-0.33,-1.36
101145247,-0.79,-0.33,-1.36
101147207,-0.79,-0.33,-1.36
101149204,-0.79,-0.33,-1.36
101151207,-0.72,-0.42,-1.29
101153203,-0.72,-0.42,-1.29
101155207,-0.72,-0.42,-1.29
101157203,-0.72,-0.42,-1.29
101159209,-0.72,-0.42,-1.29
101161224,-0.62,-0.41,-1.18
101163203,-0.62,-0.41,-1.18
101165281,-0.62,-0.41,-1.18
101167210,-0.62,-0.41,-1.18
101169205,-0.62,-0.41,-1.18
101171204,-0.51,-0.34,-1.04
101173249,-0.51,-0.34,-1.04
101175243,-0.51,-0.34,-1.04
101177251,-0.51,-0.34,-1.04
101179324,-0.51,-0.34,-1.04
101181262,-0.40,-0.33,-0.91
101183255,-0.40,-0.33,-0.91
101185253,-0.40,-0.33,-0.91
101187252,-0.40,-0.33,-0.91
101189220,-0.40,-0.33,-0.91
101191351,-0.40,-0.33,-0.91
101193218,-0.30,-0.34,-0.78
101195282,-0.30,-0.34,-0.78
101197247,-0.30,-0.34,-0.78
101199210,-0.30,-0.34,-0.78
101201203,-0.30,-0.34,-0.78
101203202,-0.23,-0.31,-0.71
101205203,-0.23,-0.31,-0.71
101207206,-0.23,-0.31,-0.71
101209204,-0.23,-0.31,-0.71
101211203,-0.23,-0.31,-0.71
101213257,-0.17,-0.28,-0.68
101215356,-0.17,-0.28,-0.68
101217292,-0.17,-0.28,-0.68
101219274,-0.17,-0.28,-0.68
101221247,-0.17,-0.28,-0.68
101223244,-0.14,-0.26,-0.68
101225249,-0.14,-0.26,-0.68
101227338,-0.14,-0.26,-0.68
101229258,-0.14,-0.26,-0.68
101231207,-0.14,-0.26,-0.68
101233205,-0.10,-0.26,-0.67
101235215,-0.10,-0.26,-0.67
101237277,-0.10,-0.26,-0.67
101239217,-0.10,-0.26,-0.67
101241316,-0.10,-0.26,-0.67
101243236,-0.09,-0.25,-0.64
101245255,-0.09,-0.25,-0.64
101247209,-0.09,-0.25,-0.64
101249205,-0.09,-0.25,-0.64
101251202,-0.09,-0.25,-0.64
101253268,-0.10,-0.27,-0.64
101255248,-0.10,-0.27,-0.64
101257245,-0.10,-0.27,-0.64
101259267,-0.10,-0.27,-0.64
101261276,-0.10,-0.27,-0.64
101263252,-0.12,-0.29,-0.66
101265349,-0.12,-0.29,-0.66
101267249,-0.12,-0.29,-0.66
101269274,-0.12,-0.29,-0.66
101271261,-0.12,-0.29,-0.66
101273204,-0.12,-0.29,-0.66
101275195,-0.15,-0.30,-0.73
101277202,-0.15,-0.30,-0.73
101279205,-0.15,-0.30,-0.73
101281204,-0.15,-0.30,-0.73
101283231,-0.15,-0.30,-0.73
101285254,-0.18,-0.34,-0.82
101287249,-0.18,-0.34,-0.82
101289205,-0.18,-0.34,-0.82
101291310,-0.18,-0.34,-0.82
101293302,-0.18,-0.34,-0.82
101295256,-0.21,-0.32,-0.88
101297269,-0.21,-0.32,-0.88
101299266,-0.21,-0.32,-0.88
101301302,-0.21,-0.32,-0.88
101303264,-0.21,-0.32,-0.88
101305245,-0.23,-0.31,-0.89
101307243,-0.23,-0.31,-0.89
101309286,-0.23,-0.31,-0.89
101311252,-0.23,-0.31,-0.89
101313206,-0.23,-0.31,-0.89
101315298,-0.25,-0.30,-0.88
101317246,-0.25,-0.30,-0.88
101319284,-0.25,-0.30,-0.88
101321223,-0.25,-0.30,-0.88
101323202,-0.25,-0.30,-0.88
101325229,-0.27,-0.25,-0.85
101327257,-0.27,-0.25,-0.85
101329203,-0.27,-0.25,-0.85
101331195,-0.27,-0.25,-0.85
101333264,-0.27,-0.25,-0.85
101335248,-0.29,-0.24,-0.83
101337248,-0.29,-0.24,-0.83
101339249,-0.29,-0.24,-0.83
101341349,-0.29,-0.24,-0.83
101343301,-0.29,-0.24,-0.83
101345264,-0.29,-0.26,-0.79
101347240,-0.29,-0.26,-0.79
101349215,-0.29,-0.26,-0.79
101351208,-0.29,-0.26,-0.79
101353266,-0.29,-0.26,-0.79
101355251,-0.29,-0.26,-0.79
101357205,-0.28,-0.25,-0.75
101359210,-0.28,-0.25,-0.75
101361229,-0.28,-0.25,-0.75
101363252,-0.28,-0.25,-0.75
101365307,-0.28,-0.25,-0.75
101367210,-0.27,-0.25,-0.73
101369203,-0.27,-0.25,-0.73
101371369,-0.27,-0.25,-0.73
101373287,-0.27,-0.25,-0.73
101375279,-0.27,-0.25,-0.73
101377250,-0.26,-0.23,-0.69
101379248,-0.26,-0.23,-0.69
101381249,-0.26,-0.23,-0.69
101383248,-0.26,-0.23,-0.69
101385253,-0.26,-0.23,-0.69
101387243,-0.25,-0.21,-0.63
101389215,-0.25,-0.21,-0.63
101391309,-0.25,-0.21,-0.63
101393214,-0.25,-0.21,-0.63
101395213,-0.25,-0.21,-0.63
101397244,-0.23,-0.22,-0.55
101399270,-0.23,-0.22,-0.55
101401254,-0.23,-0.22,-0.55
101403212,-0.23,-0.22,-0.55
101405208,-0.23,-0.22,-0.55
101407207,-0.23,-0.20,-0.51
101409212,-0.23,-0.20,-0.51
101411240,-0.23,-0.20,-0.51
101413289,-0.23,-0.20,-0.51
101415367,-0.23,-0.20,-0.51
101417254,-0.23,-0.20,-0.51
101419251,-0.23,-0.20,-0.51
101421251,-0.23,-0.20,-0.51
101423251,-0.23,-0.20,-0.51
101425251,-0.23,-0.20,-0.51
101427250,-0.24,-0.23,-0.54
101429210,-0.24,-0.23,-0.54
101431208,-0.24,-0.23,-0.54
101433211,-0.24,-0.23,-0.54
101435211,-0.24,-0.23,-0.54
101437208,-0.24,-0.23,-0.54
101439217,-0.27,-0.24,-0.59
101441286,-0.27,-0.24,-0.59
101443214,-0.27,-0.24,-0.59
101445207,-0.27,-0.24,-0.59
101447206,-0.27,-0.24,-0.59
101449207,-0.30,-0.27,-0.71
101451219,-0.30,-0.27,-0.71
101453253,-0.30,-0.27,-0.71
101455249,-0.30,-0.27,-0.71
101457254,-0.30,-0.27,-0.71
101459252,-0.32,-0.32,-0.83
101461254,-0.32,-0.32,-0.83
101463251,-0.32,-0.32,-0.83
101465298,-0.32,-0.32,-0.83
101467211,-0.32,-0.32,-0.83
101469210,-0.34,-0.29,-0.89
101471219,-0.34,-0.29,-0.89
101473326,-0.34,-0.29,-0.89
101475237,-0.34,-0.29,-0.89
101477210,-0.34,-0.29,-0.89
101479208,-0.36,-0.26,-0.86
101481204,-0.36,-0.26,-0.86
101483206,-0.36,-0.26,-0.86
101485206,-0.36,-0.26,-0.86
101487210,-0.36,-0.26,-0.86
101489207,-0.40,-0.24,-0.84
101491308,-0.40,-0.24,-0.84
101493280,-0.40,-0.24,-0.84
101495282,-0.40,-0.24,-0.84
101497277,-0.40,-0.24,-0.84
101499264,-0.43,-0.21,-0.91
101501248,-0.43,-0.21,-0.91
101503251,-0.43,-0.21,-0.91
101505251,-0.43,-0.21,-0.91
101507251,-0.43,-0.21,-0.91
101509253,-0.44,-0.23,-1.07
101511213,-0.44,-0.23,-1.07
101513211,-0.44,-0.23,-1.07
101515330,-0.44,-0.23,-1.07
101517227,-0.44,-0.23,-1.07
101519314,-0.44,-0.22,-1.16
101521234,-0.44,-0.22,-1.16
101523207,-0.44,-0.22,-1.16
101525204,-0.44,-0.22,-1.16
101527206,-0.44,-0.22,-1.16
101529214,-0.44,-0.22,-1.16
101531253,-0.43,-0.26,-1.07
101533264,-0.43,-0.26,-1.07
101535257,-0.43,-0.26,-1.07
101537252,-0.43,-0.26,-1.07
101539256,-0.43,-0.26,-1.07
101541391,-0.41,-0.32,-0.96
101543271,-0.41,-0.32,-0.96
101545250,-0.41,-0.32,-0.96
101547248,-0.41,-0.32,-0.96
101549264,-0.41,-0.32,-0.96
101551260,-0.41,-0.35,-0.87
101553207,-0.41,-0.35,-0.87
101555207,-0.41,-0.35,-0.87
101557205,-0.41,-0.35,-0.87
101559246,-0.41,-0.35,-0.87
101561252,-0.43,-0.36,-0.84
101563211,-0.43,-0.36,-0.84
101565301,-0.43,-0.36,-0.84
101567222,-0.43,-0.36,-0.84
101569207,-0.43,-0.36,-0.84
101571203,-0.45,-0.41,-0.83
101573274,-0.45,-0.41,-0.83
101575276,-0.45,-0.41,-0.83
101577253,-0.45,-0.41,-0.83
101579248,-0.45,-0.41,-0.83
101581254,-0.46,-0.46,-0.89
101583249,-0.46,-0.46,-0.89
101585244,-0.46,-0.46,-0.89
101587273,-0.46,-0.46,-0.89
101589289,-0.46,-0.46,-0.89
101591337,-0.47,-0.41,-0.94
101593204,-0.47,-0.41,-0.94
101595203,-0.47,-0.41,-0.94
101597195,-0.47,-0.41,-0.94
101599257,-0.47,-0.41,-0.94
101601248,-0.48,-0.36,-1.01
101603256,-0.48,-0.36,-1.01
101605204,-0.48,-0.36,-1.01
101607204,-0.48,-0.36,-1.01
101609204,-0.48,-0.36,-1.01
101611203,-0.48,-0.36,-1.01
101613271,-0.50,-0.30,-1.10
101615353,-0.50,-0.30,-1.10
101617251,-0.50,-0.30,-1.10
101619248,-0.50,-0.30,-1.10
101621246,-0.50,-0.30,-1.10
101623257,-0.51,-0.23,-1.20
101625306,-0.51,-0.23,-1.20
101627261,-0.51,-0.23,-1.20
101629246,-0.51,-0.23,-1.20
101631212,-0.51,-0.23,-1.20
101633203,-0.50,-0.24,-1.29
101635203,-0.50,-0.24,-1.29
101637203,-0.50,-0.24,-1.29
101639224,-0.50,-0.24,-1.29
101641386,-0.50,-0.24,-1.29
101643213,-0.48,-0.23,-1.33
101645210,-0.48,-0.23,-1.33
101647212,-0.48,-0.23,-1.33
101649248,-0.48,-0.23,-1.33
101651254,-0.48,-0.23,-1.33
101653265,-0.44,-0.11,-1.25
101655251,-0.44,-0.11,-1.25
101657246,-0.44,-0.11,-1.25
101659254,-0.44,-0.11,-1.25
101661311,-0.44,-0.11,-1.25
101663267,-0.40,-0.11,-1.18
101665353,-0.40,-0.11,-1.18
101667250,-0.40,-0.11,-1.18
101669248,-0.40,-0.11,-1.18
101671220,-0.40,-0.11,-1.18
101673311,-0.37,-0.13,-1.09
101675229,-0.37,-0.13,-1.09
101677203,-0.37,-0.13,-1.09
101679195,-0.37,-0.13,-1.09
101681203,-0.37,-0.13,-1.09
101683195,-0.34,-0.17,-1.00
101685203,-0.34,-0.17,-1.00
101687195,-0.34,-0.17,-1.00
101689205,-0.34,-0.17,-1.00
101691308,-0.34,-0.17,-1.00
101693278,-0.32,-0.16,-0.94
101695269,-0.32,-0.16,-0.94
101697269,-0.32,-0.16,-0.94
101699264,-0.32,-0.16,-0.94
101701247,-0.32,-0.16,-0.94
101703277,-0.32,-0.16,-0.94
101705322,-0.30,-0.15,-0.93
101707264,-0.30,-0.15,-0.93
101709247,-0.30,-0.15,-0.93
101711245,-0.30,-0.15,-0.93
101713243,-0.30,-0.15,-0.93
101715356,-0.30,-0.19,-0.92
101717275,-0.30,-0.19,-0.92
101719208,-0.30,-0.19,-0.92
101721203,-0.30,-0.19,-0.92
101723209,-0.30,-0.19,-0.92
101725204,-0.30,-0.21,-0.86
101727206,-0.30,-0.21,-0.86
101729210,-0.30,-0.21,-0.86
101731219,-0.30,-0.21,-0.86
101733272,-0.30,-0.21,-0.86
101735276,-0.31,-0.26,-0.82
101737248,-0.31,-0.26,-0.82
101739248,-0.31,-0.26,-0.82
101741344,-0.31,-0.26,-0.82
101743247,-0.31,-0.26,-0.82
101745245,-0.31,-0.32,-0.87
101747243,-0.31,-0.32,-0.87
101749209,-0.31,-0.32,-0.87
101751204,-0.31,-0.32,-0.87
101753274,-0.31,-0.32,-0.87
101755247,-0.30,-0.28,-0.91
101757205,-0.30,-0.28,-0.91
101759204,-0.30,-0.28,-0.91
101761228,-0.30,-0.28,-0.91
101763211,-0.30,-0.28,-0.91
101765300,-0.29,-0.30,-0.88
101767220,-0.29,-0.30,-0.88
101769206,-0.29,-0.30,-0.88
101771203,-0.29,-0.30,-0.88
101773261,-0.29,-0.30,-0.88
101775311,-0.27,-0.30,-0.78
101777250,-0.27,-0.30,-0.78
101779249,-0.27,-0.30,-0.78
101781252,-0.27,-0.30,-0.78
101783249,-0.27,-0.30,-0.78
101785224,-0.27,-0.30,-0.78
101787224,-0.26,-0.32,-0.71
101789204,-0.26,-0.32,-0.71
101791289,-0.26,-0.32,-0.71
101793210,-0.26,-0.32,-0.71
101795204,-0.26,-0.32,-0.71
101797204,-0.25,-0.34,-0.70
101799243,-0.25,-0.34,-0.70
101801195,-0.25,-0.34,-0.70
101803202,-0.25,-0.34,-0.70
101805194,-0.25,-0.34,-0.70
101807195,-0.24,-0.33,-0.73
101809191,-0.24,-0.33,-0.73
101811225,-0.24,-0.33,-0.73
101813261,-0.24,-0.33,-0.73
101815338,-0.24,-0.33,-0.73
101817251,-0.22,-0.27,-0.75
101819248,-0.22,-0.27,-0.75
101821247,-0.22,-0.27,-0.75
101823246,-0.22,-0.27,-0.75
101825202,-0.22,-0.27,-0.75
101827230,-0.19,-0.25,-0.73
101829312,-0.19,-0.25,-0.73
101831237,-0.19,-0.25,-0.73
101833203,-0.19,-0.25,-0.73
101835202,-0.19,-0.25,-0.73
101837205,-0.18,-0.24,-0.66
101839204,-0.18,-0.24,-0.66
101841312,-0.18,-0.24,-0.66
101843216,-0.18,-0.24,-0.66
101845256,-0.18,-0.24,-0.66
101847207,-0.15,-0.22,-0.61
101849203,-0.15,-0.22,-0.61
101851201,-0.15,-0.22,-0.61
101853266,-0.15,-0.22,-0.61
101855249,-0.15,-0.22,-0.61
101857247,-0.15,-0.22,-0.58
101859258,-0.15,-0.22,-0.58
101861287,-0.15,-0.22,-0.58
101863274,-0.15,-0.22,-0.58
101865347,-0.15,-0.22,-0.58
101867251,-0.15,-0.22,-0.58
101869244,-0.14,-0.19,-0.57
101871203,-0.14,-0.19,-0.57
101873205,-0.14,-0.19,-0.57
101875203,-0.14,-0.19,-0.57
101877208,-0.14,-0.19,-0.57
101879206,-0.13,-0.15,-0.55
101881215,-0.13,-0.15,-0.55
101883300,-0.13,-0.15,-0.55
101885231,-0.13,-0.15,-0.55
101887206,-0.13,-0.15,-0.55
101889195,-0.12,-0.11,-0.52
101891307,-0.12,-0.11,-0.52
101893260,-0.12,-0.11,-0.52
101895247,-0.12,-0.11,-0.52
101897250,-0.12,-0.11,-0.52
101899271,-0.14,-0.06,-0.50
101901245,-0.14,-0.06,-0.50
101903254,-0.14,-0.06,-0.50
101905254,-0.14,-0.06,-0.50
101907206,-0.14,-0.06,-0.50
101909224,-0.16,-0.01,-0.46
101911207,-0.16,-0.01,-0.46
101913210,-0.16,-0.01,-0.46
101915291,-0.16,-0.01,-0.46
101917210,-0.16,-0.01,-0.46
101919204,-0.20,0.02,-0.46
101921206,-0.20,0.02,-0.46
101923206,-0.20,0.02,-0.46
101925210,-0.20,0.02,-0.46
101927207,-0.20,0.02,-0.46
101929207,-0.24,-0.01,-0.54
101931193,-0.24,-0.01,-0.54
101933260,-0.24,-0.01,-0.54
101935247,-0.24,-0.01,-0.54
101937248,-0.24,-0.01,-0.54
101939247,-0.28,-0.05,-0.65
101941322,-0.28,-0.05,-0.65
101943250,-0.28,-0.05,-0.65
101945211,-0.28,-0.05,-0.65
101947203,-0.28,-0.05,-0.65
101949204,-0.28,-0.05,-0.65
101951203,-0.34,-0.12,-0.70
101953206,-0.34,-0.12,-0.70
101955208,-0.34,-0.12,-0.70
101957222,-0.34,-0.12,-0.70
101959211,-0.34,-0.12,-0.70
101961224,-0.40,-0.16,-0.71
101963207,-0.40,-0.16,-0.71
101965284,-0.40,-0.16,-0.71
101967207,-0.40,-0.16,-0.71
101969207,-0.40,-0.16,-0.71
101971207,-0.44,-0.16,-0.73
101973277,-0.44,-0.16,-0.73
101975283,-0.44,-0.16,-0.73
101977276,-0.44,-0.16,-0.73
101979247,-0.44,-0.16,-0.73
101981246,-0.46,-0.16,-0.76
101983248,-0.46,-0.16,-0.76
101985245,-0.46,-0.16,-0.76
101987246,-0.46,-0.16,-0.76
101989203,-0.46,-0.16,-0.76
101991311,-0.50,-0.06,-0.77
101993206,-0.50,-0.06,-0.77
101995280,-0.50,-0.06,-0.77
101997248,-0.50,-0.06,-0.77
101999251,-0.50,-0.06,-0.77
102001204,-0.52,0.01,-0.84
102003211,-0.52,0.01,-0.84
102005207,-0.52,0.01,-0.84
102007249,-0.52,0.01,-0.84
102009218,-0.52,0.01,-0.84
102011253,-0.56,0.00,-0.95
102013269,-0.56,0.00,-0.95
102015353,-0.56,0.00,-0.95
102017252,-0.56,0.00,-0.95
102019253,-0.56,0.00,-0.95
102021278,-0.59,0.06,-1.08
102023254,-0.59,0.06,-1.08
102025245,-0.59,0.06,-1.08
102027248,-0.59,0.06,-1.08
102029286,-0.59,0.06,-1.08
102031231,-0.59,0.06,-1.08
102033202,-0.62,0.06,-1.18
102035204,-0.62,0.06,-1.18
102037215,-0.62,0.06,-1.18
102039202,-0.62,0.06,-1.18
102041317,-0.62,0.06,-1.18
102043202,-0.67,0.01,-1.19
102045202,-0.67,0.01,-1.19
102047202,-0.67,0.01,-1.19
102049203,-0.67,0.01,-1.19
102051213,-0.67,0.01,-1.19
102053284,-0.69,-0.09,-1.18
102055277,-0.69,-0.09,-1.18
102057252,-0.69,-0.09,-1.18
102059253,-0.69,-0.09,-1.18
102061251,-0.69,-0.09,-1.18
102063247,-0.71,-0.13,-1.16
102065351,-0.71,-0.13,-1.16
102067248,-0.71,-0.13,-1.16
102069206,-0.71,-0.13,-1.16
102071202,-0.71,-0.13,-1.16
102073207,-0.71,-0.03,-1.19
102075202,-0.71,-0.03,-1.19
102077219,-0.71,-0.03,-1.19
102079290,-0.71,-0.03,-1.19
102081232,-0.71,-0.03,-1.19
102083204,-0.75,0.13,-1.18
102085202,-0.75,0.13,-1.18
102087202,-0.75,0.13,-1.18
102089202,-0.75,0.13,-1.18
102091332,-0.75,0.13,-1.18
102093278,-0.82,0.25,-1.20
102095272,-0.82,0.25,-1.20
102097250,-0.82,0.25,-1.20
102099269,-0.82,0.25,-1.20
102101246,-0.82,0.25,-1.20
102103241,-0.87,0.18,-1.33
102105249,-0.87,0.18,-1.33
102107248,-0.87,0.18,-1.33
102109208,-0.87,0.18,-1.33
102111212,-0.87,0.18,-1.33
102113209,-0.87,0.04,-1.44
102115299,-0.87,0.04,-1.44
102117210,-0.87,0.04,-1.44
102119205,-0.87,0.04,-1.44
102121204,-0.87,0.04,-1.44
102123203,-0.87,0.04,-1.44
102125204,-0.87,-0.18,-1.34
102127280,-0.87,-0.18,-1.34
102129241,-0.87,-0.18,-1.34
102131204,-0.87,-0.18,-1.34
102133262,-0.87,-0.18,-1.34
102135248,-0.83,-0.41,-1.19
102137243,-0.83,-0.41,-1.19
102139254,-0.83,-0.41,-1.19
102141371,-0.83,-0.41,-1.19
102143262,-0.83,-0.41,-1.19
102145244,-0.77,-0.47,-1.18
102147242,-0.77,-0.47,-1.18
102149220,-0.77,-0.47,-1.18
102151298,-0.77,-0.47,-1.18
102153233,-0.77,-0.47,-1.18
102155195,-0.68,-0.46,-1.25
102157195,-0.68,-0.46,-1.25
102159208,-0.68,-0.46,-1.25
102161220,-0.68,-0.46,-1.25
102163217,-0.68,-0.46,-1.25
102165355,-0.57,-0.44,-1.17
102167211,-0.57,-0.44,-1.17
102169201,-0.57,-0.44,-1.17
102171205,-0.57,-0.44,-1.17
102173268,-0.57,-0.44,-1.17
102175249,-0.48,-0.41,-0.98
102177244,-0.48,-0.41,-0.98
102179263,-0.48,-0.41,-0.98
102181277,-0.48,-0.41,-0.98
102183259,-0.48,-0.41,-0.98
102185249,-0.41,-0.33,-0.80
102187244,-0.41,-0.33,-0.80
102189272,-0.41,-0.33,-0.80
102191359,-0.41,-0.33,-0.80
102193203,-0.41,-0.33,-0.80
102195205,-0.35,-0.29,-0.76
102197203,-0.35,-0.29,-0.76
102199242,-0.35,-0.29,-0.76
102201201,-0.35,-0.29,-0.76
102203251,-0.35,-0.29,-0.76
102205252,-0.35,-0.29,-0.76
102207202,-0.30,-0.29,-0.83
102209242,-0.30,-0.29,-0.83
102211204,-0.30,-0.29,-0.83
102213265,-0.30,-0.29,-0.83
102215354,-0.30,-0.29,-0.83
102217252,-0.28,-0.27,-0.90
102219248,-0.28,-0.27,-0.90
102221285,-0.28,-0.27,-0.90
102223254,-0.28,-0.27,-0.90
102225246,-0.28,-0.27,-0.90
102227245,-0.28,-0.31,-0.88
102229234,-0.28,-0.31,-0.88
102231206,-0.28,-0.31,-0.88
102233228,-0.28,-0.31,-0.88
102235292,-0.28,-0.31,-0.88
102237233,-0.27,-0.34,-0.86
102239202,-0.27,-0.34,-0.86
102241308,-0.27,-0.34,-0.86
102243208,-0.27,-0.34,-0.86
102245252,-0.27,-0.34,-0.86
102247206,-0.27,-0.34,-0.91
102249201,-0.27,-0.34,-0.91
102251194,-0.27,-0.34,-0.91
102253275,-0.27,-0.34,-0.91
102255247,-0.27,-0.34,-0.91
102257246,-0.28,-0.33,-0.99
102259260,-0.28,-0.33,-0.99
102261319,-0.28,-0.33,-0.99
102263264,-0.28,-0.33,-0.99
102265346,-0.28,-0.33,-0.99
102267250,-0.29,-0.30,-1.04
102269249,-0.29,-0.30,-1.04
102271279,-0.29,-0.30,-1.04
102273226,-0.29,-0.30,-1.04
102275205,-0.29,-0.30,-1.04
102277203,-0.29,-0.27,-1.02
102279203,-0.29,-0.27,-1.02
102281202,-0.29,-0.27,-1.02
102283202,-0.29,-0.27,-1.02
102285209,-0.29,-0.27,-1.02
102287244,-0.29,-0.27,-1.02
102289257,-0.29,-0.25,-0.96
102291313,-0.29,-0.25,-0.96
102293289,-0.29,-0.25,-0.96
102295253,-0.29,-0.25,-0.96
102297248,-0.29,-0.25,-0.96
102299264,-0.29,-0.24,-0.91
102301248,-0.29,-0.24,-0.91
102303245,-0.29,-0.24,-0.91
102305274,-0.29,-0.24,-0.91
102307266,-0.29,-0.24,-0.91
102309247,-0.27,-0.25,-0.88
102311205,-0.27,-0.25,-0.88
102313247,-0.27,-0.25,-0.88
102315338,-0.27,-0.25,-0.88
102317284,-0.27,-0.25,-0.88
102319248,-0.26,-0.23,-0.83
102321204,-0.26,-0.23,-0.83
102323203,-0.26,-0.23,-0.83
102325207,-0.26,-0.23,-0.83
102327204,-0.26,-0.23,-0.83
102329195,-0.24,-0.23,-0.75
102331202,-0.24,-0.23,-0.75
102333261,-0.24,-0.23,-0.75
102335248,-0.24,-0.23,-0.75
102337256,-0.24,-0.23,-0.75
102339245,-0.22,-0.24,-0.66
102341348,-0.22,-0.24,-0.66
102343247,-0.22,-0.24,-0.66
102345242,-0.22,-0.24,-0.66
102347204,-0.22,-0.24,-0.66
102349205,-0.20,-0.23,-0.60
102351204,-0.20,-0.23,-0.60
102353212,-0.20,-0.23,-0.60
102355205,-0.20,-0.23,-0.60
102357205,-0.20,-0.23,-0.60
102359207,-0.18,-0.21,-0.58
102361222,-0.18,-0.21,-0.58
102363204,-0.18,-0.21,-0.58
102365285,-0.18,-0.21,-0.58
102367204,-0.18,-0.21,-0.58
102369207,-0.17,-0.19,-0.54
102371203,-0.17,-0.19,-0.54
102373259,-0.17,-0.19,-0.54
102375331,-0.17,-0.19,-0.54
102377266,-0.17,-0.19,-0.54
102379248,-0.17,-0.19,-0.54
102381247,-0.16,-0.20,-0.50
102383246,-0.16,-0.20,-0.50
102385249,-0.16,-0.20,-0.50
102387243,-0.16,-0.20,-0.50
102389270,-0.16,-0.20,-0.50
102391345,-0.16,-0.24,-0.45
102393202,-0.16,-0.24,-0.45
102395194,-0.16,-0.24,-0.45
102397194,-0.16,-0.24,-0.45
102399248,-0.16,-0.24,-0.45
102401208,-0.16,-0.24,-0.42
102403203,-0.16,-0.24,-0.42
102405202,-0.16,-0.24,-0.42
102407204,-0.16,-0.24,-0.42
102409205,-0.16,-0.24,-0.42
102411205,-0.18,-0.25,-0.43
102413259,-0.18,-0.25,-0.43
102415337,-0.18,-0.25,-0.43
102417253,-0.18,-0.25,-0.43
102419248,-0.18,-0.25,-0.43
102421250,-0.20,-0.25,-0.46
102423316,-0.20,-0.25,-0.46
102425269,-0.20,-0.25,-0.46
102427246,-0.20,-0.25,-0.46
102429206,-0.20,-0.25,-0.46
102431205,-0.23,-0.25,-0.50
102433279,-0.23,-0.25,-0.50
102435222,-0.23,-0.25,-0.50
102437205,-0.23,-0.25,-0.50
102439202,-0.23,-0.25,-0.50
102441307,-0.27,-0.28,-0.59
102443223,-0.27,-0.28,-0.59
102445256,-0.27,-0.28,-0.59
102447205,-0.27,-0.28,-0.59
102449204,-0.27,-0.28,-0.59
102451195,-0.30,-0.32,-0.70
102453273,-0.30,-0.32,-0.70
102455252,-0.30,-0.32,-0.70
102457249,-0.30,-0.32,-0.70
102459250,-0.30,-0.32,-0.70
102461256,-0.30,-0.32,-0.70
102463252,-0.33,-0.31,-0.79
102465360,-0.33,-0.31,-0.79
102467271,-0.33,-0.31,-0.79
102469241,-0.33,-0.31,-0.79
102471203,-0.33,-0.31,-0.79
102473205,-0.36,-0.35,-0.81
102475204,-0.36,-0.35,-0.81
102477204,-0.36,-0.35,-0.81
102479204,-0.36,-0.35,-0.81
102481210,-0.36,-0.35,-0.81
102483219,-0.40,-0.39,-0.80
102485284,-0.40,-0.39,-0.80
102487230,-0.40,-0.39,-0.80
102489195,-0.40,-0.39,-0.80
102491312,-0.40,-0.39,-0.80
102493259,-0.43,-0.39,-0.91
102495275,-0.43,-0.39,-0.91
102497262,-0.43,-0.39,-0.91
102499281,-0.43,-0.39,-0.91
102501246,-0.43,-0.39,-0.91
102503249,-0.43,-0.38,-1.03
102505263,-0.43,-0.38,-1.03
102507261,-0.43,-0.38,-1.03
102509248,-0.43,-0.38,-1.03
102511227,-0.43,-0.38,-1.03
102513204,-0.42,-0.29,-1.00
102515312,-0.42,-0.29,-1.00
102517259,-0.42,-0.29,-1.00
102519273,-0.42,-0.29,-1.00
102521229,-0.42,-0.29,-1.00
102523204,-0.39,-0.24,-0.84
102525216,-0.39,-0.24,-0.84
102527251,-0.39,-0.24,-0.84
102529205,-0.39,-0.24,-0.84
102531193,-0.39,-0.24,-0.84
102533273,-0.38,-0.21,-0.73
102535251,-0.38,-0.21,-0.73
102537246,-0.38,-0.21,-0.73
102539264,-0.38,-0.21,-0.73
102541387,-0.38,-0.21,-0.73
102543251,-0.38,-0.21,-0.73
102545249,-0.36,-0.21,-0.68
102547247,-0.36,-0.21,-0.68
102549366,-0.36,-0.21,-0.68
102551263,-0.36,-0.21,-0.68
102553206,-0.36,-0.21,-0.68
102555205,-0.37,-0.27,-0.64
102557233,-0.37,-0.27,-0.64
102559280,-0.37,-0.27,-0.64
102561228,-0.37,-0.27,-0.64
102563205,-0.37,-0.27,-0.64
102565350,-0.42,-0.34,-0.65
102567251,-0.42,-0.34,-0.65
102569204,-0.42,-0.34,-0.65
102571203,-0.42,-0.34,-0.65
102573271,-0.42,-0.34,-0.65
102575253,-0.48,-0.31,-0.77
102577255,-0.48,-0.31,-0.77
102579246,-0.48,-0.31,-0.77
102581246,-0.48,-0.31,-0.77
102583245,-0.48,-0.31,-0.77
102585254,-0.57,-0.19,-0.91
102587322,-0.57,-0.19,-0.91
102589233,-0.57,-0.19,-0.91
102591309,-0.57,-0.19,-0.91
102593203,-0.57,-0.19,-0.91
102595195,-0.67,-0.18,-1.07
102597225,-0.67,-0.18,-1.07
102599267,-0.67,-0.18,-1.07
102601205,-0.67,-0.18,-1.07
102603203,-0.67,-0.18,-1.07
102605204,-0.73,-0.34,-1.32
102607204,-0.73,-0.34,-1.32
102609203,-0.73,-0.34,-1.32
102611203,-0.73,-0.34,-1.32
102613271,-0.73,-0.34,-1.32
102615350,-0.73,-0.50,-1.52
102617249,-0.73,-0.50,-1.52
102619271,-0.73,-0.50,-1.52
102621251,-0.73,-0.50,-1.52
102623246,-0.73,-0.50,-1.52
102625244,-0.70,-0.46,-1.57
102627248,-0.70,-0.46,-1.57
102629207,-0.70,-0.46,-1.57
102631218,-0.70,-0.46,-1.57
102633328,-0.70,-0.46,-1.57
102635229,-0.70,-0.46,-1.57
102637202,-0.62,-0.45,-1.53
102639202,-0.62,-0.45,-1.53
102641306,-0.62,-0.45,-1.53
102643208,-0.62,-0.45,-1.53
102645204,-0.62,-0.45,-1.53
102647204,-0.52,-0.32,-1.45
102649203,-0.52,-0.32,-1.45
102651206,-0.52,-0.32,-1.45
102653259,-0.52,-0.32,-1.45
102655247,-0.52,-0.32,-1.45
102657245,-0.43,-0.14,-1.26
102659258,-0.43,-0.14,-1.26
102661254,-0.43,-0.14,-1.26
102663254,-0.43,-0.14,-1.26
102665325,-0.43,-0.14,-1.26
102667211,-0.35,-0.03,-1.04
102669206,-0.35,-0.03,-1.04
102671195,-0.35,-0.03,-1.04
102673206,-0.35,-0.03,-1.04
102675204,-0.35,-0.03,-1.04
102677205,-0.29,0.05,-0.91
102679203,-0.29,0.05,-0.91
102681202,-0.29,0.05,-0.91
102683205,-0.29,0.05,-0.91
102685204,-0.29,0.05,-0.91
102687204,-0.26,0.07,-0.80
102689208,-0.26,0.07,-0.80
102691268,-0.26,0.07,-0.80
102693254,-0.26,0.07,-0.80
102695250,-0.26,0.07,-0.80
102697247,-0.27,0.00,-0.70
102699273,-0.27,0.00,-0.70
102701246,-0.27,0.00,-0.70
102703247,-0.27,0.00,-0.70
102705235,-0.27,0.00,-0.70
102707214,-0.30,-0.12,-0.70
102709209,-0.30,-0.12,-0.70
102711210,-0.30,-0.12,-0.70
102713206,-0.30,-0.12,-0.70
102715288,-0.30,-0.12,-0.70
102717216,-0.30,-0.12,-0.70
102719205,-0.34,-0.23,-0.84
102721207,-0.34,-0.23,-0.84
102723206,-0.34,-0.23,-0.84
102725205,-0.34,-0.23,-0.84
102727204,-0.34,-0.23,-0.84
102729205,-0.36,-0.35,-0.97
102731205,-0.36,-0.35,-0.97
102733254,-0.36,-0.35,-0.97
102735248,-0.36,-0.35,-0.97
102737249,-0.36,-0.35,-0.97
102739289,-0.39,-0.41,-0.98
102741349,-0.39,-0.41,-0.98
102743249,-0.39,-0.41,-0.98
102745248,-0.39,-0.41,-0.98
102747211,-0.39,-0.41,-0.98
102749205,-0.39,-0.45,-0.94
102751206,-0.39,-0.45,-0.94
102753208,-0.39,-0.45,-0.94
102755205,-0.39,-0.45,-0.94
102757202,-0.39,-0.45,-0.94
102759205,-0.37,-0.45,-0.90
102761228,-0.37,-0.45,-0.90
102763206,-0.37,-0.45,-0.90
102765281,-0.37,-0.45,-0.90
102767212,-0.37,-0.45,-0.90
102769205,-0.34,-0.36,-0.80
102771204,-0.34,-0.36,-0.80
102773251,-0.34,-0.36,-0.80
102775310,-0.34,-0.36,-0.80
102777246,-0.34,-0.36,-0.80
102779249,-0.30,-0.36,-0.73
102781274,-0.30,-0.36,-0.73
102783372,-0.30,-0.36,-0.73
102785267,-0.30,-0.36,-0.73
102787243,-0.30,-0.36,-0.73
102789205,-0.26,-0.27,-0.69
102791315,-0.26,-0.27,-0.69
102793207,-0.26,-0.27,-0.69
102795225,-0.26,-0.27,-0.69
102797280,-0.26,-0.27,-0.69
102799248,-0.26,-0.27,-0.69
102801210,-0.23,-0.21,-0.69
102803214,-0.23,-0.21,-0.69
102805257,-0.23,-0.21,-0.69
102807210,-0.23,-0.21,-0.69
102809207,-0.23,-0.21,-0.69
102811225,-0.20,-0.15,-0.68
102813265,-0.20,-0.15,-0.68
102815353,-0.20,-0.15,-0.68
102817254,-0.20,-0.15,-0.68
102819248,-0.20,-0.15,-0.68
102821243,-0.17,-0.12,-0.65
102823273,-0.17,-0.12,-0.65
102825249,-0.17,-0.12,-0.65
102827247,-0.17,-0.12,-0.65
102829247,-0.17,-0.12,-0.65
102831277,-0.15,-0.15,-0.59
102833231,-0.15,-0.15,-0.59
102835206,-0.15,-0.15,-0.59
102837202,-0.15,-0.15,-0.59
102839203,-0.15,-0.15,-0.59
102841309,-0.14,-0.14,-0.50
102843210,-0.14,-0.14,-0.50
102845231,-0.14,-0.14,-0.50
102847252,-0.14,-0.14,-0.50
102849205,-0.14,-0.14,-0.50
102851210,-0.13,-0.16,-0.45
102853274,-0.13,-0.16,-0.45
102855248,-0.13,-0.16,-0.45
102857245,-0.13,-0.16,-0.45
102859272,-0.13,-0.16,-0.45
102861272,-0.13,-0.15,-0.45
102863261,-0.13,-0.15,-0.45
102865349,-0.13,-0.15,-0.45
102867251,-0.13,-0.15,-0.45
102869276,-0.13,-0.15,-0.45
102871254,-0.14,-0.14,-0.49
102873203,-0.14,-0.14,-0.49
102875202,-0.14,-0.14,-0.49
102877195,-0.14,-0.14,-0.49
102879205,-0.14,-0.14,-0.49
102881202,-0.14,-0.14,-0.49
102883202,-0.16,-0.21,-0.54
102885202,-0.16,-0.21,-0.54
102887215,-0.16,-0.21,-0.54
102889257,-0.16,-0.21,-0.54
102891309,-0.16,-0.21,-0.54
102893287,-0.19,-0.21,-0.57
102895251,-0.19,-0.21,-0.57
102897248,-0.19,-0.21,-0.57
102899268,-0.19,-0.21,-0.57
102901290,-0.19,-0.21,-0.57
102903274,-0.21,-0.18,-0.57
102905246,-0.21,-0.18,-0.57
102907247,-0.21,-0.18,-0.57
102909268,-0.21,-0.18,-0.57
102911283,-0.21,-0.18,-0.57
102913228,-0.23,-0.14,-0.61
102915301,-0.23,-0.14,-0.61
102917210,-0.23,-0.14,-0.61
102919204,-0.23,-0.14,-0.61
102921242,-0.23,-0.14,-0.61
102923241,-0.27,-0.13,-0.69
102925224,-0.27,-0.13,-0.69
102927241,-0.27,-0.13,-0.69
102929203,-0.27,-0.13,-0.69
102931202,-0.27,-0.13,-0.69
102933268,-0.28,-0.17,-0.76
102935248,-0.28,-0.17,-0.76
102937246,-0.28,-0.17,-0.76
102939245,-0.28,-0.17,-0.76
102941346,-0.28,-0.17,-0.76
102943250,-0.31,-0.21,-0.76
102945244,-0.31,-0.21,-0.76
102947210,-0.31,-0.21,-0.76
102949205,-0.31,-0.21,-0.76
102951208,-0.31,-0.21,-0.76
102953311,-0.32,-0.29,-0.75
102955233,-0.32,-0.29,-0.75
102957238,-0.32,-0.29,-0.75
102959208,-0.32,-0.29,-0.75
102961216,-0.32,-0.29,-0.75
102963204,-0.36,-0.28,-0.76
102965298,-0.36,-0.28,-0.76
102967211,-0.36,-0.28,-0.76
102969203,-0.36,-0.28,-0.76
102971195,-0.36,-0.28,-0.76
102973259,-0.36,-0.28,-0.76
102975272,-0.38,-0.29,-0.79
102977294,-0.38,-0.29,-0.79
102979266,-0.38,-0.29,-0.79
102981246,-0.38,-0.29,-0.79
102983245,-0.38,-0.29,-0.79
102985246,-0.42,-0.32,-0.86
102987246,-0.42,-0.32,-0.86
102989210,-0.42,-0.32,-0.86
102991384,-0.42,-0.32,-0.86
102993240,-0.42,-0.32,-0.86
102995202,-0.46,-0.39,-0.91
102997204,-0.46,-0.39,-0.91
102999246,-0.46,-0.39,-0.91
103001204,-0.46,-0.39,-0.91
103003202,-0.46,-0.39,-0.91
103005203,-0.54,-0.45,-0.97
103007203,-0.54,-0.45,-0.97
103009195,-0.54,-0.45,-0.97
103011203,-0.54,-0.45,-0.97
103013263,-0.54,-0.45,-0.97
103015344,-0.62,-0.48,-1.08
103017282,-0.62,-0.48,-1.08
103019278,-0.62,-0.48,-1.08
103021244,-0.62,-0.48,-1.08
103023252,-0.62,-0.48,-1.08
103025245,-0.69,-0.45,-1.23
103027258,-0.69,-0.45,-1.23
103029248,-0.69,-0.45,-1.23
103031269,-0.69,-0.45,-1.23
103033227,-0.69,-0.45,-1.23
103035204,-0.71,-0.46,-1.32
103037216,-0.71,-0.46,-1.32
103039204,-0.71,-0.46,-1.32
103041351,-0.71,-0.46,-1.32
103043204,-0.71,-0.46,-1.32
103045202,-0.74,-0.32,-1.27
103047194,-0.74,-0.32,-1.27
103049195,-0.74,-0.32,-1.27
103051203,-0.74,-0.32,-1.27
103053269,-0.74,-0.32,-1.27
103055248,-0.74,-0.32,-1.27
103057247,-0.79,-0.09,-1.23
103059260,-0.79,-0.09,-1.23
103061315,-0.79,-0.09,-1.23
103063270,-0.79,-0.09,-1.23
103065347,-0.79,-0.09,-1.23
103067253,-0.84,0.13,-1.37
103069246,-0.84,0.13,-1.37
103071204,-0.84,0.13,-1.37
103073271,-0.84,0.13,-1.37
103075252,-0.84,0.13,-1.37
103077207,-0.87,0.02,-1.66
103079195,-0.87,0.02,-1.66
103081194,-0.87,0.02,-1.66
103083202,-0.87,0.02,-1.66
103085229,-0.87,0.02,-1.66
103087241,-0.87,-0.23,-1.70
103089209,-0.87,-0.23,-1.70
103091306,-0.87,-0.23,-1.70
103093279,-0.87,-0.23,-1.70
103095253,-0.87,-0.23,-1.70
103097246,-0.83,-0.43,-1.41
103099274,-0.83,-0.43,-1.41
103101313,-0.83,-0.43,-1.41
103103269,-0.83,-0.43,-1.41
103105250,-0.83,-0.43,-1.41
103107245,-0.77,-0.59,-1.25
103109246,-0.77,-0.59,-1.25
103111207,-0.77,-0.59,-1.25
103113204,-0.77,-0.59,-1.25
103115303,-0.77,-0.59,-1.25
103117211,-0.66,-0.57,-1.29
103119206,-0.66,-0.57,-1.29
103121207,-0.66,-0.57,-1.29
103123203,-0.66,-0.57,-1.29
103125257,-0.66,-0.57,-1.29
103127260,-0.55,-0.41,-1.25
103129220,-0.55,-0.41,-1.25
103131237,-0.55,-0.41,-1.25
103133256,-0.55,-0.41,-1.25
103135244,-0.55,-0.41,-1.25
103137244,-0.55,-0.41,-1.25
103139243,-0.45,-0.38,-1.07
103141351,-0.45,-0.38,-1.07
103143316,-0.45,-0.38,-1.07
103145268,-0.45,-0.38,-1.07
103147247,-0.45,-0.38,-1.07
103149211,-0.34,-0.29,-0.88
103151237,-0.34,-0.29,-0.88
103153292,-0.34,-0.29,-0.88
103155229,-0.34,-0.29,-0.88
103157204,-0.34,-0.29,-0.88
103159210,-0.25,-0.21,-0.79
103161251,-0.25,-0.21,-0.79
103163201,-0.25,-0.21,-0.79
103165299,-0.25,-0.21,-0.79
103167216,-0.25,-0.21,-0.79
103169207,-0.19,-0.18,-0.77
103171195,-0.19,-0.18,-0.77
103173271,-0.19,-0.18,-0.77
103175247,-0.19,-0.18,-0.77
103177244,-0.19,-0.18,-0.77
103179262,-0.16,-0.21,-0.78
103181272,-0.16,-0.21,-0.78
103183262,-0.16,-0.21,-0.78
103185248,-0.16,-0.21,-0.78
103187245,-0.16,-0.21,-0.78
103189242,-0.14,-0.24,-0.76
103191374,-0.14,-0.24,-0.76
103193229,-0.14,-0.24,-0.76
103195202,-0.14,-0.24,-0.76
103197204,-0.14,-0.24,-0.76
103199257,-0.13,-0.30,-0.74
103201248,-0.13,-0.30,-0.74
103203207,-0.13,-0.30,-0.74
103205205,-0.13,-0.30,-0.74
103207195,-0.13,-0.30,-0.74
103209205,-0.13,-0.36,-0.77
103211195,-0.13,-0.36,-0.77
103213266,-0.13,-0.36,-0.77
103215348,-0.13,-0.36,-0.77
103217252,-0.13,-0.36,-0.77
103219267,-0.14,-0.40,-0.86
103221278,-0.14,-0.40,-0.86
103223255,-0.14,-0.40,-0.86
103225247,-0.14,-0.40,-0.86
103227249,-0.14,-0.40,-0.86
103229242,-0.14,-0.40,-0.86
103231206,-0.14,-0.44,-0.93
103233252,-0.14,-0.44,-0.93
103235275,-0.14,-0.44,-0.93
103237229,-0.14,-0.44,-0.93
103239206,-0.14,-0.44,-0.93
103241315,-0.13,-0.45,-0.93
103243211,-0.13,-0.45,-0.93
103245205,-0.13,-0.45,-0.93
103247204,-0.13,-0.45,-0.93
103249204,-0.13,-0.45,-0.93
103251210,-0.12,-0.39,-0.87
103253283,-0.12,-0.39,-0.87
103255271,-0.12,-0.39,-0.87
103257248,-0.12,-0.39,-0.87
103259250,-0.12,-0.39,-0.87
103261254,-0.10,-0.29,-0.83
103263247,-0.10,-0.29,-0.83
103265344,-0.10,-0.29,-0.83
103267261,-0.10,-0.29,-0.83
103269273,-0.10,-0.29,-0.83
103271232,-0.07,-0.22,-0.83
103273195,-0.07,-0.22,-0.83
103275195,-0.07,-0.22,-0.83
103277202,-0.07,-0.22,-0.83
103279211,-0.07,-0.22,-0.83
103281255,-0.05,-0.12,-0.78
103283203,-0.05,-0.12,-0.78
103285210,-0.05,-0.12,-0.78
103287212,-0.05,-0.12,-0.78
103289202,-0.05,-0.12,-0.78
103291309,-0.04,-0.15,-0.70
103293293,-0.04,-0.15,-0.70
103295260,-0.04,-0.15,-0.70
103297256,-0.04,-0.15,-0.70
103299291,-0.04,-0.15,-0.70
103301284,-0.04,-0.19,-0.62
103303266,-0.04,-0.19,-0.62
103305244,-0.04,-0.19,-0.62
103307244,-0.04,-0.19,-0.62
103309243,-0.04,-0.19,-0.62
103311205,-0.04,-0.19,-0.62
103313207,-0.04,-0.18,-0.56
103315300,-0.04,-0.18,-0.56
103317217,-0.04,-0.18,-0.56
103319205,-0.04,-0.18,-0.56
103321207,-0.04,-0.18,-0.56
103323210,-0.03,-0.18,-0.53
103325207,-0.03,-0.18,-0.53
103327206,-0.03,-0.18,-0.53
103329203,-0.03,-0.18,-0.53
103331204,-0.03,-0.18,-0.53
103333247,-0.04,-0.17,-0.52
103335294,-0.04,-0.17,-0.52
103337311,-0.04,-0.17,-0.52
103339268,-0.04,-0.17,-0.52
103341351,-0.04,-0.17,-0.52
103343245,-0.05,-0.18,-0.49
103345244,-0.05,-0.18,-0.49
103347255,-0.05,-0.18,-0.49
103349272,-0.05,-0.18,-0.49
103351239,-0.05,-0.18,-0.49
103353206,-0.07,-0.18,-0.42
103355205,-0.07,-0.18,-0.42
103357205,-0.07,-0.18,-0.42
103359215,-0.07,-0.18,-0.42
103361225,-0.07,-0.18,-0.42
103363210,-0.10,-0.17,-0.39
103365338,-0.10,-0.17,-0.39
103367259,-0.10,-0.17,-0.39
103369208,-0.10,-0.17,-0.39
103371367,-0.10,-0.17,-0.39
103373286,-0.14,-0.14,-0.39
103375276,-0.14,-0.14,-0.39
103377250,-0.14,-0.14,-0.39
103379245,-0.14,-0.14,-0.39
103381283,-0.14,-0.14,-0.39
103383276,-0.20,-0.16,-0.44
103385251,-0.20,-0.16,-0.44
103387251,-0.20,-0.16,-0.44
103389249,-0.20,-0.16,-0.44
103391340,-0.20,-0.16,-0.44
103393292,-0.20,-0.16,-0.44
103395241,-0.24,-0.21,-0.49
103397207,-0.24,-0.21,-0.49
103399246,-0.24,-0.21,-0.49
103401208,-0.24,-0.21,-0.49
103403265,-0.24,-0.21,-0.49
103405236,-0.27,-0.36,-0.62
103407210,-0.27,-0.36,-0.62
103409206,-0.27,-0.36,-0.62
103411208,-0.27,-0.36,-0.62
103413266,-0.27,-0.36,-0.62
103415352,-0.32,-0.57,-0.78
103417254,-0.32,-0.57,-0.78
103419275,-0.32,-0.57,-0.78
103421317,-0.32,-0.57,-0.78
103423264,-0.32,-0.57,-0.78
103425253,-0.36,-0.64,-0.82
103427250,-0.36,-0.64,-0.82
103429250,-0.36,-0.64,-0.82
103431215,-0.36,-0.64,-0.82
103433223,-0.36,-0.64,-0.82
103435283,-0.38,-0.68,-0.81
103437226,-0.38,-0.68,-0.81
103439243,-0.38,-0.68,-0.81
103441311,-0.38,-0.68,-0.81
103443216,-0.38,-0.68,-0.81
103445251,-0.38,-0.52,-0.91
103447254,-0.38,-0.52,-0.91
103449207,-0.38,-0.52,-0.91
103451205,-0.38,-0.52,-0.91
103453262,-0.38,-0.52,-0.91
103455255,-0.36,-0.30,-1.14
103457252,-0.36,-0.30,-1.14
103459273,-0.36,-0.30,-1.14
103461272,-0.36,-0.30,-1.14
103463261,-0.36,-0.30,-1.14
103465355,-0.31,-0.09,-1.20
103467254,-0.31,-0.09,-1.20
103469254,-0.31,-0.09,-1.20
103471215,-0.31,-0.09,-1.20
103473215,-0.31,-0.09,-1.20
103475217,-0.31,-0.09,-1.20
103477223,-0.26,-0.10,-1.00
103479331,-0.26,-0.10,-1.00
103481233,-0.26,-0.10,-1.00
103483213,-0.26,-0.10,-1.00
103485208,-0.26,-0.10,-1.00
103487214,-0.32,-0.10,-0.80
103489256,-0.32,-0.10,-0.80
103491310,-0.32,-0.10,-0.80
103493300,-0.32,-0.10,-0.80
103495253,-0.32,-0.10,-0.80
103497251,-0.41,-0.06,-0.83
103499275,-0.41,-0.06,-0.83
103501316,-0.41,-0.06,-0.83
103503268,-0.41,-0.06,-0.83
103505252,-0.41,-0.06,-0.83
103507251,-0.54,-0.12,-0.95
103509283,-0.54,-0.12,-0.95
103511270,-0.54,-0.12,-0.95
103513244,-0.54,-0.12,-0.95
103515311,-0.54,-0.12,-0.95
103517215,-0.72,-0.32,-0.99
103519314,-0.72,-0.32,-0.99
103521236,-0.72,-0.32,-0.99
103523210,-0.72,-0.32,-0.99
103525210,-0.72,-0.32,-0.99
103527206,-0.89,-0.73,-1.05
103529205,-0.89,-0.73,-1.05
103531204,-0.89,-0.73,-1.05
103533258,-0.89,-0.73,-1.05
103535254,-0.89,-0.73,-1.05
103537254,-1.05,-1.07,-1.44
103539253,-1.05,-1.07,-1.44
103541381,-1.05,-1.07,-1.44
103543253,-1.05,-1.07,-1.44
103545250,-1.05,-1.07,-1.44
103547218,-1.07,-0.97,-2.00
103549211,-1.07,-0.97,-2.00
103551249,-1.07,-0.97,-2.00
103553211,-1.07,-0.97,-2.00
103555208,-1.07,-0.97,-2.00
103557216,-0.97,-0.54,-2.00
103559215,-0.97,-0.54,-2.00
103561237,-0.97,-0.54,-2.00
103563216,-0.97,-0.54,-2.00
103565293,-0.97,-0.54,-2.00
103567216,-0.97,-0.54,-2.00
103569210,-0.81,-0.31,-2.00
103571216,-0.81,-0.31,-2.00
103573257,-0.81,-0.31,-2.00
103575271,-0.81,-0.31,-2.00
103577253,-0.81,-0.31,-2.00
103579254,-0.61,-0.16,-1.36
103581298,-0.61,-0.16,-1.36
103583268,-0.61,-0.16,-1.36
103585247,-0.61,-0.16,-1.36
103587245,-0.61,-0.16,-1.36
103589232,-0.45,-0.16,-0.85
103591323,-0.45,-0.16,-0.85
103593221,-0.45,-0.16,-0.85
103595276,-0.45,-0.16,-0.85
103597225,-0.45,-0.16,-0.85
103599246,-0.33,-0.08,-0.64
103601218,-0.33,-0.08,-0.64
103603205,-0.33,-0.08,-0.64
103605203,-0.33,-0.08,-0.64
103607203,-0.33,-0.08,-0.64
103609202,-0.30,-0.05,-0.77
103611206,-0.30,-0.05,-0.77
103613263,-0.30,-0.05,-0.77
103615353,-0.30,-0.05,-0.77
103617252,-0.30,-0.05,-0.77
103619246,-0.33,-0.14,-1.12
103621253,-0.33,-0.14,-1.12
103623318,-0.33,-0.14,-1.12
103625266,-0.33,-0.14,-1.12
103627245,-0.33,-0.14,-1.12
103629207,-0.37,-0.35,-1.41
103631220,-0.37,-0.35,-1.41
103633214,-0.37,-0.35,-1.41
103635279,-0.37,-0.35,-1.41
103637216,-0.37,-0.35,-1.41
103639205,-0.39,-0.52,-1.33
103641326,-0.39,-0.52,-1.33
103643241,-0.39,-0.52,-1.33
103645256,-0.39,-0.52,-1.33
103647207,-0.39,-0.52,-1.33
103649195,-0.39,-0.52,-1.33
103651212,-0.39,-0.60,-1.19
103613263,-0.30,-0.05,-0.77
103615353,-0.30,-0.05,-0.77
103617252,-0.30,-0.05,-0.77
103619246,-0.33,-0.14,-1.12
103621253,-0.33,-0.14,-1.12
103623318,-0.33,-0.14,-1.12
103625266,-0.33,-0.14,-1.12
103627245,-0.33,-0.14,-1.12
103629207,-0.37,-0.35,-1.41
103631220,-0.37,-0.35,-1.41
