timestamp,accX,accY,accZ
192621275,0.16,-0.23,-0.85
192623209,0.16,-0.23,-0.85
192625208,0.16,-0.23,-0.85
192627217,0.16,-0.23,-0.85
192629255,0.16,-0.23,-0.85
192631208,0.18,-0.23,-0.83
192633208,0.18,-0.23,-0.83
192635211,0.18,-0.23,-0.83
192637209,0.18,-0.23,-0.83
192639207,0.18,-0.23,-0.83
192641293,0.18,-0.27,-0.81
192643214,0.18,-0.27,-0.81
192645216,0.18,-0.27,-0.81
192647210,0.18,-0.27,-0.81
192649210,0.18,-0.27,-0.81
192651210,0.17,-0.25,-0.80
192653211,0.17,-0.25,-0.80
192655215,0.17,-0.25,-0.80
192657211,0.17,-0.25,-0.80
192659212,0.17,-0.25,-0.80
192661230,0.18,-0.28,-0.80
192663222,0.18,-0.28,-0.80
192665278,0.18,-0.28,-0.80
192667213,0.18,-0.28,-0.80
192669210,0.18,-0.28,-0.80
192727293,0.18,-0.32,-0.81
192729256,0.18,-0.32,-0.81
192731268,0.18,-0.32,-0.81
192733274,0.18,-0.28,-0.83
192735276,0.18,-0.28,-0.83
192737288,0.18,-0.28,-0.83
192739259,0.18,-0.28,-0.83
192741354,0.18,-0.28,-0.83
192743257,0.19,-0.30,-0.87
192745293,0.19,-0.30,-0.87
192747280,0.19,-0.30,-0.87
192749254,0.19,-0.30,-0.87
192751215,0.19,-0.30,-0.87
192753214,0.19,-0.31,-0.85
192755216,0.19,-0.31,-0.85
192757220,0.19,-0.31,-0.85
192759219,0.19,-0.31,-0.85
192761231,0.19,-0.31,-0.85
192763231,0.19,-0.32,-0.81
192765367,0.19,-0.32,-0.81
192767283,0.19,-0.32,-0.81
192769267,0.19,-0.32,-0.81
192771256,0.19,-0.32,-0.81
192773258,0.19,-0.32,-0.81
192775320,0.19,-0.33,-0.80
192777258,0.19,-0.33,-0.80
192779257,0.19,-0.33,-0.80
192781254,0.19,-0.33,-0.80
192783222,0.19,-0.33,-0.80
192785219,0.19,-0.32,-0.85
192787221,0.19,-0.32,-0.85
192789228,0.19,-0.32,-0.85
192791316,0.19,-0.32,-0.85
192793216,0.19,-0.32,-0.85
192795220,0.18,-0.31,-0.90
192797221,0.18,-0.31,-0.90
192799229,0.18,-0.31,-0.90
192801325,0.18,-0.31,-0.90
192803241,0.18,-0.31,-0.90
192805210,0.16,-0.33,-0.93
192807219,0.16,-0.33,-0.93
192809262,0.16,-0.33,-0.93
192811256,0.16,-0.33,-0.93
192813372,0.16,-0.33,-0.93
192815371,0.15,-0.38,-0.99
192817259,0.15,-0.38,-0.99
192819253,0.15,-0.38,-0.99
192821258,0.15,-0.38,-0.99
192823295,0.15,-0.38,-0.99
192825285,0.15,-0.37,-1.00
192827253,0.15,-0.37,-1.00
192829209,0.15,-0.37,-1.00
192831219,0.15,-0.37,-1.00
192833270,0.15,-0.37,-1.00
192835227,0.14,-0.37,-1.00
192837220,0.14,-0.37,-1.00
192839219,0.14,-0.37,-1.00
192841316,0.14,-0.37,-1.00
192843216,0.14,-0.37,-1.00
192845215,0.14,-0.36,-1.00
192847220,0.14,-0.36,-1.00
192849262,0.14,-0.36,-1.00
192851257,0.14,-0.36,-1.00
192853260,0.14,-0.36,-1.00
192855255,0.14,-0.36,-1.00
192857258,0.16,-0.32,-1.00
192859338,0.16,-0.32,-1.00
192861278,0.16,-0.32,-1.00
192863254,0.16,-0.32,-1.00
192865324,0.16,-0.32,-1.00
192867220,0.17,-0.36,-0.92
192869215,0.17,-0.36,-0.92
192871215,0.17,-0.36,-0.92
192873225,0.17,-0.36,-0.92
192875220,0.17,-0.36,-0.92
192877219,0.18,-0.32,-0.84
192879222,0.18,-0.32,-0.84
192881215,0.18,-0.32,-0.84
192883228,0.18,-0.32,-0.84
192885327,0.18,-0.32,-0.84
192887238,0.19,-0.28,-0.86
192889264,0.19,-0.28,-0.86
192891365,0.19,-0.28,-0.86
192893255,0.19,-0.28,-0.86
192895286,0.19,-0.28,-0.86
192897266,0.19,-0.29,-0.93
192899256,0.19,-0.29,-0.93
192901256,0.19,-0.29,-0.93
192903253,0.19,-0.29,-0.93
192905346,0.19,-0.29,-0.93
192907240,0.20,-0.27,-0.90
192909214,0.20,-0.27,-0.90
192911211,0.20,-0.27,-0.90
192913223,0.20,-0.27,-0.90
192915371,0.20,-0.27,-0.90
192917255,0.20,-0.25,-0.84
192919215,0.20,-0.25,-0.84
192921216,0.20,-0.25,-0.84
192923215,0.20,-0.25,-0.84
192925220,0.20,-0.25,-0.84
192927210,0.20,-0.28,-0.83
192929279,0.20,-0.28,-0.83
192931254,0.20,-0.28,-0.83
192933258,0.20,-0.28,-0.83
192935260,0.20,-0.28,-0.83
192937282,0.19,-0.28,-0.85
192939287,0.19,-0.28,-0.85
192941421,0.19,-0.28,-0.85
192943268,0.19,-0.28,-0.85
192945256,0.19,-0.28,-0.85
192947216,0.19,-0.28,-0.85
192949214,0.19,-0.27,-0.88
192951227,0.19,-0.27,-0.88
192953294,0.19,-0.27,-0.88
192955232,0.19,-0.27,-0.88
192957233,0.19,-0.27,-0.88
192959219,0.18,-0.27,-0.93
192961256,0.18,-0.27,-0.93
192963261,0.18,-0.27,-0.93
192965306,0.18,-0.27,-0.93
192967219,0.18,-0.27,-0.93
192969277,0.18,-0.30,-0.92
192971260,0.18,-0.30,-0.92
192973255,0.18,-0.30,-0.92
192975260,0.18,-0.30,-0.92
192977286,0.18,-0.30,-0.92
192979261,0.16,-0.32,-0.92
192981255,0.16,-0.32,-0.92
192983246,0.16,-0.32,-0.92
192985216,0.16,-0.32,-0.92
192987220,0.16,-0.32,-0.92
192989218,0.14,-0.30,-0.96
192991320,0.14,-0.30,-0.96
192993221,0.14,-0.30,-0.96
192995216,0.14,-0.30,-0.96
192997214,0.14,-0.30,-0.96
192999220,0.13,-0.32,-1.05
193001220,0.13,-0.32,-1.05
193003221,0.13,-0.32,-1.05
193005219,0.13,-0.32,-1.05
193007236,0.13,-0.32,-1.05
193009299,0.12,-0.33,-1.10
193011268,0.12,-0.33,-1.10
193013260,0.12,-0.33,-1.10
193015367,0.12,-0.33,-1.10
193017304,0.12,-0.33,-1.10
193019277,0.12,-0.33,-1.05
193021259,0.12,-0.33,-1.05
193023258,0.12,-0.33,-1.05
193025257,0.12,-0.33,-1.05
193027260,0.12,-0.33,-1.05
193029280,0.12,-0.33,-1.05
193031238,0.12,-0.31,-1.01
193033211,0.12,-0.31,-1.01
193035210,0.12,-0.31,-1.01
193037211,0.12,-0.31,-1.01
193039250,0.12,-0.31,-1.01
193041317,0.12,-0.32,-1.02
193043260,0.12,-0.32,-1.02
193045215,0.12,-0.32,-1.02
193047212,0.12,-0.32,-1.02
193049211,0.12,-0.32,-1.02
193051284,0.12,-0.31,-1.04
193053256,0.12,-0.31,-1.04
193055255,0.12,-0.31,-1.04
193057286,0.12,-0.31,-1.04
193059290,0.12,-0.31,-1.04
193061272,0.12,-0.32,-1.05
193063255,0.12,-0.32,-1.05
193065389,0.12,-0.32,-1.05
193067307,0.12,-0.32,-1.05
193069281,0.12,-0.32,-1.05
193071258,0.11,-0.32,-1.02
193073220,0.11,-0.32,-1.02
193075226,0.11,-0.32,-1.02
193077294,0.11,-0.32,-1.02
193079230,0.11,-0.32,-1.02
193081213,0.08,-0.32,-0.98
193083232,0.08,-0.32,-0.98
193085259,0.08,-0.32,-0.98
193087215,0.08,-0.32,-0.98
193089213,0.08,-0.32,-0.98
193091382,0.05,-0.32,-1.01
193093254,0.05,-0.32,-1.01
193095252,0.05,-0.32,-1.01
193097254,0.05,-0.32,-1.01
193099326,0.05,-0.32,-1.01
193101267,-0.00,-0.33,-1.14
193103257,-0.00,-0.33,-1.14
193105254,-0.00,-0.33,-1.14
193107263,-0.00,-0.33,-1.14
193109285,-0.00,-0.33,-1.14
193111236,-0.00,-0.33,-1.14
193113219,-0.05,-0.37,-1.29
193115357,-0.05,-0.37,-1.29
193117237,-0.05,-0.37,-1.29
193119257,-0.05,-0.37,-1.29
193121212,-0.05,-0.37,-1.29
193123216,-0.09,-0.38,-1.29
193125212,-0.09,-0.38,-1.29
193127214,-0.09,-0.38,-1.29
193129216,-0.09,-0.38,-1.29
193131280,-0.09,-0.38,-1.29
193133255,-0.12,-0.39,-1.20
193135257,-0.12,-0.39,-1.20
193137256,-0.12,-0.39,-1.20
193139261,-0.12,-0.39,-1.20
193141382,-0.12,-0.39,-1.20
193143258,-0.15,-0.38,-1.13
193145254,-0.15,-0.38,-1.13
193147216,-0.15,-0.38,-1.13
193149220,-0.15,-0.38,-1.13
193151214,-0.15,-0.38,-1.13
193153218,-0.18,-0.33,-1.16
193155220,-0.18,-0.33,-1.16
193157219,-0.18,-0.33,-1.16
193159219,-0.18,-0.33,-1.16
193161234,-0.18,-0.33,-1.16
193163221,-0.19,-0.39,-1.26
193165294,-0.19,-0.39,-1.26
193167225,-0.19,-0.39,-1.26
193169216,-0.19,-0.39,-1.26
193171256,-0.19,-0.39,-1.26
193173260,-0.20,-0.38,-1.21
193175259,-0.20,-0.38,-1.21
193177260,-0.20,-0.38,-1.21
193179257,-0.20,-0.38,-1.21
193181254,-0.20,-0.38,-1.21
193183217,-0.20,-0.44,-1.08
193185218,-0.20,-0.44,-1.08
193187216,-0.20,-0.44,-1.08
193189215,-0.20,-0.44,-1.08
193191296,-0.20,-0.44,-1.08
193193253,-0.20,-0.47,-1.02
193195305,-0.20,-0.47,-1.02
193197247,-0.20,-0.47,-1.02
193199215,-0.20,-0.47,-1.02
193201224,-0.20,-0.47,-1.02
193203215,-0.20,-0.47,-1.02
193205211,-0.20,-0.38,-1.04
193207211,-0.20,-0.38,-1.04
193209211,-0.20,-0.38,-1.04
193211264,-0.20,-0.38,-1.04
193213257,-0.20,-0.38,-1.04
193215370,-0.19,-0.38,-1.07
193217262,-0.19,-0.38,-1.07
193219336,-0.19,-0.38,-1.07
193221265,-0.19,-0.38,-1.07
193223253,-0.19,-0.38,-1.07
193225257,-0.18,-0.36,-1.00
193227246,-0.18,-0.36,-1.00
193229216,-0.18,-0.36,-1.00
193231222,-0.18,-0.36,-1.00
193233218,-0.18,-0.36,-1.00
193235287,-0.19,-0.29,-0.86
193237230,-0.19,-0.29,-0.86
193239211,-0.19,-0.29,-0.86
193241316,-0.19,-0.29,-0.86
193243212,-0.19,-0.29,-0.86
193245246,-0.20,-0.27,-0.82
193247211,-0.20,-0.27,-0.82
193249215,-0.20,-0.27,-0.82
193251295,-0.20,-0.27,-0.82
193253345,-0.20,-0.27,-0.82
193255279,-0.21,-0.26,-0.89
193257260,-0.21,-0.26,-0.89
193259278,-0.21,-0.26,-0.89
193261312,-0.21,-0.26,-0.89
193263265,-0.21,-0.26,-0.89
193265356,-0.23,-0.23,-0.94
193267255,-0.23,-0.23,-0.94
193269295,-0.23,-0.23,-0.94
193271282,-0.23,-0.23,-0.94
193273237,-0.23,-0.23,-0.94
193275217,-0.25,-0.20,-0.89
193277216,-0.25,-0.20,-0.89
193279213,-0.25,-0.20,-0.89
193281214,-0.25,-0.20,-0.89
193283219,-0.25,-0.20,-0.89
193285216,-0.25,-0.20,-0.89
193287216,-0.25,-0.24,-0.86
193289229,-0.25,-0.24,-0.86
193291373,-0.25,-0.24,-0.86
193293299,-0.25,-0.24,-0.86
193295276,-0.25,-0.24,-0.86
193297257,-0.27,-0.25,-0.84
193299257,-0.27,-0.25,-0.84
193301258,-0.27,-0.25,-0.84
193303286,-0.27,-0.25,-0.84
193305284,-0.27,-0.25,-0.84
193307256,-0.27,-0.23,-0.87
193309218,-0.27,-0.23,-0.87
193311220,-0.27,-0.23,-0.87
193313233,-0.27,-0.23,-0.87
193315374,-0.27,-0.23,-0.87
193317257,-0.26,-0.19,-0.87
193319216,-0.26,-0.19,-0.87
193321220,-0.26,-0.19,-0.87
193323261,-0.26,-0.19,-0.87
193325243,-0.26,-0.19,-0.87
193327212,-0.25,-0.14,-0.80
193329218,-0.25,-0.14,-0.80
193331281,-0.25,-0.14,-0.80
193333255,-0.25,-0.14,-0.80
193335256,-0.25,-0.14,-0.80
193337257,-0.23,-0.08,-0.74
193339258,-0.23,-0.08,-0.74
193341369,-0.23,-0.08,-0.74
193343299,-0.23,-0.08,-0.74
193345279,-0.23,-0.08,-0.74
193347254,-0.20,-0.04,-0.69
193349221,-0.20,-0.04,-0.69
193351220,-0.20,-0.04,-0.69
193353214,-0.20,-0.04,-0.69
193355221,-0.20,-0.04,-0.69
193357285,-0.19,-0.06,-0.65
193359257,-0.19,-0.06,-0.65
193361232,-0.19,-0.06,-0.65
193363226,-0.19,-0.06,-0.65
193365364,-0.19,-0.06,-0.65
193367223,-0.19,-0.06,-0.65
193369215,-0.16,-0.06,-0.56
193371421,-0.16,-0.06,-0.56
193373260,-0.16,-0.06,-0.56
193375258,-0.16,-0.06,-0.56
193377260,-0.16,-0.06,-0.56
193379281,-0.14,-0.01,-0.45
193381268,-0.14,-0.01,-0.45
193383257,-0.14,-0.01,-0.45
193385257,-0.14,-0.01,-0.45
193387258,-0.14,-0.01,-0.45
193389288,-0.11,0.04,-0.42
193391345,-0.11,0.04,-0.42
193393223,-0.11,0.04,-0.42
193395220,-0.11,0.04,-0.42
193397228,-0.11,0.04,-0.42
193399259,-0.09,0.06,-0.46
193401223,-0.09,0.06,-0.46
193403216,-0.09,0.06,-0.46
193405222,-0.09,0.06,-0.46
193407223,-0.09,0.06,-0.46
193409220,-0.08,0.10,-0.46
193411278,-0.08,0.10,-0.46
193413259,-0.08,0.10,-0.46
193415361,-0.08,0.10,-0.46
193417280,-0.08,0.10,-0.46
193419296,-0.05,0.13,-0.44
193421280,-0.05,0.13,-0.44
193423259,-0.05,0.13,-0.44
193425255,-0.05,0.13,-0.44
193427256,-0.05,0.13,-0.44
193429222,-0.04,0.16,-0.43
193431227,-0.04,0.16,-0.43
193433224,-0.04,0.16,-0.43
193435218,-0.04,0.16,-0.43
193437225,-0.04,0.16,-0.43
193439224,-0.03,0.27,-0.47
193441319,-0.03,0.27,-0.47
193443225,-0.03,0.27,-0.47
193445222,-0.03,0.27,-0.47
193447275,-0.03,0.27,-0.47
193449231,-0.00,0.36,-0.61
193451263,-0.00,0.36,-0.61
193453258,-0.00,0.36,-0.61
193455274,-0.00,0.36,-0.61
193457305,-0.00,0.36,-0.61
193459285,-0.00,0.36,-0.61
193461258,0.00,0.34,-0.70
193463267,0.00,0.34,-0.70
193465362,0.00,0.34,-0.70
193467224,0.00,0.34,-0.70
193469222,0.00,0.34,-0.70
193471222,-0.02,0.25,-0.67
193473222,-0.02,0.25,-0.67
193475217,-0.02,0.25,-0.67
193477220,-0.02,0.25,-0.67
193479222,-0.02,0.25,-0.67
193481225,-0.04,0.12,-0.65
193483220,-0.04,0.12,-0.65
193485283,-0.04,0.12,-0.65
193487260,-0.04,0.12,-0.65
193489219,-0.04,0.12,-0.65
193491371,-0.05,0.11,-0.72
193493270,-0.05,0.11,-0.72
193495250,-0.05,0.11,-0.72
193497289,-0.05,0.11,-0.72
193499279,-0.05,0.11,-0.72
193501249,-0.06,0.09,-0.84
193503249,-0.06,0.09,-0.84
193505248,-0.06,0.09,-0.84
193507212,-0.06,0.09,-0.84
193509206,-0.06,0.09,-0.84
193511207,-0.05,0.05,-0.82
193513209,-0.05,0.05,-0.82
193515311,-0.05,0.05,-0.82
193517261,-0.05,0.05,-0.82
193519213,-0.05,0.05,-0.82
193521211,-0.06,0.07,-0.68
193523206,-0.06,0.07,-0.68
193525204,-0.06,0.07,-0.68
193527208,-0.06,0.07,-0.68
193529211,-0.06,0.07,-0.68
193531254,-0.07,0.12,-0.62
193533250,-0.07,0.12,-0.62
193535248,-0.07,0.12,-0.62
193537248,-0.07,0.12,-0.62
193539255,-0.07,0.12,-0.62
193541341,-0.07,0.23,-0.78
193543213,-0.07,0.23,-0.78
193545208,-0.07,0.23,-0.78
193547213,-0.07,0.23,-0.78
193549216,-0.07,0.23,-0.78
193551210,-0.07,0.23,-0.78
193553220,-0.05,0.36,-0.98
193555336,-0.05,0.36,-0.98
193557233,-0.05,0.36,-0.98
193559208,-0.05,0.36,-0.98
193561222,-0.05,0.36,-0.98
193563220,-0.04,0.40,-0.95
193565230,-0.04,0.40,-0.95
193567211,-0.04,0.40,-0.95
193569211,-0.04,0.40,-0.95
193571280,-0.04,0.40,-0.95
193573276,-0.06,0.37,-0.70
193575279,-0.06,0.37,-0.70
193577255,-0.06,0.37,-0.70
193579247,-0.06,0.37,-0.70
193581248,-0.06,0.37,-0.70
193583253,-0.11,0.30,-0.60
193585249,-0.11,0.30,-0.60
193587211,-0.11,0.30,-0.60
193589215,-0.11,0.30,-0.60
193591242,-0.11,0.30,-0.60
193593214,-0.16,0.24,-0.88
193595221,-0.16,0.24,-0.88
193597315,-0.16,0.24,-0.88
193599233,-0.16,0.24,-0.88
193601213,-0.16,0.24,-0.88
193603206,-0.21,0.25,-1.21
193605205,-0.21,0.25,-1.21
193607230,-0.21,0.25,-1.21
193609255,-0.21,0.25,-1.21
193611263,-0.21,0.25,-1.21
193613253,-0.25,0.17,-1.20
193615276,-0.25,0.17,-1.20
193617292,-0.25,0.17,-1.20
193619274,-0.25,0.17,-1.20
193621259,-0.25,0.17,-1.20
193623249,-0.29,0.05,-1.06
193625254,-0.29,0.05,-1.06
193627287,-0.29,0.05,-1.06
193629263,-0.29,0.05,-1.06
193631242,-0.29,0.05,-1.06
193633206,-0.29,0.05,-1.06
193635208,-0.33,0.19,-1.05
193637207,-0.33,0.19,-1.05
193639206,-0.33,0.19,-1.05
193641244,-0.33,0.19,-1.05
193643279,-0.33,0.19,-1.05
193645228,-0.35,0.34,-1.33
193647207,-0.35,0.34,-1.33
193649206,-0.35,0.34,-1.33
193651262,-0.35,0.34,-1.33
193653270,-0.35,0.34,-1.33
193655247,-0.32,0.68,-1.35
193657251,-0.32,0.68,-1.35
193659256,-0.32,0.68,-1.35
193661274,-0.32,0.68,-1.35
193663267,-0.32,0.68,-1.35
193665284,-0.34,0.62,-1.12
193667249,-0.34,0.62,-1.12
193669211,-0.34,0.62,-1.12
193671211,-0.34,0.62,-1.12
193673273,-0.34,0.62,-1.12
193675226,-0.40,0.46,-0.96
193677206,-0.40,0.46,-0.96
193679206,-0.40,0.46,-0.96
193681205,-0.40,0.46,-0.96
193683206,-0.40,0.46,-0.96
193685206,-0.48,0.42,-1.08
193687205,-0.48,0.42,-1.08
193689257,-0.48,0.42,-1.08
193691292,-0.48,0.42,-1.08
193693256,-0.48,0.42,-1.08
193695250,-0.53,0.34,-1.41
193697256,-0.53,0.34,-1.41
193699267,-0.53,0.34,-1.41
193701274,-0.53,0.34,-1.41
193703252,-0.53,0.34,-1.41
193705248,-0.57,0.38,-1.45
193707267,-0.57,0.38,-1.45
193709270,-0.57,0.38,-1.45
193711236,-0.57,0.38,-1.45
193713205,-0.57,0.38,-1.45
193715230,-0.57,0.38,-1.45
193717282,-0.61,0.28,-1.34
193719238,-0.61,0.28,-1.34
193721212,-0.61,0.28,-1.34
193723208,-0.61,0.28,-1.34
193725213,-0.61,0.28,-1.34
193727211,-0.64,0.20,-1.34
193729210,-0.64,0.20,-1.34
193731266,-0.64,0.20,-1.34
193733253,-0.64,0.20,-1.34
193735246,-0.64,0.20,-1.34
193737248,-0.68,0.33,-1.50
193739245,-0.68,0.33,-1.50
193741268,-0.68,0.33,-1.50
193743248,-0.68,0.33,-1.50
193745211,-0.68,0.33,-1.50
193747210,-0.70,0.39,-1.62
193749209,-0.70,0.39,-1.62
193751215,-0.70,0.39,-1.62
193753230,-0.70,0.39,-1.62
193755246,-0.70,0.39,-1.62
193757207,-0.67,0.36,-1.52
193759213,-0.67,0.36,-1.52
193761229,-0.67,0.36,-1.52
193763212,-0.67,0.36,-1.52
193765225,-0.67,0.36,-1.52
193767206,-0.63,0.35,-1.16
193769205,-0.63,0.35,-1.16
193771257,-0.63,0.35,-1.16
193773327,-0.63,0.35,-1.16
193775335,-0.63,0.35,-1.16
193777259,-0.63,0.31,-0.91
193779250,-0.63,0.31,-0.91
193781256,-0.63,0.31,-0.91
193783248,-0.63,0.31,-0.91
193785245,-0.63,0.31,-0.91
193787209,-0.61,0.35,-0.92
193789223,-0.61,0.35,-0.92
193791249,-0.61,0.35,-0.92
193793212,-0.61,0.35,-0.92
193795211,-0.61,0.35,-0.92
193797208,-0.61,0.35,-0.92
193799207,-0.61,0.44,-1.05
193801203,-0.61,0.44,-1.05
193803207,-0.61,0.44,-1.05
193805208,-0.61,0.44,-1.05
193807241,-0.61,0.44,-1.05
193809351,-0.58,0.47,-1.07
193811264,-0.58,0.47,-1.07
193813250,-0.58,0.47,-1.07
193815279,-0.58,0.47,-1.07
193817267,-0.58,0.47,-1.07
193819254,-0.59,0.49,-0.98
193821253,-0.59,0.49,-0.98
193823249,-0.59,0.49,-0.98
193825237,-0.59,0.49,-0.98
193827211,-0.59,0.49,-0.98
193829214,-0.62,0.40,-1.17
193831219,-0.62,0.40,-1.17
193833314,-0.62,0.40,-1.17
193835232,-0.62,0.40,-1.17
193837205,-0.62,0.40,-1.17
193839208,-0.62,0.33,-1.47
193841240,-0.62,0.33,-1.47
193843206,-0.62,0.33,-1.47
193845211,-0.62,0.33,-1.47
193847254,-0.62,0.33,-1.47
193849208,-0.61,0.35,-1.48
193851270,-0.61,0.35,-1.48
193853250,-0.61,0.35,-1.48
193855259,-0.61,0.35,-1.48
193857266,-0.61,0.35,-1.48
193859256,-0.57,0.27,-1.25
193861256,-0.57,0.27,-1.25
193863260,-0.57,0.27,-1.25
193865328,-0.57,0.27,-1.25
193867285,-0.57,0.27,-1.25
193869247,-0.52,0.32,-1.04
193871212,-0.52,0.32,-1.04
193873212,-0.52,0.32,-1.04
193875216,-0.52,0.32,-1.04
193877276,-0.52,0.32,-1.04
193879232,-0.47,0.42,-0.95
193881207,-0.47,0.42,-0.95
193883207,-0.47,0.42,-0.95
193885207,-0.47,0.42,-0.95
193887206,-0.47,0.42,-0.95
193889210,-0.47,0.42,-0.95
193891284,-0.43,0.45,-0.90
193893248,-0.43,0.45,-0.90
193895248,-0.43,0.45,-0.90
193897245,-0.43,0.45,-0.90
193899248,-0.43,0.45,-0.90
193901271,-0.40,0.52,-0.81
193903330,-0.40,0.52,-0.81
193905236,-0.40,0.52,-0.81
193907205,-0.40,0.52,-0.81
193909210,-0.40,0.52,-0.81
193911212,-0.36,0.50,-0.70
193913208,-0.36,0.50,-0.70
193915230,-0.36,0.50,-0.70
193917246,-0.36,0.50,-0.70
193919256,-0.36,0.50,-0.70
193921215,-0.32,0.46,-0.64
193923212,-0.32,0.46,-0.64
193925210,-0.32,0.46,-0.64
193927208,-0.32,0.46,-0.64
193929210,-0.32,0.46,-0.64
193931265,-0.29,0.43,-0.58
193933252,-0.29,0.43,-0.58
193935251,-0.29,0.43,-0.58
193937250,-0.29,0.43,-0.58
193939249,-0.29,0.43,-0.58
193941300,-0.27,0.37,-0.59
193943287,-0.27,0.37,-0.59
193945263,-0.27,0.37,-0.59
193947245,-0.27,0.37,-0.59
193949216,-0.27,0.37,-0.59
193951212,-0.27,0.33,-0.53
193953210,-0.27,0.33,-0.53
193955215,-0.27,0.33,-0.53
193957225,-0.27,0.33,-0.53
193959259,-0.27,0.33,-0.53
193961279,-0.25,0.35,-0.52
193963241,-0.25,0.35,-0.52
193965237,-0.25,0.35,-0.52
193967210,-0.25,0.35,-0.52
193969257,-0.25,0.35,-0.52
193971264,-0.25,0.35,-0.52
193973254,-0.25,0.33,-0.56
193975252,-0.25,0.33,-0.56
193977263,-0.25,0.33,-0.56
193979276,-0.25,0.33,-0.56
193981271,-0.25,0.33,-0.56
193983247,-0.25,0.33,-0.57
193985244,-0.25,0.33,-0.57
193987247,-0.25,0.33,-0.57
193989216,-0.25,0.33,-0.57
193991334,-0.25,0.33,-0.57
193993229,-0.25,0.36,-0.56
193995201,-0.25,0.36,-0.56
193997206,-0.25,0.36,-0.56
193999232,-0.25,0.36,-0.56
194001251,-0.25,0.36,-0.56
194003205,-0.24,0.40,-0.57
194005205,-0.24,0.40,-0.57
194007205,-0.24,0.40,-0.57
194009195,-0.24,0.40,-0.57
194011265,-0.24,0.40,-0.57
194013250,-0.24,0.41,-0.61
194015273,-0.24,0.41,-0.61
194017267,-0.24,0.41,-0.61
194019273,-0.24,0.41,-0.61
194021272,-0.24,0.41,-0.61
194023257,-0.25,0.36,-0.62
194025249,-0.25,0.36,-0.62
194027244,-0.25,0.36,-0.62
194029204,-0.25,0.36,-0.62
194031204,-0.25,0.36,-0.62
194033251,-0.28,0.30,-0.65
194035255,-0.28,0.30,-0.65
194037207,-0.28,0.30,-0.65
194039221,-0.28,0.30,-0.65
194041240,-0.28,0.30,-0.65
194043210,-0.30,0.27,-0.76
194045206,-0.30,0.27,-0.76
194047205,-0.30,0.27,-0.76
194049203,-0.30,0.27,-0.76
194051256,-0.30,0.27,-0.76
194053251,-0.30,0.29,-0.90
194055255,-0.30,0.29,-0.90
194057252,-0.30,0.29,-0.90
194059282,-0.30,0.29,-0.90
194061267,-0.30,0.29,-0.90
194063278,-0.30,0.29,-0.90
194065272,-0.29,0.27,-0.94
194067244,-0.29,0.27,-0.94
194069205,-0.29,0.27,-0.94
194071205,-0.29,0.27,-0.94
194073204,-0.29,0.27,-0.94
194075203,-0.28,0.24,-0.81
194077205,-0.28,0.24,-0.81
194079219,-0.28,0.24,-0.81
194081306,-0.28,0.24,-0.81
194083234,-0.28,0.24,-0.81
194085202,-0.27,0.25,-0.71
194087226,-0.27,0.25,-0.71
194089253,-0.27,0.25,-0.71
194091297,-0.27,0.25,-0.71
194093252,-0.27,0.25,-0.71
194095245,-0.25,0.26,-0.73
194097247,-0.25,0.26,-0.73
194099276,-0.25,0.26,-0.73
194101275,-0.25,0.26,-0.73
194103245,-0.25,0.26,-0.73
194105236,-0.23,0.29,-0.79
194107204,-0.23,0.29,-0.79
194109266,-0.23,0.29,-0.79
194111249,-0.23,0.29,-0.79
194113206,-0.23,0.29,-0.79
194115228,-0.21,0.32,-0.77
194117238,-0.21,0.32,-0.77
194119207,-0.21,0.32,-0.77
194121257,-0.21,0.32,-0.77
194123206,-0.21,0.32,-0.77
194125203,-0.21,0.32,-0.73
194127193,-0.21,0.32,-0.73
194129195,-0.21,0.32,-0.73
194131272,-0.21,0.32,-0.73
194133251,-0.21,0.32,-0.73
194135245,-0.21,0.25,-0.72
194137266,-0.21,0.25,-0.72
194139281,-0.21,0.25,-0.72
194141282,-0.21,0.25,-0.72
194143247,-0.21,0.25,-0.72
194145244,-0.21,0.25,-0.72
194147247,-0.20,0.24,-0.73
194149273,-0.20,0.24,-0.73
194151229,-0.20,0.24,-0.73
194153205,-0.20,0.24,-0.73
194155203,-0.20,0.24,-0.73
194157205,-0.20,0.22,-0.73
194159206,-0.20,0.22,-0.73
194161221,-0.20,0.22,-0.73
194163225,-0.20,0.22,-0.73
194165279,-0.20,0.22,-0.73
194167254,-0.20,0.21,-0.75
194169203,-0.20,0.21,-0.75
194171270,-0.20,0.21,-0.75
194173250,-0.20,0.21,-0.75
194175245,-0.20,0.21,-0.75
194177240,-0.20,0.24,-0.78
194179246,-0.20,0.24,-0.78
194181245,-0.20,0.24,-0.78
194183251,-0.20,0.24,-0.78
194185211,-0.20,0.24,-0.78
194187206,-0.19,0.27,-0.84
194189205,-0.19,0.27,-0.84
194191241,-0.19,0.27,-0.84
194193206,-0.19,0.27,-0.84
194195271,-0.19,0.27,-0.84
194197251,-0.18,0.34,-0.87
194199204,-0.18,0.34,-0.87
194201204,-0.18,0.34,-0.87
194203206,-0.18,0.34,-0.87
194205205,-0.18,0.34,-0.87
194207201,-0.19,0.36,-0.86
194209208,-0.19,0.36,-0.86
194211264,-0.19,0.36,-0.86
194213247,-0.19,0.36,-0.86
194215270,-0.19,0.36,-0.86
194217269,-0.21,0.38,-0.86
194219254,-0.21,0.38,-0.86
194221285,-0.21,0.38,-0.86
194223269,-0.21,0.38,-0.86
194225246,-0.21,0.38,-0.86
194227204,-0.21,0.38,-0.86
194229202,-0.23,0.38,-0.89
194231218,-0.23,0.38,-0.89
194233275,-0.23,0.38,-0.89
194235212,-0.23,0.38,-0.89
194237202,-0.23,0.38,-0.89
194239194,-0.25,0.37,-0.92
194241246,-0.25,0.37,-0.92
194243254,-0.25,0.37,-0.92
194245202,-0.25,0.37,-0.92
194247202,-0.25,0.37,-0.92
194249207,-0.30,0.42,-0.92
194251269,-0.30,0.42,-0.92
194253250,-0.30,0.42,-0.92
194255246,-0.30,0.42,-0.92
194257268,-0.30,0.42,-0.92
194259278,-0.36,0.46,-0.95
194261266,-0.36,0.46,-0.95
194263253,-0.36,0.46,-0.95
194265358,-0.36,0.46,-0.95
194267277,-0.36,0.46,-0.95
194269230,-0.39,0.48,-0.99
194271204,-0.39,0.48,-0.99
194273204,-0.39,0.48,-0.99
194275205,-0.39,0.48,-0.99
194277210,-0.39,0.48,-0.99
194279207,-0.44,0.51,-0.99
194281204,-0.44,0.51,-0.99
194283219,-0.44,0.51,-0.99
194285310,-0.44,0.51,-0.99
194287233,-0.44,0.51,-0.99
194289216,-0.48,0.50,-0.98
194291283,-0.48,0.50,-0.98
194293286,-0.48,0.50,-0.98
194295270,-0.48,0.50,-0.98
194297242,-0.48,0.50,-0.98
194299243,-0.50,0.43,-1.03
194301255,-0.50,0.43,-1.03
194303273,-0.50,0.43,-1.03
194305257,-0.50,0.43,-1.03
194307244,-0.50,0.43,-1.03
194309202,-0.50,0.35,-1.14
194311238,-0.50,0.35,-1.14
194313292,-0.50,0.35,-1.14
194315353,-0.50,0.35,-1.14
194317252,-0.50,0.35,-1.14
194319207,-0.50,0.35,-1.14
194321254,-0.49,0.29,-1.21
194323206,-0.49,0.29,-1.21
194325195,-0.49,0.29,-1.21
194327202,-0.49,0.29,-1.21
194329204,-0.49,0.29,-1.21
194331269,-0.48,0.25,-1.20
194333249,-0.48,0.25,-1.20
194335247,-0.48,0.25,-1.20
194337313,-0.48,0.25,-1.20
194339253,-0.48,0.25,-1.20
194341268,-0.47,0.30,-1.18
194343244,-0.47,0.30,-1.18
194345208,-0.47,0.30,-1.18
194347207,-0.47,0.30,-1.18
194349203,-0.47,0.30,-1.18
194351205,-0.46,0.41,-1.14
194353205,-0.46,0.41,-1.14
194355204,-0.46,0.41,-1.14
194357208,-0.46,0.41,-1.14
194359209,-0.46,0.41,-1.14
194361221,-0.47,0.52,-1.05
194363222,-0.47,0.52,-1.05
194365219,-0.47,0.52,-1.05
194367204,-0.47,0.52,-1.05
194369214,-0.47,0.52,-1.05
194371325,-0.48,0.66,-0.99
194373268,-0.48,0.66,-0.99
194375246,-0.48,0.66,-0.99
194377247,-0.48,0.66,-0.99
194379249,-0.48,0.66,-0.99
194381245,-0.49,0.75,-0.94
194383276,-0.49,0.75,-0.94
194385257,-0.49,0.75,-0.94
194387245,-0.49,0.75,-0.94
194389229,-0.49,0.75,-0.94
194391241,-0.50,0.81,-0.86
194393207,-0.50,0.81,-0.86
194395204,-0.50,0.81,-0.86
194397210,-0.50,0.81,-0.86
194399203,-0.50,0.81,-0.86
194401204,-0.50,0.81,-0.86
194403203,-0.50,0.87,-0.76
194405273,-0.50,0.87,-0.76
194407250,-0.50,0.87,-0.76
194409207,-0.50,0.87,-0.76
194411203,-0.50,0.87,-0.76
194413262,-0.50,0.87,-0.71
194415293,-0.50,0.87,-0.71
194417258,-0.50,0.87,-0.71
194419270,-0.50,0.87,-0.71
194421246,-0.50,0.87,-0.71
194423277,-0.50,0.88,-0.68
194425276,-0.50,0.88,-0.68
194427254,-0.50,0.88,-0.68
194429242,-0.50,0.88,-0.68
194431234,-0.50,0.88,-0.68
194433265,-0.51,0.86,-0.72
194435257,-0.51,0.86,-0.72
194437206,-0.51,0.86,-0.72
194439195,-0.51,0.86,-0.72
194441237,-0.51,0.86,-0.72
194443225,-0.52,0.82,-0.76
194445249,-0.52,0.82,-0.76
194447207,-0.52,0.82,-0.76
194449194,-0.52,0.82,-0.76
194451193,-0.52,0.82,-0.76
194453266,-0.51,0.77,-0.81
194455250,-0.51,0.77,-0.81
194457250,-0.51,0.77,-0.81
194459274,-0.51,0.77,-0.81
194461353,-0.51,0.77,-0.81
194463270,-0.50,0.67,-0.79
194465274,-0.50,0.67,-0.79
194467243,-0.50,0.67,-0.79
194469244,-0.50,0.67,-0.79
194471246,-0.50,0.67,-0.79
194473204,-0.50,0.61,-0.71
194475206,-0.50,0.61,-0.71
194477207,-0.50,0.61,-0.71
194479207,-0.50,0.61,-0.71
194481204,-0.50,0.61,-0.71
194483208,-0.50,0.61,-0.71
194485203,-0.48,0.56,-0.64
194487203,-0.48,0.56,-0.64
194489206,-0.48,0.56,-0.64
194491227,-0.48,0.56,-0.64
194493253,-0.48,0.56,-0.64
194495268,-0.46,0.54,-0.68
194497281,-0.46,0.54,-0.68
194499274,-0.46,0.54,-0.68
194501246,-0.46,0.54,-0.68
194503245,-0.46,0.54,-0.68
194505247,-0.45,0.55,-0.71
194507252,-0.45,0.55,-0.71
194509273,-0.45,0.55,-0.71
194511234,-0.45,0.55,-0.71
194513209,-0.45,0.55,-0.71
194515228,-0.43,0.56,-0.67
194517207,-0.43,0.56,-0.67
194519248,-0.43,0.56,-0.67
194521257,-0.43,0.56,-0.67
194523204,-0.43,0.56,-0.67
194525195,-0.41,0.52,-0.61
194527203,-0.41,0.52,-0.61
194529203,-0.41,0.52,-0.61
194531204,-0.41,0.52,-0.61
194533266,-0.41,0.52,-0.61
194535250,-0.39,0.52,-0.56
194537250,-0.39,0.52,-0.56
194539253,-0.39,0.52,-0.56
194541301,-0.39,0.52,-0.56
194543257,-0.39,0.52,-0.56
194545248,-0.38,0.50,-0.56
194547243,-0.38,0.50,-0.56
194549260,-0.38,0.50,-0.56
194551279,-0.38,0.50,-0.56
194553213,-0.38,0.50,-0.56
194555206,-0.36,0.50,-0.56
194557208,-0.36,0.50,-0.56
194559253,-0.36,0.50,-0.56
194561242,-0.36,0.50,-0.56
194563219,-0.36,0.50,-0.56
194565227,-0.34,0.49,-0.57
194567207,-0.34,0.49,-0.57
194569206,-0.34,0.49,-0.57
194571192,-0.34,0.49,-0.57
194573272,-0.34,0.49,-0.57
194575271,-0.34,0.49,-0.57
194577246,-0.32,0.47,-0.55
194579245,-0.32,0.47,-0.55
194581249,-0.32,0.47,-0.55
194583315,-0.32,0.47,-0.55
194585260,-0.32,0.47,-0.55
194587246,-0.31,0.47,-0.52
194589246,-0.31,0.47,-0.52
194591268,-0.31,0.47,-0.52
194593271,-0.31,0.47,-0.52
194595226,-0.31,0.47,-0.52
194597195,-0.29,0.47,-0.49
194599202,-0.29,0.47,-0.49
194601250,-0.29,0.47,-0.49
194603204,-0.29,0.47,-0.49
194605194,-0.29,0.47,-0.49
194607204,-0.29,0.48,-0.50
194609204,-0.29,0.48,-0.50
194611194,-0.29,0.48,-0.50
194613266,-0.29,0.48,-0.50
194615273,-0.29,0.48,-0.50
194617248,-0.29,0.51,-0.52
194619292,-0.29,0.51,-0.52
194621270,-0.29,0.51,-0.52
194623256,-0.29,0.51,-0.52
194625244,-0.29,0.51,-0.52
194627248,-0.29,0.55,-0.52
194629250,-0.29,0.55,-0.52
194631212,-0.29,0.55,-0.52
194633210,-0.29,0.55,-0.52
194635206,-0.29,0.55,-0.52
194637207,-0.29,0.58,-0.49
194639205,-0.29,0.58,-0.49
194641241,-0.29,0.58,-0.49
194643216,-0.29,0.58,-0.49
194645206,-0.29,0.58,-0.49
194647204,-0.30,0.58,-0.48
194649204,-0.30,0.58,-0.48
194651203,-0.30,0.58,-0.48
194653249,-0.30,0.58,-0.48
194655246,-0.30,0.58,-0.48
194657246,-0.30,0.58,-0.48
194659249,-0.32,0.62,-0.47
194661253,-0.32,0.62,-0.47
194663249,-0.32,0.62,-0.47
194665295,-0.32,0.62,-0.47
194667212,-0.32,0.62,-0.47
194669205,-0.32,0.67,-0.48
194671208,-0.32,0.67,-0.48
194673203,-0.32,0.67,-0.48
194675203,-0.32,0.67,-0.48
194677251,-0.32,0.67,-0.48
194679243,-0.33,0.68,-0.50
194681276,-0.33,0.68,-0.50
194683229,-0.33,0.68,-0.50
194685205,-0.33,0.68,-0.50
194687195,-0.33,0.68,-0.50
194689202,-0.34,0.69,-0.48
194691234,-0.34,0.69,-0.48
194693277,-0.34,0.69,-0.48
194695268,-0.34,0.69,-0.48
194697270,-0.34,0.69,-0.48
194699248,-0.37,0.66,-0.44
194701251,-0.37,0.66,-0.44
194703334,-0.37,0.66,-0.44
194705264,-0.37,0.66,-0.44
194707246,-0.37,0.66,-0.44
194709246,-0.39,0.70,-0.45
194711268,-0.39,0.70,-0.45
194713252,-0.39,0.70,-0.45
194715310,-0.39,0.70,-0.45
194717213,-0.39,0.70,-0.45
194719240,-0.39,0.73,-0.54
194721219,-0.39,0.73,-0.54
194723256,-0.39,0.73,-0.54
194725207,-0.39,0.73,-0.54
194727203,-0.39,0.73,-0.54
194729203,-0.40,0.76,-0.58
194731203,-0.40,0.76,-0.58
194733267,-0.40,0.76,-0.58
194735250,-0.40,0.76,-0.58
194737246,-0.40,0.76,-0.58
194739253,-0.40,0.76,-0.58
194741303,-0.43,0.79,-0.50
194743257,-0.43,0.79,-0.50
194745244,-0.43,0.79,-0.50
194747246,-0.43,0.79,-0.50
194749279,-0.43,0.79,-0.50
194751250,-0.45,0.80,-0.45
194753208,-0.45,0.80,-0.45
194755205,-0.45,0.80,-0.45
194757203,-0.45,0.80,-0.45
194759272,-0.45,0.80,-0.45
194761228,-0.48,0.85,-0.45
194763216,-0.48,0.85,-0.45
194765228,-0.48,0.85,-0.45
194767210,-0.48,0.85,-0.45
194769211,-0.48,0.85,-0.45
194771206,-0.51,0.97,-0.50
194773273,-0.51,0.97,-0.50
194775312,-0.51,0.97,-0.50
194777250,-0.51,0.97,-0.50
194779242,-0.51,0.97,-0.50
194781245,-0.54,1.09,-0.57
194783241,-0.54,1.09,-0.57
194785246,-0.54,1.09,-0.57
194787206,-0.54,1.09,-0.57
194789221,-0.54,1.09,-0.57
194791232,-0.55,1.15,-0.59
194793204,-0.55,1.15,-0.59
194795203,-0.55,1.15,-0.59
194797202,-0.55,1.15,-0.59
194799204,-0.55,1.15,-0.59
194801214,-0.57,1.07,-0.53
194803323,-0.57,1.07,-0.53
194805229,-0.57,1.07,-0.53
194807204,-0.57,1.07,-0.53
194809206,-0.57,1.07,-0.53
194811223,-0.59,1.00,-0.45
194813253,-0.59,1.00,-0.45
194815273,-0.59,1.00,-0.45
194817248,-0.59,1.00,-0.45
194819268,-0.59,1.00,-0.45
194821246,-0.60,0.88,-0.50
194823247,-0.60,0.88,-0.50
194825243,-0.60,0.88,-0.50
194827206,-0.60,0.88,-0.50
194829202,-0.60,0.88,-0.50
194831238,-0.60,0.88,-0.50
194833321,-0.60,0.71,-0.68
194835234,-0.60,0.71,-0.68
194837205,-0.60,0.71,-0.68
194839212,-0.60,0.71,-0.68
194841242,-0.60,0.71,-0.68
194843234,-0.59,0.58,-0.82
194845253,-0.59,0.58,-0.82
194847202,-0.59,0.58,-0.82
194849202,-0.59,0.58,-0.82
194851194,-0.59,0.58,-0.82
194853261,-0.59,0.50,-0.86
194855246,-0.59,0.50,-0.86
194857244,-0.59,0.50,-0.86
194859256,-0.59,0.50,-0.86
194861340,-0.59,0.50,-0.86
194863267,-0.57,0.47,-0.87
194865278,-0.57,0.47,-0.87
194867245,-0.57,0.47,-0.87
194869257,-0.57,0.47,-0.87
194871268,-0.57,0.47,-0.87
194873230,-0.52,0.59,-0.84
194875204,-0.52,0.59,-0.84
194877207,-0.52,0.59,-0.84
194879234,-0.52,0.59,-0.84
194881240,-0.52,0.59,-0.84
194883236,-0.48,0.75,-0.76
194885257,-0.48,0.75,-0.76
194887202,-0.48,0.75,-0.76
194889202,-0.48,0.75,-0.76
194891234,-0.48,0.75,-0.76
194893269,-0.46,0.85,-0.69
194895249,-0.46,0.85,-0.69
194897243,-0.46,0.85,-0.69
194899263,-0.46,0.85,-0.69
194901272,-0.46,0.85,-0.69
194903258,-0.42,0.97,-0.67
194905242,-0.42,0.97,-0.67
194907235,-0.42,0.97,-0.67
194909240,-0.42,0.97,-0.67
194911273,-0.42,0.97,-0.67
194913230,-0.42,0.97,-0.67
194915227,-0.40,1.05,-0.66
194917208,-0.40,1.05,-0.66
194919282,-0.40,1.05,-0.66
194921220,-0.40,1.05,-0.66
194923203,-0.40,1.05,-0.66
194925203,-0.38,1.01,-0.57
194927206,-0.38,1.01,-0.57
194929201,-0.38,1.01,-0.57
194931202,-0.38,1.01,-0.57
194933267,-0.38,1.01,-0.57
194935252,-0.37,0.94,-0.46
194937244,-0.37,0.94,-0.46
194939243,-0.37,0.94,-0.46
194941268,-0.37,0.94,-0.46
194943255,-0.37,0.94,-0.46
194945251,-0.36,0.87,-0.43
194947207,-0.36,0.87,-0.43
194949205,-0.36,0.87,-0.43
194951206,-0.36,0.87,-0.43
194953206,-0.36,0.87,-0.43
194955206,-0.36,0.78,-0.50
194957224,-0.36,0.78,-0.50
194959205,-0.36,0.78,-0.50
194961226,-0.36,0.78,-0.50
194963214,-0.36,0.78,-0.50
194965222,-0.38,0.71,-0.59
194967213,-0.38,0.71,-0.59
194969205,-0.38,0.71,-0.59
194971210,-0.38,0.71,-0.59
194973253,-0.38,0.71,-0.59
194975248,-0.39,0.60,-0.65
194977243,-0.39,0.60,-0.65
194979247,-0.39,0.60,-0.65
194981251,-0.39,0.60,-0.65
194983281,-0.39,0.60,-0.65
194985276,-0.41,0.52,-0.70
194987262,-0.41,0.52,-0.70
194989210,-0.41,0.52,-0.70
194991240,-0.41,0.52,-0.70
194993205,-0.41,0.52,-0.70
194995204,-0.41,0.52,-0.70
194997207,-0.40,0.48,-0.72
194999251,-0.40,0.48,-0.72
195001253,-0.40,0.48,-0.72
195003202,-0.40,0.48,-0.72
195005202,-0.40,0.48,-0.72
195007253,-0.39,0.45,-0.73
195009254,-0.39,0.45,-0.73
195011206,-0.39,0.45,-0.73
195013267,-0.39,0.45,-0.73
195015274,-0.39,0.45,-0.73
195017249,-0.37,0.44,-0.74
195019269,-0.37,0.44,-0.74
195021274,-0.37,0.44,-0.74
195023262,-0.37,0.44,-0.74
195025245,-0.37,0.44,-0.74
195027243,-0.35,0.45,-0.76
195029244,-0.35,0.45,-0.76
195031205,-0.35,0.45,-0.76
195033203,-0.35,0.45,-0.76
195035213,-0.35,0.45,-0.76
195037221,-0.31,0.50,-0.77
195039357,-0.31,0.50,-0.77
195041254,-0.31,0.50,-0.77
195043206,-0.31,0.50,-0.77
195045194,-0.31,0.50,-0.77
195047195,-0.28,0.51,-0.75
195049211,-0.28,0.51,-0.75
195051250,-0.28,0.51,-0.75
195053267,-0.28,0.51,-0.75
195055251,-0.28,0.51,-0.75
195057243,-0.26,0.51,-0.73
195059247,-0.26,0.51,-0.73
195061279,-0.26,0.51,-0.73
195063275,-0.26,0.51,-0.73
195065279,-0.26,0.51,-0.73
195067249,-0.23,0.50,-0.74
195069244,-0.23,0.50,-0.74
195071250,-0.23,0.50,-0.74
195073257,-0.23,0.50,-0.74
195075210,-0.23,0.50,-0.74
195077204,-0.23,0.48,-0.76
195079203,-0.23,0.48,-0.76
195081204,-0.23,0.48,-0.76
195083206,-0.23,0.48,-0.76
195085206,-0.23,0.48,-0.76
195087202,-0.23,0.48,-0.76
195089204,-0.21,0.45,-0.79
195091236,-0.21,0.45,-0.79
195093255,-0.21,0.45,-0.79
195095244,-0.21,0.45,-0.79
195097245,-0.21,0.45,-0.79
195099244,-0.20,0.39,-0.77
195101248,-0.20,0.39,-0.77
195103243,-0.20,0.39,-0.77
195105204,-0.20,0.39,-0.77
195107204,-0.20,0.39,-0.77
195109218,-0.19,0.36,-0.74
195111311,-0.19,0.36,-0.74
195113230,-0.19,0.36,-0.74
195115226,-0.19,0.36,-0.74
195117209,-0.19,0.36,-0.74
195119243,-0.18,0.32,-0.74
195121220,-0.18,0.32,-0.74
195123254,-0.18,0.32,-0.74
195125202,-0.18,0.32,-0.74
195127205,-0.18,0.32,-0.74
195129195,-0.17,0.29,-0.76
195131202,-0.17,0.29,-0.76
195133270,-0.17,0.29,-0.76
195135251,-0.17,0.29,-0.76
195137244,-0.17,0.29,-0.76
195139245,-0.16,0.29,-0.76
195141269,-0.16,0.29,-0.76
195143249,-0.16,0.29,-0.76
195145246,-0.16,0.29,-0.76
195147206,-0.16,0.29,-0.76
195149208,-0.15,0.28,-0.75
195151204,-0.15,0.28,-0.75
195153204,-0.15,0.28,-0.75
195155214,-0.15,0.28,-0.75
195157302,-0.15,0.28,-0.75
195159234,-0.14,0.26,-0.71
195161224,-0.14,0.26,-0.71
195163214,-0.14,0.26,-0.71
195165227,-0.14,0.26,-0.71
195167247,-0.14,0.26,-0.71
195169246,-0.14,0.26,-0.71
195171205,-0.13,0.27,-0.70
195173262,-0.13,0.27,-0.70
195175250,-0.13,0.27,-0.70
195177243,-0.13,0.27,-0.70
195179258,-0.13,0.27,-0.70
195181272,-0.11,0.27,-0.74
195183256,-0.11,0.27,-0.74
195185248,-0.11,0.27,-0.74
195187251,-0.11,0.27,-0.74
195189249,-0.11,0.27,-0.74
195191303,-0.10,0.27,-0.74
195193247,-0.10,0.27,-0.74
195195205,-0.10,0.27,-0.74
195197201,-0.10,0.27,-0.74
195199194,-0.10,0.27,-0.74
195201195,-0.09,0.28,-0.72
195203202,-0.09,0.28,-0.72
195205202,-0.09,0.28,-0.72
195207194,-0.09,0.28,-0.72
195209195,-0.09,0.28,-0.72
195211257,-0.10,0.25,-0.70
195213274,-0.10,0.25,-0.70
195215286,-0.10,0.25,-0.70
195217247,-0.10,0.25,-0.70
195219267,-0.10,0.25,-0.70
195221290,-0.11,0.26,-0.73
195223264,-0.11,0.26,-0.73
195225242,-0.11,0.26,-0.73
195227249,-0.11,0.26,-0.73
195229244,-0.11,0.26,-0.73
195231206,-0.13,0.28,-0.79
195233210,-0.13,0.28,-0.79
195235253,-0.13,0.28,-0.79
195237281,-0.13,0.28,-0.79
195239218,-0.13,0.28,-0.79
195241242,-0.14,0.28,-0.80
195243210,-0.14,0.28,-0.80
195245207,-0.14,0.28,-0.80
195247202,-0.14,0.28,-0.80
195249202,-0.14,0.28,-0.80
195251202,-0.14,0.28,-0.80
195253258,-0.17,0.30,-0.79
195255253,-0.17,0.30,-0.79
195257273,-0.17,0.30,-0.79
195259259,-0.17,0.30,-0.79
195261255,-0.17,0.30,-0.79
195263254,-0.20,0.32,-0.82
195265278,-0.20,0.32,-0.82
195267286,-0.20,0.32,-0.82
195269259,-0.20,0.32,-0.82
195271204,-0.20,0.32,-0.82
195273202,-0.24,0.38,-0.86
195275206,-0.24,0.38,-0.86
195277212,-0.24,0.38,-0.86
195279278,-0.24,0.38,-0.86
195281206,-0.24,0.38,-0.86
195283195,-0.27,0.42,-0.90
195285202,-0.27,0.42,-0.90
195287195,-0.27,0.42,-0.90
195289242,-0.27,0.42,-0.90
195291264,-0.27,0.42,-0.90
195293261,-0.31,0.47,-0.91
195295322,-0.31,0.47,-0.91
195297259,-0.31,0.47,-0.91
195299244,-0.31,0.47,-0.91
195301277,-0.31,0.47,-0.91
195303277,-0.35,0.50,-0.88
195305267,-0.35,0.50,-0.88
195307250,-0.35,0.50,-0.88
195309241,-0.35,0.50,-0.88
195311238,-0.35,0.50,-0.88
195313207,-0.39,0.51,-0.87
195315226,-0.39,0.51,-0.87
195317217,-0.39,0.51,-0.87
195319243,-0.39,0.51,-0.87
195321194,-0.39,0.51,-0.87
195323204,-0.43,0.50,-0.90
195325202,-0.43,0.50,-0.90
195327194,-0.43,0.50,-0.90
195329203,-0.43,0.50,-0.90
195331194,-0.43,0.50,-0.90
195333249,-0.47,0.46,-0.95
195335246,-0.47,0.46,-0.95
195337242,-0.47,0.46,-0.95
195339242,-0.47,0.46,-0.95
195341255,-0.47,0.46,-0.95
195343251,-0.47,0.46,-0.95
195345357,-0.50,0.39,-0.98
195347231,-0.50,0.39,-0.98
195349204,-0.50,0.39,-0.98
195351206,-0.50,0.39,-0.98
195353202,-0.50,0.39,-0.98
195355202,-0.50,0.32,-1.01
195357209,-0.50,0.32,-1.01
195359254,-0.50,0.32,-1.01
195361223,-0.50,0.32,-1.01
195363219,-0.50,0.32,-1.01
195365227,-0.49,0.27,-1.05
195367206,-0.49,0.27,-1.05
195369203,-0.49,0.27,-1.05
195371365,-0.49,0.27,-1.05
195373287,-0.49,0.27,-1.05
195375273,-0.49,0.25,-1.08
195377250,-0.49,0.25,-1.08
195379246,-0.49,0.25,-1.08
195381248,-0.49,0.25,-1.08
195383251,-0.49,0.25,-1.08
195385251,-0.50,0.25,-1.05
195387246,-0.50,0.25,-1.05
195389210,-0.50,0.25,-1.05
195391245,-0.50,0.25,-1.05
195393248,-0.50,0.25,-1.05
195395216,-0.50,0.34,-1.00
195397212,-0.50,0.34,-1.00
195399278,-0.50,0.34,-1.00
195401251,-0.50,0.34,-1.00
195403212,-0.50,0.34,-1.00
195405206,-0.51,0.45,-0.96
195407205,-0.51,0.45,-0.96
195409206,-0.51,0.45,-0.96
195411253,-0.51,0.45,-0.96
195413264,-0.51,0.45,-0.96
195415282,-0.53,0.56,-0.88
195417255,-0.53,0.56,-0.88
195419266,-0.53,0.56,-0.88
195421325,-0.53,0.56,-0.88
195423269,-0.53,0.56,-0.88
195425254,-0.53,0.56,-0.88
195427248,-0.55,0.68,-0.80
195429275,-0.55,0.68,-0.80
195431272,-0.55,0.68,-0.80
195433245,-0.55,0.68,-0.80
195435212,-0.55,0.68,-0.80
195437211,-0.57,0.74,-0.77
195439211,-0.57,0.74,-0.77
195441245,-0.57,0.74,-0.77
195443215,-0.57,0.74,-0.77
195445280,-0.57,0.74,-0.77
195447236,-0.57,0.81,-0.79
195449211,-0.57,0.81,-0.79
195451206,-0.57,0.81,-0.79
195453285,-0.57,0.81,-0.79
195455276,-0.57,0.81,-0.79
195457253,-0.57,0.84,-0.78
195459254,-0.57,0.84,-0.78
195461254,-0.57,0.84,-0.78
195463279,-0.57,0.84,-0.78
195465283,-0.57,0.84,-0.78
195467249,-0.56,0.83,-0.78
195469249,-0.56,0.83,-0.78
195471242,-0.56,0.83,-0.78
195473279,-0.56,0.83,-0.78
195475234,-0.56,0.83,-0.78
195477207,-0.56,0.81,-0.79
195479211,-0.56,0.81,-0.79
195481256,-0.56,0.81,-0.79
195483234,-0.56,0.81,-0.79
195485205,-0.56,0.81,-0.79
195487206,-0.56,0.78,-0.84
195489212,-0.56,0.78,-0.84
195491319,-0.56,0.78,-0.84
195493306,-0.56,0.78,-0.84
195495254,-0.56,0.78,-0.84
195497250,-0.55,0.75,-0.85
195499250,-0.55,0.75,-0.85
195501284,-0.55,0.75,-0.85
195503270,-0.55,0.75,-0.85
195505254,-0.55,0.75,-0.85
195507252,-0.55,0.75,-0.85
195509252,-0.54,0.71,-0.82
195511264,-0.54,0.71,-0.82
195513254,-0.54,0.71,-0.82
195515306,-0.54,0.71,-0.82
195517222,-0.54,0.71,-0.82
195519249,-0.52,0.68,-0.76
195521231,-0.52,0.68,-0.76
195523256,-0.52,0.68,-0.76
195525207,-0.52,0.68,-0.76
195527211,-0.52,0.68,-0.76
195529211,-0.50,0.66,-0.74
195531211,-0.50,0.66,-0.74
195533269,-0.50,0.66,-0.74
195535253,-0.50,0.66,-0.74
195537255,-0.50,0.66,-0.74
195539254,-0.48,0.62,-0.70
195541356,-0.48,0.62,-0.70
195543250,-0.48,0.62,-0.70
195545250,-0.48,0.62,-0.70
195547211,-0.48,0.62,-0.70
195549332,-0.46,0.58,-0.66
195551233,-0.46,0.58,-0.66
195553208,-0.46,0.58,-0.66
195555211,-0.46,0.58,-0.66
195557208,-0.46,0.58,-0.66
195559205,-0.44,0.55,-0.62
195561227,-0.44,0.55,-0.62
195563213,-0.44,0.55,-0.62
195565311,-0.44,0.55,-0.62
195567219,-0.44,0.55,-0.62
195569216,-0.42,0.53,-0.59
195571255,-0.42,0.53,-0.59
195573266,-0.42,0.53,-0.59
195575288,-0.42,0.53,-0.59
195577257,-0.42,0.53,-0.59
195579249,-0.40,0.52,-0.58
195581289,-0.40,0.52,-0.58
195583272,-0.40,0.52,-0.58
195585246,-0.40,0.52,-0.58
195587245,-0.40,0.52,-0.58
195589250,-0.38,0.50,-0.57
195591320,-0.38,0.50,-0.57
195593356,-0.38,0.50,-0.57
195595235,-0.38,0.50,-0.57
195597208,-0.38,0.50,-0.57
195599202,-0.38,0.50,-0.57
195601243,-0.35,0.49,-0.55
195603214,-0.35,0.49,-0.55
195605256,-0.35,0.49,-0.55
195607207,-0.35,0.49,-0.55
195609205,-0.35,0.49,-0.55
195611204,-0.34,0.48,-0.54
195613268,-0.34,0.48,-0.54
195615355,-0.34,0.48,-0.54
195617249,-0.34,0.48,-0.54
195619289,-0.34,0.48,-0.54
195621273,-0.30,0.48,-0.52
195623268,-0.30,0.48,-0.52
195625254,-0.30,0.48,-0.52
195627250,-0.30,0.48,-0.52
195629245,-0.30,0.48,-0.52
195631246,-0.28,0.48,-0.51
195633258,-0.28,0.48,-0.51
195635204,-0.28,0.48,-0.51
195637204,-0.28,0.48,-0.51
195639203,-0.28,0.48,-0.51
195641313,-0.27,0.48,-0.49
195643256,-0.27,0.48,-0.49
195645204,-0.27,0.48,-0.49
195647210,-0.27,0.48,-0.49
195649203,-0.27,0.48,-0.49
195651210,-0.25,0.50,-0.47
195653267,-0.25,0.50,-0.47
195655248,-0.25,0.50,-0.47
195657248,-0.25,0.50,-0.47
195659267,-0.25,0.50,-0.47
195661265,-0.25,0.52,-0.46
195663258,-0.25,0.52,-0.46
195665352,-0.25,0.52,-0.46
195667248,-0.25,0.52,-0.46
195669239,-0.25,0.52,-0.46
195671203,-0.24,0.54,-0.46
195673207,-0.24,0.54,-0.46
195675298,-0.24,0.54,-0.46
195677229,-0.24,0.54,-0.46
195679204,-0.24,0.54,-0.46
195681193,-0.24,0.54,-0.46
195683195,-0.25,0.56,-0.44
195685204,-0.25,0.56,-0.44
195687195,-0.25,0.56,-0.44
195689204,-0.25,0.56,-0.44
195691314,-0.25,0.56,-0.44
195693263,-0.25,0.59,-0.42
195695246,-0.25,0.59,-0.42
195697243,-0.25,0.59,-0.42
195699250,-0.25,0.59,-0.42
195701271,-0.25,0.59,-0.42
195703249,-0.27,0.59,-0.43
195705246,-0.27,0.59,-0.43
195707211,-0.27,0.59,-0.43
195709203,-0.27,0.59,-0.43
195711206,-0.27,0.59,-0.43
195713202,-0.29,0.58,-0.41
195715287,-0.29,0.58,-0.41
195717208,-0.29,0.58,-0.41
195719247,-0.29,0.58,-0.41
195721224,-0.29,0.58,-0.41
195723302,-0.31,0.60,-0.42
195725234,-0.31,0.60,-0.42
195727206,-0.31,0.60,-0.42
195729202,-0.31,0.60,-0.42
195731203,-0.31,0.60,-0.42
195733256,-0.32,0.58,-0.47
195735285,-0.32,0.58,-0.47
195737265,-0.32,0.58,-0.47
195739244,-0.32,0.58,-0.47
195741346,-0.32,0.58,-0.47
195743246,-0.35,0.60,-0.51
195745246,-0.35,0.60,-0.51
195747289,-0.35,0.60,-0.51
195749255,-0.35,0.60,-0.51
195751213,-0.35,0.60,-0.51
195753212,-0.37,0.61,-0.54
195755204,-0.37,0.61,-0.54
195757212,-0.37,0.61,-0.54
195759208,-0.37,0.61,-0.54
195761225,-0.37,0.61,-0.54
195763216,-0.37,0.61,-0.54
195765309,-0.38,0.62,-0.56
195767216,-0.38,0.62,-0.56
195769206,-0.38,0.62,-0.56
195771205,-0.38,0.62,-0.56
195773254,-0.38,0.62,-0.56
195775314,-0.40,0.65,-0.59
195777245,-0.40,0.65,-0.59
195779277,-0.40,0.65,-0.59
195781279,-0.40,0.65,-0.59
195783253,-0.40,0.65,-0.59
195785243,-0.41,0.68,-0.64
195787244,-0.41,0.68,-0.64
195789221,-0.41,0.68,-0.64
195791450,-0.41,0.68,-0.64
195793232,-0.41,0.68,-0.64
195795205,-0.42,0.69,-0.68
195797204,-0.42,0.69,-0.68
195799204,-0.42,0.69,-0.68
195801215,-0.42,0.69,-0.68
195803243,-0.42,0.69,-0.68
195805257,-0.43,0.75,-0.70
195807203,-0.43,0.75,-0.70
195809204,-0.43,0.75,-0.70
195811227,-0.43,0.75,-0.70
195813269,-0.43,0.75,-0.70
195815353,-0.46,0.78,-0.68
195817255,-0.46,0.78,-0.68
195819271,-0.46,0.78,-0.68
195821269,-0.46,0.78,-0.68
195823266,-0.46,0.78,-0.68
195825245,-0.49,0.83,-0.67
195827245,-0.49,0.83,-0.67
195829242,-0.49,0.83,-0.67
195831204,-0.49,0.83,-0.67
195833204,-0.49,0.83,-0.67
195835206,-0.54,0.87,-0.71
195837205,-0.54,0.87,-0.71
195839205,-0.54,0.87,-0.71
195841312,-0.54,0.87,-0.71
195843203,-0.54,0.87,-0.71
195845204,-0.57,0.88,-0.80
195847204,-0.57,0.88,-0.80
195849210,-0.57,0.88,-0.80
195851204,-0.57,0.88,-0.80
195853253,-0.57,0.88,-0.80
195855245,-0.57,0.88,-0.80
195857244,-0.59,0.89,-0.88
195859255,-0.59,0.89,-0.88
195861286,-0.59,0.89,-0.88
195863272,-0.59,0.89,-0.88
195865355,-0.59,0.89,-0.88
195867254,-0.60,0.86,-0.91
195869207,-0.60,0.86,-0.91
195871204,-0.60,0.86,-0.91
195873205,-0.60,0.86,-0.91
195875207,-0.60,0.86,-0.91
195877203,-0.59,0.79,-0.93
195879205,-0.59,0.79,-0.93
195881202,-0.59,0.79,-0.93
195883273,-0.59,0.79,-0.93
195885242,-0.59,0.79,-0.93
195887214,-0.57,0.70,-0.98
195889207,-0.57,0.70,-0.98
195891314,-0.57,0.70,-0.98
195893287,-0.57,0.70,-0.98
195895274,-0.57,0.70,-0.98
195897254,-0.55,0.59,-1.04
195899244,-0.55,0.59,-1.04
195901249,-0.55,0.59,-1.04
195903259,-0.55,0.59,-1.04
195905269,-0.55,0.59,-1.04
195907247,-0.55,0.47,-1.06
195909271,-0.55,0.47,-1.06
195911253,-0.55,0.47,-1.06
195913202,-0.55,0.47,-1.06
195915298,-0.55,0.47,-1.06
195917215,-0.54,0.42,-1.04
195919248,-0.54,0.42,-1.04
195921215,-0.54,0.42,-1.04
195923252,-0.54,0.42,-1.04
195925211,-0.54,0.42,-1.04
195927205,-0.54,0.46,-1.09
195929205,-0.54,0.46,-1.09
195931202,-0.54,0.46,-1.09
195933268,-0.54,0.46,-1.09
195935248,-0.54,0.46,-1.09
195937245,-0.54,0.46,-1.09
195939251,-0.52,0.54,-1.12
195941422,-0.52,0.54,-1.12
195943266,-0.52,0.54,-1.12
195945248,-0.52,0.54,-1.12
195947246,-0.52,0.54,-1.12
195949252,-0.50,0.62,-1.03
195951273,-0.50,0.62,-1.03
195953231,-0.50,0.62,-1.03
195955194,-0.50,0.62,-1.03
195957223,-0.50,0.62,-1.03
195959205,-0.49,0.72,-0.87
195961218,-0.49,0.72,-0.87
195963226,-0.49,0.72,-0.87
195965359,-0.49,0.72,-0.87
195967215,-0.49,0.72,-0.87
195969202,-0.47,0.76,-0.77
195971195,-0.47,0.76,-0.77
195973265,-0.47,0.76,-0.77
195975252,-0.47,0.76,-0.77
195977246,-0.47,0.76,-0.77
195979251,-0.45,0.83,-0.77
195981254,-0.45,0.83,-0.77
195983244,-0.45,0.83,-0.77
195985246,-0.45,0.83,-0.77
195987206,-0.45,0.83,-0.77
195989203,-0.41,0.86,-0.78
195991304,-0.41,0.86,-0.78
195993210,-0.41,0.86,-0.78
195995286,-0.41,0.86,-0.78
195997231,-0.41,0.86,-0.78
195999211,-0.38,0.81,-0.71
196001207,-0.38,0.81,-0.71
196003204,-0.38,0.81,-0.71
196005203,-0.38,0.81,-0.71
196007249,-0.38,0.81,-0.71
196009255,-0.36,0.74,-0.63
196011203,-0.36,0.74,-0.63
196013266,-0.36,0.74,-0.63
196015352,-0.36,0.74,-0.63
196017251,-0.36,0.74,-0.63
196019257,-0.35,0.66,-0.61
196021248,-0.35,0.66,-0.61
196023266,-0.35,0.66,-0.61
196025343,-0.35,0.66,-0.61
196027277,-0.35,0.66,-0.61
196029252,-0.35,0.66,-0.61
196031204,-0.34,0.58,-0.70
196033204,-0.34,0.58,-0.70
196035263,-0.34,0.58,-0.70
196037254,-0.34,0.58,-0.70
196039226,-0.34,0.58,-0.70
196041311,-0.33,0.52,-0.80
196043209,-0.33,0.52,-0.80
196045255,-0.33,0.52,-0.80
196047203,-0.33,0.52,-0.80
196049204,-0.33,0.52,-0.80
196051202,-0.32,0.50,-0.80
196053268,-0.32,0.50,-0.80
196055253,-0.32,0.50,-0.80
196057245,-0.32,0.50,-0.80
196059251,-0.32,0.50,-0.80
196061257,-0.30,0.46,-0.70
196063322,-0.30,0.46,-0.70
196065365,-0.30,0.46,-0.70
196067250,-0.30,0.46,-0.70
196069239,-0.30,0.46,-0.70
196071209,-0.27,0.43,-0.61
196073207,-0.27,0.43,-0.61
196075204,-0.27,0.43,-0.61
196077230,-0.27,0.43,-0.61
196079276,-0.27,0.43,-0.61
196081219,-0.25,0.45,-0.59
196083203,-0.25,0.45,-0.59
196085205,-0.25,0.45,-0.59
196087194,-0.25,0.45,-0.59
196089206,-0.25,0.45,-0.59
196091311,-0.22,0.45,-0.62
196093256,-0.22,0.45,-0.62
196095244,-0.22,0.45,-0.62
196097243,-0.22,0.45,-0.62
196099247,-0.22,0.45,-0.62
196101244,-0.20,0.45,-0.65
196103251,-0.20,0.45,-0.65
196105207,-0.20,0.45,-0.65
196107206,-0.20,0.45,-0.65
196109207,-0.20,0.45,-0.65
196111236,-0.20,0.45,-0.65
196113310,-0.18,0.43,-0.60
196115332,-0.18,0.43,-0.60
196117209,-0.18,0.43,-0.60
196119270,-0.18,0.43,-0.60
196121207,-0.18,0.43,-0.60
196123220,-0.18,0.40,-0.56
196125251,-0.18,0.40,-0.56
196127251,-0.18,0.40,-0.56
196129204,-0.18,0.40,-0.56
196131204,-0.18,0.40,-0.56
196133278,-0.17,0.38,-0.59
196135257,-0.17,0.38,-0.59
196137251,-0.17,0.38,-0.59
196139248,-0.17,0.38,-0.59
196141353,-0.17,0.38,-0.59
196143249,-0.17,0.35,-0.65
196145248,-0.17,0.35,-0.65
196147206,-0.17,0.35,-0.65
196149214,-0.17,0.35,-0.65
196151207,-0.17,0.35,-0.65
196153205,-0.16,0.32,-0.67
196155205,-0.16,0.32,-0.67
196157217,-0.16,0.32,-0.67
196159292,-0.16,0.32,-0.67
196161233,-0.16,0.32,-0.67
196163215,-0.17,0.27,-0.63
196165298,-0.17,0.27,-0.63
196167210,-0.17,0.27,-0.63
196169210,-0.17,0.27,-0.63
196171202,-0.17,0.27,-0.63
196173260,-0.16,0.24,-0.59
196175245,-0.16,0.24,-0.59
196177248,-0.16,0.24,-0.59
196179246,-0.16,0.24,-0.59
196181251,-0.16,0.24,-0.59
196183314,-0.16,0.21,-0.56
196185267,-0.16,0.21,-0.56
196187243,-0.16,0.21,-0.56
196189205,-0.16,0.21,-0.56
196191311,-0.16,0.21,-0.56
196193205,-0.16,0.21,-0.56
196195262,-0.15,0.18,-0.55
196197257,-0.15,0.18,-0.55
196199207,-0.15,0.18,-0.55
196201203,-0.15,0.18,-0.55
196203203,-0.15,0.18,-0.55
196205207,-0.15,0.20,-0.58
196207220,-0.15,0.20,-0.58
196209256,-0.15,0.20,-0.58
196211208,-0.15,0.20,-0.58
196213283,-0.15,0.20,-0.58
196215368,-0.14,0.20,-0.61
196217253,-0.14,0.20,-0.61
196219248,-0.14,0.20,-0.61
196221285,-0.14,0.20,-0.61
196223280,-0.14,0.20,-0.61
196225269,-0.14,0.18,-0.60
196227249,-0.14,0.18,-0.60
196229246,-0.14,0.18,-0.60
196231232,-0.14,0.18,-0.60
196233205,-0.14,0.18,-0.60
196235216,-0.14,0.18,-0.55
196237281,-0.14,0.18,-0.55
196239229,-0.14,0.18,-0.55
196241313,-0.14,0.18,-0.55
196243207,-0.14,0.18,-0.55
196245210,-0.13,0.17,-0.53
196247254,-0.13,0.17,-0.53
196249205,-0.13,0.17,-0.53
196251202,-0.13,0.17,-0.53
196253270,-0.13,0.17,-0.53
196255246,-0.14,0.18,-0.56
196257246,-0.14,0.18,-0.56
196259274,-0.14,0.18,-0.56
196261274,-0.14,0.18,-0.56
196263268,-0.14,0.18,-0.56
196265355,-0.15,0.19,-0.61
196267255,-0.15,0.19,-0.61
196269249,-0.15,0.19,-0.61
196271276,-0.15,0.19,-0.61
196273279,-0.15,0.19,-0.61
196275236,-0.16,0.17,-0.65
196277211,-0.16,0.17,-0.65
196279205,-0.16,0.17,-0.65
196281214,-0.16,0.17,-0.65
196283210,-0.16,0.17,-0.65
196285204,-0.16,0.17,-0.65
196287208,-0.17,0.16,-0.68
196289219,-0.17,0.16,-0.68
196291316,-0.17,0.16,-0.68
196293250,-0.17,0.16,-0.68
196295247,-0.17,0.16,-0.68
196297245,-0.20,0.15,-0.71
196299246,-0.20,0.15,-0.71
196301244,-0.20,0.15,-0.71
196303275,-0.20,0.15,-0.71
196305264,-0.20,0.15,-0.71
196307252,-0.22,0.16,-0.78
196309211,-0.22,0.16,-0.78
196311205,-0.22,0.16,-0.78
196313203,-0.22,0.16,-0.78
196315299,-0.22,0.16,-0.78
196317215,-0.23,0.21,-0.86
196319203,-0.23,0.21,-0.86
196321283,-0.23,0.21,-0.86
196323241,-0.23,0.21,-0.86
196325205,-0.23,0.21,-0.86
196327218,-0.26,0.26,-0.89
196329257,-0.26,0.26,-0.89
196331205,-0.26,0.26,-0.89
196333263,-0.26,0.26,-0.89
196335248,-0.26,0.26,-0.89
196337245,-0.29,0.33,-0.88
196339256,-0.29,0.33,-0.88
196341344,-0.29,0.33,-0.88
196343252,-0.29,0.33,-0.88
196345269,-0.29,0.33,-0.88
196347272,-0.31,0.38,-0.90
196349252,-0.31,0.38,-0.90
196351204,-0.31,0.38,-0.90
196353204,-0.31,0.38,-0.90
196355205,-0.31,0.38,-0.90
196357289,-0.36,0.43,-0.95
196359234,-0.36,0.43,-0.95
196361224,-0.36,0.43,-0.95
196363237,-0.36,0.43,-0.95
196365359,-0.36,0.43,-0.95
196367250,-0.36,0.43,-0.95
196369204,-0.41,0.45,-0.99
196371206,-0.41,0.45,-0.99
196373268,-0.41,0.45,-0.99
196375250,-0.41,0.45,-0.99
196377247,-0.41,0.45,-0.99
196379271,-0.45,0.45,-1.03
196381274,-0.45,0.45,-1.03
196383255,-0.45,0.45,-1.03
196385245,-0.45,0.45,-1.03
196387245,-0.45,0.45,-1.03
196389236,-0.50,0.45,-1.08
196391315,-0.50,0.45,-1.08
196393204,-0.50,0.45,-1.08
196395231,-0.50,0.45,-1.08
196397268,-0.50,0.45,-1.08
196399227,-0.52,0.41,-1.15
196401206,-0.52,0.41,-1.15
196403206,-0.52,0.41,-1.15
196405203,-0.52,0.41,-1.15
196407215,-0.52,0.41,-1.15
196409255,-0.54,0.36,-1.20
196411203,-0.54,0.36,-1.20
196413266,-0.54,0.36,-1.20
196415379,-0.54,0.36,-1.20
196417275,-0.54,0.36,-1.20
196419246,-0.54,0.27,-1.23
196421244,-0.54,0.27,-1.23
196423251,-0.54,0.27,-1.23
196425272,-0.54,0.27,-1.23
196427261,-0.54,0.27,-1.23
196429245,-0.53,0.23,-1.28
196431202,-0.53,0.23,-1.28
196433204,-0.53,0.23,-1.28
196435207,-0.53,0.23,-1.28
196437205,-0.53,0.23,-1.28
196439204,-0.51,0.23,-1.32
196441312,-0.51,0.23,-1.32
196443289,-0.51,0.23,-1.32
196445234,-0.51,0.23,-1.32
196447206,-0.51,0.23,-1.32
196449206,-0.51,0.23,-1.32
196451194,-0.51,0.24,-1.29
196453255,-0.51,0.24,-1.29
196455251,-0.51,0.24,-1.29
196457253,-0.51,0.24,-1.29
196459248,-0.51,0.24,-1.29
196461256,-0.52,0.28,-1.19
196463251,-0.52,0.28,-1.19
196465340,-0.52,0.28,-1.19
196467247,-0.52,0.28,-1.19
196469202,-0.52,0.28,-1.19
196471206,-0.51,0.39,-1.08
196473204,-0.51,0.39,-1.08
196475207,-0.51,0.39,-1.08
196477213,-0.51,0.39,-1.08
196479281,-0.51,0.39,-1.08
196481240,-0.51,0.50,-0.99
196483204,-0.51,0.50,-0.99
196485194,-0.51,0.50,-0.99
196487204,-0.51,0.50,-0.99
196489203,-0.51,0.50,-0.99
196491317,-0.51,0.60,-0.91
196493284,-0.51,0.60,-0.91
196495273,-0.51,0.60,-0.91
196497250,-0.51,0.60,-0.91
196499244,-0.51,0.60,-0.91
196501249,-0.51,0.66,-0.84
196503242,-0.51,0.66,-0.84
196505245,-0.51,0.66,-0.84
196507238,-0.51,0.66,-0.84
196509211,-0.51,0.66,-0.84
196511295,-0.51,0.70,-0.78
196513230,-0.51,0.70,-0.78
196515194,-0.51,0.70,-0.78
196517219,-0.51,0.70,-0.78
196519203,-0.51,0.70,-0.78
196521245,-0.50,0.74,-0.74
196523262,-0.50,0.74,-0.74
196525255,-0.50,0.74,-0.74
196527207,-0.50,0.74,-0.74
196529195,-0.50,0.74,-0.74
196531203,-0.50,0.73,-0.73
196533275,-0.50,0.73,-0.73
196535250,-0.50,0.73,-0.73
196537250,-0.50,0.73,-0.73
196539282,-0.50,0.73,-0.73
196541378,-0.50,0.73,-0.73
196543256,-0.51,0.70,-0.76
196545245,-0.51,0.70,-0.76
196547249,-0.51,0.70,-0.76
196549274,-0.51,0.70,-0.76
196551257,-0.51,0.70,-0.76
196553206,-0.52,0.62,-0.83
196555206,-0.52,0.62,-0.83
196557212,-0.52,0.62,-0.83
196559207,-0.52,0.62,-0.83
196561232,-0.52,0.62,-0.83
196563278,-0.52,0.56,-0.90
196565343,-0.52,0.56,-0.90
196567243,-0.52,0.56,-0.90
196569207,-0.52,0.56,-0.90
196571253,-0.52,0.56,-0.90
196573269,-0.52,0.53,-0.86
196575252,-0.52,0.53,-0.86
196577250,-0.52,0.53,-0.86
196579255,-0.52,0.53,-0.86
196581254,-0.52,0.53,-0.86
196583250,-0.51,0.48,-0.81
196585246,-0.51,0.48,-0.81
196587212,-0.51,0.48,-0.81
196589207,-0.51,0.48,-0.81
196591315,-0.51,0.48,-0.81
196593207,-0.49,0.45,-0.81
196595205,-0.49,0.45,-0.81
196597246,-0.49,0.45,-0.81
196599276,-0.49,0.45,-0.81
196601228,-0.49,0.45,-0.81
196603208,-0.46,0.44,-0.79
196605202,-0.46,0.44,-0.79
196607202,-0.46,0.44,-0.79
196609207,-0.46,0.44,-0.79
196611202,-0.46,0.44,-0.79
196613256,-0.43,0.42,-0.75
196615349,-0.43,0.42,-0.75
196617251,-0.43,0.42,-0.75
196619274,-0.43,0.42,-0.75
196621272,-0.43,0.42,-0.75
196623273,-0.43,0.42,-0.75
196625245,-0.41,0.42,-0.67
196627244,-0.41,0.42,-0.67
196629254,-0.41,0.42,-0.67
196631278,-0.41,0.42,-0.67
196633230,-0.41,0.42,-0.67
196635203,-0.37,0.41,-0.62
196637206,-0.37,0.41,-0.62
196639267,-0.37,0.41,-0.62
196641321,-0.37,0.41,-0.62
196643206,-0.37,0.41,-0.62
196645207,-0.34,0.45,-0.63
196647206,-0.34,0.45,-0.63
196649203,-0.34,0.45,-0.63
196651203,-0.34,0.45,-0.63
196653271,-0.34,0.45,-0.63
196655249,-0.32,0.48,-0.64
196657245,-0.32,0.48,-0.64
196659264,-0.32,0.48,-0.64
196661272,-0.32,0.48,-0.64
196663270,-0.32,0.48,-0.64
196665352,-0.29,0.48,-0.62
196667271,-0.29,0.48,-0.62
196669246,-0.29,0.48,-0.62
196671206,-0.29,0.48,-0.62
196673281,-0.29,0.48,-0.62
196675235,-0.27,0.47,-0.57
196677205,-0.27,0.47,-0.57
196679204,-0.27,0.47,-0.57
196681204,-0.27,0.47,-0.57
196683210,-0.27,0.47,-0.57
196685254,-0.25,0.46,-0.54
196687206,-0.25,0.46,-0.54
196689203,-0.25,0.46,-0.54
196691311,-0.25,0.46,-0.54
196693285,-0.25,0.46,-0.54
196695254,-0.25,0.47,-0.52
196697243,-0.25,0.47,-0.52
196699246,-0.25,0.47,-0.52
196701244,-0.25,0.47,-0.52
196703282,-0.25,0.47,-0.52
196705266,-0.24,0.51,-0.55
196707242,-0.24,0.51,-0.55
196709214,-0.24,0.51,-0.55
196711211,-0.24,0.51,-0.55
196713208,-0.24,0.51,-0.55
196715301,-0.24,0.51,-0.55
196717219,-0.23,0.54,-0.55
196719205,-0.23,0.54,-0.55
196721208,-0.23,0.54,-0.55
196723212,-0.23,0.54,-0.55
196725245,-0.23,0.54,-0.55
196727208,-0.21,0.58,-0.50
196729208,-0.21,0.58,-0.50
196731209,-0.21,0.58,-0.50
196733258,-0.21,0.58,-0.50
196735247,-0.21,0.58,-0.50
196737243,-0.22,0.58,-0.43
196739257,-0.22,0.58,-0.43
196741326,-0.22,0.58,-0.43
196743247,-0.22,0.58,-0.43
196745207,-0.22,0.58,-0.43
196747204,-0.23,0.57,-0.40
196749205,-0.23,0.57,-0.40
196751205,-0.23,0.57,-0.40
196753203,-0.23,0.57,-0.40
196755216,-0.23,0.57,-0.40
196757287,-0.25,0.61,-0.41
196759235,-0.25,0.61,-0.41
196761226,-0.25,0.61,-0.41
196763218,-0.25,0.61,-0.41
196765301,-0.25,0.61,-0.41
196767247,-0.28,0.57,-0.49
196769220,-0.28,0.57,-0.49
196771254,-0.28,0.57,-0.49
196773263,-0.28,0.57,-0.49
196775315,-0.28,0.57,-0.49
196777248,-0.31,0.53,-0.57
196779246,-0.31,0.53,-0.57
196781250,-0.31,0.53,-0.57
196783274,-0.31,0.53,-0.57
196785258,-0.31,0.53,-0.57
196787250,-0.33,0.51,-0.59
196789246,-0.33,0.51,-0.59
196791317,-0.33,0.51,-0.59
196793268,-0.33,0.51,-0.59
196795248,-0.33,0.51,-0.59
196797203,-0.33,0.51,-0.59
196799203,-0.36,0.48,-0.58
196801195,-0.36,0.48,-0.58
196803202,-0.36,0.48,-0.58
196805236,-0.36,0.48,-0.58
196807257,-0.36,0.48,-0.58
196809206,-0.36,0.48,-0.62
196811221,-0.36,0.48,-0.62
196813262,-0.36,0.48,-0.62
196815353,-0.36,0.48,-0.62
196817252,-0.36,0.48,-0.62
196819245,-0.38,0.51,-0.68
196821243,-0.38,0.51,-0.68
196823241,-0.38,0.51,-0.68
196825253,-0.38,0.51,-0.68
196827247,-0.38,0.51,-0.68
196829202,-0.39,0.58,-0.71
196831204,-0.39,0.58,-0.71
196833203,-0.39,0.58,-0.71
196835227,-0.39,0.58,-0.71
196837284,-0.39,0.58,-0.71
196839234,-0.40,0.65,-0.71
196841314,-0.40,0.65,-0.71
196843204,-0.40,0.65,-0.71
196845202,-0.40,0.65,-0.71
196847209,-0.40,0.65,-0.71
196849252,-0.41,0.72,-0.73
196851204,-0.41,0.72,-0.73
196853265,-0.41,0.72,-0.73
196855249,-0.41,0.72,-0.73
196857245,-0.41,0.72,-0.73
196859252,-0.43,0.79,-0.75
196861322,-0.43,0.79,-0.75
196863272,-0.43,0.79,-0.75
196865352,-0.43,0.79,-0.75
196867273,-0.43,0.79,-0.75
196869249,-0.45,0.86,-0.75
196871216,-0.45,0.86,-0.75
196873216,-0.45,0.86,-0.75
196875268,-0.45,0.86,-0.75
196877228,-0.45,0.86,-0.75
196879202,-0.45,0.86,-0.75
196881194,-0.47,0.91,-0.75
196883202,-0.47,0.91,-0.75
196885205,-0.47,0.91,-0.75
196887204,-0.47,0.91,-0.75
196889202,-0.47,0.91,-0.75
196891311,-0.50,0.90,-0.79
196893258,-0.50,0.90,-0.79
196895244,-0.50,0.90,-0.79
196897243,-0.50,0.90,-0.79
196899246,-0.50,0.90,-0.79
196901243,-0.52,0.87,-0.88
196903253,-0.52,0.87,-0.88
196905310,-0.52,0.87,-0.88
196907229,-0.52,0.87,-0.88
196909205,-0.52,0.87,-0.88
196911194,-0.54,0.82,-0.92
196913192,-0.54,0.82,-0.92
196915336,-0.54,0.82,-0.92
196917253,-0.54,0.82,-0.92
196919202,-0.54,0.82,-0.92
196921202,-0.54,0.75,-0.91
196923202,-0.54,0.75,-0.91
196925201,-0.54,0.75,-0.91
196927237,-0.54,0.75,-0.91
196929237,-0.54,0.75,-0.91
196931203,-0.54,0.66,-0.93
196933267,-0.54,0.66,-0.93
196935247,-0.54,0.66,-0.93
196937244,-0.54,0.66,-0.93
196939247,-0.54,0.66,-0.93
196941342,-0.54,0.59,-0.97
196943249,-0.54,0.59,-0.97
196945245,-0.54,0.59,-0.97
196947208,-0.54,0.59,-0.97
196949286,-0.54,0.59,-0.97
196951238,-0.55,0.51,-1.02
196953204,-0.55,0.51,-1.02
196955207,-0.55,0.51,-1.02
196957222,-0.55,0.51,-1.02
196959206,-0.55,0.51,-1.02
196961239,-0.55,0.51,-1.02
196963249,-0.56,0.47,-1.03
196965302,-0.56,0.47,-1.03
196967247,-0.56,0.47,-1.03
196969202,-0.56,0.47,-1.03
196971203,-0.56,0.47,-1.03
196973270,-0.55,0.49,-1.00
196975249,-0.55,0.49,-1.00
196977244,-0.55,0.49,-1.00
196979255,-0.55,0.49,-1.00
196981276,-0.55,0.49,-1.00
196983257,-0.51,0.54,-0.95
196985243,-0.51,0.54,-0.95
196987242,-0.51,0.54,-0.95
196989237,-0.51,0.54,-0.95
196991319,-0.51,0.54,-0.95
196993206,-0.48,0.67,-0.87
196995204,-0.48,0.67,-0.87
196997204,-0.48,0.67,-0.87
196999289,-0.48,0.67,-0.87
197001253,-0.48,0.67,-0.87
197003210,-0.45,0.72,-0.77
197005204,-0.45,0.72,-0.77
197007205,-0.45,0.72,-0.77
197009263,-0.45,0.72,-0.77
197011232,-0.45,0.72,-0.77
197013262,-0.41,0.76,-0.73
197015351,-0.41,0.76,-0.73
197017252,-0.41,0.76,-0.73
197019254,-0.41,0.76,-0.73
197021267,-0.41,0.76,-0.73
197023253,-0.37,0.81,-0.74
197025247,-0.37,0.81,-0.74
197027246,-0.37,0.81,-0.74
197029215,-0.37,0.81,-0.74
197031251,-0.37,0.81,-0.74
197033204,-0.32,0.81,-0.73
197035204,-0.32,0.81,-0.73
197037208,-0.32,0.81,-0.73
197039221,-0.32,0.81,-0.73
197041308,-0.32,0.81,-0.73
197043203,-0.28,0.80,-0.67
197045202,-0.28,0.80,-0.67
197047195,-0.28,0.80,-0.67
197049205,-0.28,0.80,-0.67
197051204,-0.28,0.80,-0.67
197053256,-0.28,0.80,-0.67
197055249,-0.26,0.76,-0.64
197057247,-0.26,0.76,-0.64
197059247,-0.26,0.76,-0.64
197061253,-0.26,0.76,-0.64
197063253,-0.26,0.76,-0.64
197065292,-0.24,0.74,-0.64
197067251,-0.24,0.74,-0.64
197069204,-0.24,0.74,-0.64
197071205,-0.24,0.74,-0.64
197073194,-0.24,0.74,-0.64
197075202,-0.23,0.71,-0.66
197077195,-0.23,0.71,-0.66
197079209,-0.23,0.71,-0.66
197081317,-0.23,0.71,-0.66
197083236,-0.23,0.71,-0.66
197085194,-0.23,0.66,-0.69
197087203,-0.23,0.66,-0.69
197089203,-0.23,0.66,-0.69
197091309,-0.23,0.66,-0.69
197093287,-0.23,0.66,-0.69
197095269,-0.23,0.59,-0.71
197097261,-0.23,0.59,-0.71
197099244,-0.23,0.59,-0.71
197101245,-0.23,0.59,-0.71
197103300,-0.23,0.59,-0.71
197105268,-0.22,0.54,-0.75
197107247,-0.22,0.54,-0.75
197109244,-0.22,0.54,-0.75
197111243,-0.22,0.54,-0.75
197113256,-0.22,0.54,-0.75
197115312,-0.21,0.50,-0.78
197117217,-0.21,0.50,-0.78
197119204,-0.21,0.50,-0.78
197121204,-0.21,0.50,-0.78
197123203,-0.21,0.50,-0.78
197125203,-0.20,0.46,-0.76
197127203,-0.20,0.46,-0.76
197129269,-0.20,0.46,-0.76
197131230,-0.20,0.46,-0.76
197133301,-0.20,0.46,-0.76
197135266,-0.20,0.46,-0.76
197137248,-0.18,0.43,-0.73
197139246,-0.18,0.43,-0.73
197141383,-0.18,0.43,-0.73
197143270,-0.18,0.43,-0.73
197145253,-0.18,0.43,-0.73
197147249,-0.17,0.40,-0.71
197149246,-0.17,0.40,-0.71
197151205,-0.17,0.40,-0.71
197153210,-0.17,0.40,-0.71
197155236,-0.17,0.40,-0.71
197157311,-0.14,0.37,-0.73
197159233,-0.14,0.37,-0.73
197161223,-0.14,0.37,-0.73
197163219,-0.14,0.37,-0.73
197165340,-0.14,0.37,-0.73
197167262,-0.14,0.34,-0.73
197169204,-0.14,0.34,-0.73
197171202,-0.14,0.34,-0.73
197173265,-0.14,0.34,-0.73
197175250,-0.14,0.34,-0.73
197177243,-0.13,0.29,-0.70
197179242,-0.13,0.29,-0.70
197181243,-0.13,0.29,-0.70
197183244,-0.13,0.29,-0.70
197185245,-0.13,0.29,-0.70
197187206,-0.11,0.25,-0.69
197189204,-0.11,0.25,-0.69
197191382,-0.11,0.25,-0.69
197193252,-0.11,0.25,-0.69
197195205,-0.11,0.25,-0.69
197197202,-0.10,0.21,-0.69
197199211,-0.10,0.21,-0.69
197201211,-0.10,0.21,-0.69
197203266,-0.10,0.21,-0.69
197205224,-0.10,0.21,-0.69
197207204,-0.09,0.20,-0.67
197209202,-0.09,0.20,-0.67
197211202,-0.09,0.20,-0.67
197213260,-0.09,0.20,-0.67
197215347,-0.09,0.20,-0.67
197217252,-0.08,0.18,-0.67
197219266,-0.08,0.18,-0.67
197221273,-0.08,0.18,-0.67
197223256,-0.08,0.18,-0.67
197225246,-0.08,0.18,-0.67
197227246,-0.08,0.18,-0.67
197229242,-0.07,0.16,-0.66
197231204,-0.07,0.16,-0.66
197233203,-0.07,0.16,-0.66
197235214,-0.07,0.16,-0.66
197237242,-0.07,0.16,-0.66
197239281,-0.07,0.16,-0.64
197241338,-0.07,0.16,-0.64
197243206,-0.07,0.16,-0.64
197245205,-0.07,0.16,-0.64
197247248,-0.07,0.16,-0.64
197249255,-0.07,0.14,-0.65
197251205,-0.07,0.14,-0.65
197253264,-0.07,0.14,-0.65
197255249,-0.07,0.14,-0.65
197257247,-0.07,0.14,-0.65
197259261,-0.08,0.11,-0.69
197261277,-0.08,0.11,-0.69
197263253,-0.08,0.11,-0.69
197265347,-0.08,0.11,-0.69
197267274,-0.08,0.11,-0.69
197269277,-0.08,0.10,-0.70
197271249,-0.08,0.10,-0.70
197273204,-0.08,0.10,-0.70
197275204,-0.08,0.10,-0.70
197277203,-0.08,0.10,-0.70
197279267,-0.08,0.09,-0.70
197281229,-0.08,0.09,-0.70
197283207,-0.08,0.09,-0.70
197285203,-0.08,0.09,-0.70
197287203,-0.08,0.09,-0.70
197289217,-0.10,0.06,-0.74
197291313,-0.10,0.06,-0.74
197293292,-0.10,0.06,-0.74
197295251,-0.10,0.06,-0.74
197297244,-0.10,0.06,-0.74
197299281,-0.11,0.05,-0.80
197301272,-0.11,0.05,-0.80
197303251,-0.11,0.05,-0.80
197305247,-0.11,0.05,-0.80
197307257,-0.11,0.05,-0.80
197309280,-0.11,0.05,-0.80
197311227,-0.12,0.05,-0.83
197313206,-0.12,0.05,-0.83
197315195,-0.12,0.05,-0.83
197317226,-0.12,0.05,-0.83
197319251,-0.12,0.05,-0.83
197321203,-0.14,0.07,-0.86
197323202,-0.14,0.07,-0.86
197325195,-0.14,0.07,-0.86
197327195,-0.14,0.07,-0.86
197329206,-0.14,0.07,-0.86
197331205,-0.14,0.09,-0.90
197333268,-0.14,0.09,-0.90
197335245,-0.14,0.09,-0.90
197337243,-0.14,0.09,-0.90
197339271,-0.14,0.09,-0.90
197341364,-0.15,0.10,-0.90
197343252,-0.15,0.10,-0.90
197345247,-0.15,0.10,-0.90
197347248,-0.15,0.10,-0.90
197349207,-0.15,0.10,-0.90
197351204,-0.17,0.11,-0.87
197353203,-0.17,0.11,-0.87
197355205,-0.17,0.11,-0.87
197357203,-0.17,0.11,-0.87
197359206,-0.17,0.11,-0.87
197361226,-0.19,0.14,-0.89
197363216,-0.19,0.14,-0.89
197365288,-0.19,0.14,-0.89
197367251,-0.19,0.14,-0.89
197369203,-0.19,0.14,-0.89
197371370,-0.20,0.16,-0.97
197373268,-0.20,0.16,-0.97
197375246,-0.20,0.16,-0.97
197377251,-0.20,0.16,-0.97
197379251,-0.20,0.16,-0.97
197381250,-0.23,0.20,-1.01
197383249,-0.23,0.20,-1.01
197385248,-0.23,0.20,-1.01
197387210,-0.23,0.20,-1.01
197389216,-0.23,0.20,-1.01
197391306,-0.27,0.23,-1.00
197393219,-0.27,0.23,-1.00
197395302,-0.27,0.23,-1.00
197397239,-0.27,0.23,-1.00
197399215,-0.27,0.23,-1.00
197401212,-0.27,0.23,-1.00
197403208,-0.30,0.25,-0.98
197405207,-0.30,0.25,-0.98
197407208,-0.30,0.25,-0.98
197409211,-0.30,0.25,-0.98
197411267,-0.30,0.25,-0.98
197413277,-0.34,0.27,-0.98
197415359,-0.34,0.27,-0.98
197417255,-0.34,0.27,-0.98
197419248,-0.34,0.27,-0.98
197421250,-0.34,0.27,-0.98
197423252,-0.39,0.29,-1.01
197425249,-0.39,0.29,-1.01
197427210,-0.39,0.29,-1.01
197429239,-0.39,0.29,-1.01
197431310,-0.39,0.29,-1.01
197433232,-0.43,0.32,-1.04
197435206,-0.43,0.32,-1.04
197437205,-0.43,0.32,-1.04
197439214,-0.43,0.32,-1.04
197441324,-0.43,0.32,-1.04
197443244,-0.45,0.35,-1.06
197445215,-0.45,0.35,-1.06
197447210,-0.45,0.35,-1.06
197449208,-0.45,0.35,-1.06
197451240,-0.45,0.35,-1.06
197453275,-0.48,0.31,-1.11
197455283,-0.48,0.31,-1.11
197457253,-0.48,0.31,-1.11
197459254,-0.48,0.31,-1.11
197461269,-0.48,0.31,-1.11
197463277,-0.48,0.25,-1.18
197465359,-0.48,0.25,-1.18
197467276,-0.48,0.25,-1.18
197469251,-0.48,0.25,-1.18
197471281,-0.48,0.25,-1.18
197473262,-0.49,0.15,-1.25
197475246,-0.49,0.15,-1.25
197477216,-0.49,0.15,-1.25
197479215,-0.49,0.15,-1.25
197481214,-0.49,0.15,-1.25
197483212,-0.49,0.15,-1.25
197485212,-0.48,0.11,-1.30
197487216,-0.48,0.11,-1.30
197489210,-0.48,0.11,-1.30
197491394,-0.48,0.11,-1.30
197493266,-0.48,0.11,-1.30
197495253,-0.46,0.05,-1.31
197497246,-0.46,0.05,-1.31
197499279,-0.46,0.05,-1.31
197501281,-0.46,0.05,-1.31
197503252,-0.46,0.05,-1.31
197505249,-0.46,0.06,-1.30
197507248,-0.46,0.06,-1.30
197509287,-0.46,0.06,-1.30
197511248,-0.46,0.06,-1.30
197513214,-0.46,0.06,-1.30
197515303,-0.46,0.16,-1.26
197517219,-0.46,0.16,-1.26
197519244,-0.46,0.16,-1.26
197521273,-0.46,0.16,-1.26
197523233,-0.46,0.16,-1.26
197525209,-0.45,0.24,-1.16
197527218,-0.45,0.24,-1.16
197529205,-0.45,0.24,-1.16
197531260,-0.45,0.24,-1.16
197533300,-0.45,0.24,-1.16
197535253,-0.44,0.38,-1.01
197537251,-0.44,0.38,-1.01
197539253,-0.44,0.38,-1.01
197541350,-0.44,0.38,-1.01
197543269,-0.44,0.38,-1.01
197545257,-0.43,0.47,-0.85
197547316,-0.43,0.47,-0.85
197549265,-0.43,0.47,-0.85
197551248,-0.43,0.47,-0.85
197553216,-0.43,0.47,-0.85
197555208,-0.44,0.55,-0.74
197557277,-0.44,0.55,-0.74
197559247,-0.44,0.55,-0.74
197561227,-0.44,0.55,-0.74
197563221,-0.44,0.55,-0.74
197565355,-0.44,0.55,-0.74
197567260,-0.44,0.61,-0.71
197569208,-0.44,0.61,-0.71
197571205,-0.44,0.61,-0.71
197573266,-0.44,0.61,-0.71
197575274,-0.44,0.61,-0.71
197577254,-0.43,0.66,-0.70
197579252,-0.43,0.66,-0.70
197581245,-0.43,0.66,-0.70
197583248,-0.43,0.66,-0.70
197585249,-0.43,0.66,-0.70
197587248,-0.44,0.69,-0.66
197589287,-0.44,0.69,-0.66
197591348,-0.44,0.69,-0.66
197593208,-0.44,0.69,-0.66
197595205,-0.44,0.69,-0.66
197597215,-0.44,0.66,-0.66
197599205,-0.44,0.66,-0.66
197601219,-0.44,0.66,-0.66
197603257,-0.44,0.66,-0.66
197605217,-0.44,0.66,-0.66
197607206,-0.46,0.58,-0.70
197609208,-0.46,0.58,-0.70
197611211,-0.46,0.58,-0.70
197613268,-0.46,0.58,-0.70
197615354,-0.46,0.58,-0.70
197617252,-0.46,0.51,-0.78
197619248,-0.46,0.51,-0.78
197621274,-0.46,0.51,-0.78
197623264,-0.46,0.51,-0.78
197625257,-0.46,0.51,-0.78
197627249,-0.46,0.46,-0.87
197629248,-0.46,0.46,-0.87
197631216,-0.46,0.46,-0.87
197633212,-0.46,0.46,-0.87
197635208,-0.46,0.46,-0.87
197637210,-0.45,0.43,-0.87
197639212,-0.45,0.43,-0.87
197641318,-0.45,0.43,-0.87
197643213,-0.45,0.43,-0.87
197645257,-0.45,0.43,-0.87
197647236,-0.45,0.43,-0.87
197649208,-0.44,0.38,-0.84
197651211,-0.44,0.38,-0.84
197653256,-0.44,0.38,-0.84
197655254,-0.44,0.38,-0.84
197657304,-0.44,0.38,-0.84
197659269,-0.42,0.35,-0.83
197661255,-0.42,0.35,-0.83
197663251,-0.42,0.35,-0.83
197665358,-0.42,0.35,-0.83
197667262,-0.42,0.35,-0.83
197669208,-0.39,0.33,-0.83
197671205,-0.39,0.33,-0.83
197673205,-0.39,0.33,-0.83
197675204,-0.39,0.33,-0.83
197677208,-0.39,0.33,-0.83
197679219,-0.37,0.33,-0.81
197681301,-0.37,0.33,-0.81
197683236,-0.37,0.33,-0.81
197685212,-0.37,0.33,-0.81
197687210,-0.37,0.33,-0.81
197689206,-0.34,0.34,-0.77
197691322,-0.34,0.34,-0.77
197693283,-0.34,0.34,-0.77
197695273,-0.34,0.34,-0.77
197697253,-0.34,0.34,-0.77
197699248,-0.31,0.37,-0.74
197701249,-0.31,0.37,-0.74
197703250,-0.31,0.37,-0.74
197705249,-0.31,0.37,-0.74
197707243,-0.31,0.37,-0.74
197709269,-0.29,0.37,-0.71
197711252,-0.29,0.37,-0.71
197713212,-0.29,0.37,-0.71
197715301,-0.29,0.37,-0.71
197717223,-0.29,0.37,-0.71
197719204,-0.26,0.38,-0.69
197721212,-0.26,0.38,-0.69
197723215,-0.26,0.38,-0.69
197725212,-0.26,0.38,-0.69
197727206,-0.26,0.38,-0.69
197729204,-0.24,0.39,-0.68
197731207,-0.24,0.39,-0.68
197733262,-0.24,0.39,-0.68
197735255,-0.24,0.39,-0.68
197737286,-0.24,0.39,-0.68
197739268,-0.24,0.39,-0.68
197741354,-0.23,0.38,-0.70
197743250,-0.23,0.38,-0.70
197745251,-0.23,0.38,-0.70
197747255,-0.23,0.38,-0.70
197749276,-0.23,0.38,-0.70
197751249,-0.21,0.37,-0.69
197753211,-0.21,0.37,-0.69
197755206,-0.21,0.37,-0.69
197757206,-0.21,0.37,-0.69
197759225,-0.21,0.37,-0.69
197761257,-0.20,0.36,-0.66
197763218,-0.20,0.36,-0.66
197765303,-0.20,0.36,-0.66
197767251,-0.20,0.36,-0.66
197769208,-0.20,0.36,-0.66
197771207,-0.20,0.35,-0.62
197773275,-0.20,0.35,-0.62
197775316,-0.20,0.35,-0.62
197777262,-0.20,0.35,-0.62
197779257,-0.20,0.35,-0.62
197781246,-0.18,0.35,-0.60
197783240,-0.18,0.35,-0.60
197785242,-0.18,0.35,-0.60
197787237,-0.18,0.35,-0.60
197789223,-0.18,0.35,-0.60
197791369,-0.20,0.38,-0.58
197793259,-0.20,0.38,-0.58
197795230,-0.20,0.38,-0.58
197797194,-0.20,0.38,-0.58
197799202,-0.20,0.38,-0.58
197801206,-0.21,0.39,-0.56
197803213,-0.21,0.39,-0.56
197805251,-0.21,0.39,-0.56
197807204,-0.21,0.39,-0.56
197809204,-0.21,0.39,-0.56
197811223,-0.21,0.41,-0.54
197813263,-0.21,0.41,-0.54
197815356,-0.21,0.41,-0.54
197817248,-0.21,0.41,-0.54
197819266,-0.21,0.41,-0.54
197821276,-0.21,0.41,-0.54
197823255,-0.23,0.43,-0.53
197825247,-0.23,0.43,-0.53
197827245,-0.23,0.43,-0.53
197829246,-0.23,0.43,-0.53
197831208,-0.23,0.43,-0.53
197833211,-0.24,0.44,-0.52
197835276,-0.24,0.44,-0.52
197837217,-0.24,0.44,-0.52
197839205,-0.24,0.44,-0.52
197841313,-0.24,0.44,-0.52
197843204,-0.25,0.46,-0.57
197845246,-0.25,0.46,-0.57
197847254,-0.25,0.46,-0.57
197849235,-0.25,0.46,-0.57
197851236,-0.25,0.46,-0.57
197853274,-0.27,0.48,-0.65
197855248,-0.27,0.48,-0.65
197857247,-0.27,0.48,-0.65
197859258,-0.27,0.48,-0.65
197861272,-0.27,0.48,-0.65
197863261,-0.28,0.50,-0.70
197865353,-0.28,0.50,-0.70
197867265,-0.28,0.50,-0.70
197869287,-0.28,0.50,-0.70
197871279,-0.28,0.50,-0.70
197873241,-0.30,0.54,-0.72
197875204,-0.30,0.54,-0.72
197877205,-0.30,0.54,-0.72
197879205,-0.30,0.54,-0.72
197881203,-0.30,0.54,-0.72
197883206,-0.31,0.57,-0.77
197885205,-0.31,0.57,-0.77
197887206,-0.31,0.57,-0.77
197889279,-0.31,0.57,-0.77
197891329,-0.31,0.57,-0.77
197893262,-0.32,0.59,-0.86
197895253,-0.32,0.59,-0.86
197897280,-0.32,0.59,-0.86
197899259,-0.32,0.59,-0.86
197901247,-0.32,0.59,-0.86
197903255,-0.32,0.59,-0.86
197905273,-0.34,0.61,-0.92
197907259,-0.34,0.61,-0.92
197909244,-0.34,0.61,-0.92
197911210,-0.34,0.61,-0.92
197913272,-0.34,0.61,-0.92
197915342,-0.36,0.62,-0.92
197917212,-0.36,0.62,-0.92
197919212,-0.36,0.62,-0.92
197921221,-0.36,0.62,-0.92
197923257,-0.36,0.62,-0.92
197925202,-0.38,0.64,-0.93
197927205,-0.38,0.64,-0.93
197929203,-0.38,0.64,-0.93
197931204,-0.38,0.64,-0.93
197933268,-0.38,0.64,-0.93
197935248,-0.40,0.70,-0.98
197937245,-0.40,0.70,-0.98
197939248,-0.40,0.70,-0.98
197941349,-0.40,0.70,-0.98
197943253,-0.40,0.70,-0.98
197945254,-0.42,0.77,-1.00
197947205,-0.42,0.77,-1.00
197949205,-0.42,0.77,-1.00
197951233,-0.42,0.77,-1.00
197953243,-0.42,0.77,-1.00
197955222,-0.44,0.83,-0.99
197957317,-0.44,0.83,-0.99
197959235,-0.44,0.83,-0.99
197961222,-0.44,0.83,-0.99
197963215,-0.44,0.83,-0.99
197965302,-0.47,0.84,-0.94
197967248,-0.47,0.84,-0.94
197969192,-0.47,0.84,-0.94
197971202,-0.47,0.84,-0.94
197973270,-0.47,0.84,-0.94
197975243,-0.49,0.82,-0.98
197977263,-0.49,0.82,-0.98
197979332,-0.49,0.82,-0.98
197981270,-0.49,0.82,-0.98
197983249,-0.49,0.82,-0.98
197985253,-0.52,0.78,-1.03
197987246,-0.52,0.78,-1.03
197989215,-0.52,0.78,-1.03
197991384,-0.52,0.78,-1.03
197993215,-0.52,0.78,-1.03
197995206,-0.52,0.78,-1.03
197997203,-0.53,0.71,-1.05
197999204,-0.53,0.71,-1.05
198001204,-0.53,0.71,-1.05
198003207,-0.53,0.71,-1.05
198005258,-0.53,0.71,-1.05
198007205,-0.53,0.62,-1.00
198009204,-0.53,0.62,-1.00
198011203,-0.53,0.62,-1.00
198013273,-0.53,0.62,-1.00
198015353,-0.53,0.62,-1.00
198017253,-0.52,0.51,-1.01
198019246,-0.52,0.51,-1.01
198021244,-0.52,0.51,-1.01
198023246,-0.52,0.51,-1.01
198025243,-0.52,0.51,-1.01
198027205,-0.51,0.40,-1.05
198029210,-0.51,0.40,-1.05
198031272,-0.51,0.40,-1.05
198033253,-0.51,0.40,-1.05
198035206,-0.51,0.40,-1.05
198037203,-0.50,0.31,-1.11
198039223,-0.50,0.31,-1.11
198041312,-0.50,0.31,-1.11
198043263,-0.50,0.31,-1.11
198045206,-0.50,0.31,-1.11
198047204,-0.48,0.29,-1.17
198049204,-0.48,0.29,-1.17
198051211,-0.48,0.29,-1.17
198053263,-0.48,0.29,-1.17
198055268,-0.48,0.29,-1.17
198057246,-0.44,0.32,-1.19
198059251,-0.44,0.32,-1.19
198061259,-0.44,0.32,-1.19
198063281,-0.44,0.32,-1.19
198065360,-0.44,0.32,-1.19
198067272,-0.39,0.38,-1.14
198069247,-0.39,0.38,-1.14
198071247,-0.39,0.38,-1.14
198073206,-0.39,0.38,-1.14
198075204,-0.39,0.38,-1.14
198077204,-0.39,0.38,-1.14
198079206,-0.34,0.48,-0.99
198081210,-0.34,0.48,-0.99
198083205,-0.34,0.48,-0.99
198085205,-0.34,0.48,-0.99
198087205,-0.34,0.48,-0.99
198089204,-0.30,0.55,-0.86
198091295,-0.30,0.55,-0.86
198093263,-0.30,0.55,-0.86
198095278,-0.30,0.55,-0.86
198097261,-0.30,0.55,-0.86
198099245,-0.28,0.60,-0.76
198101243,-0.28,0.60,-0.76
198103254,-0.28,0.60,-0.76
198105270,-0.28,0.60,-0.76
198107261,-0.28,0.60,-0.76
198109247,-0.25,0.66,-0.68
198111205,-0.25,0.66,-0.68
198113218,-0.25,0.66,-0.68
198115387,-0.25,0.66,-0.68
198117217,-0.25,0.66,-0.68
198119204,-0.23,0.69,-0.57
198121215,-0.23,0.69,-0.57
198123257,-0.23,0.69,-0.57
198125203,-0.23,0.69,-0.57
198127201,-0.23,0.69,-0.57
198129202,-0.21,0.67,-0.51
198131203,-0.21,0.67,-0.51
198133273,-0.21,0.67,-0.51
198135252,-0.21,0.67,-0.51
198137246,-0.21,0.67,-0.51
198139251,-0.21,0.61,-0.49
198141377,-0.21,0.61,-0.49
198143258,-0.21,0.61,-0.49
198145244,-0.21,0.61,-0.49
198147248,-0.21,0.61,-0.49
198149213,-0.22,0.55,-0.54
198151205,-0.22,0.55,-0.54
198153209,-0.22,0.55,-0.54
198155204,-0.22,0.55,-0.54
198157218,-0.22,0.55,-0.54
198159281,-0.24,0.40,-0.64
198161254,-0.24,0.40,-0.64
198163223,-0.24,0.40,-0.64
198165300,-0.24,0.40,-0.64
198167251,-0.24,0.40,-0.64
198169256,-0.24,0.40,-0.64
198171205,-0.25,0.32,-0.73
198173263,-0.25,0.32,-0.73
198175250,-0.25,0.32,-0.73
198177244,-0.25,0.32,-0.73
198179238,-0.25,0.32,-0.73
198181248,-0.25,0.27,-0.76
198183248,-0.25,0.27,-0.76
198185252,-0.25,0.27,-0.76
198187298,-0.25,0.27,-0.76
198189230,-0.25,0.27,-0.76
198191312,-0.23,0.19,-0.79
198193204,-0.23,0.19,-0.79
198195207,-0.23,0.19,-0.79
198197242,-0.23,0.19,-0.79
198199244,-0.23,0.19,-0.79
198201205,-0.22,0.18,-0.83
198203194,-0.22,0.18,-0.83
198205202,-0.22,0.18,-0.83
198207203,-0.22,0.18,-0.83
198209203,-0.22,0.18,-0.83
198211203,-0.21,0.17,-0.88
198213264,-0.21,0.17,-0.88
198215350,-0.21,0.17,-0.88
198217250,-0.21,0.17,-0.88
198219278,-0.21,0.17,-0.88
198221277,-0.19,0.18,-0.91
198223252,-0.19,0.18,-0.91
198225248,-0.19,0.18,-0.91
198227251,-0.19,0.18,-0.91
198229251,-0.19,0.18,-0.91
198231205,-0.16,0.20,-0.89
198233205,-0.16,0.20,-0.89
198235205,-0.16,0.20,-0.89
198237203,-0.16,0.20,-0.89
198239212,-0.16,0.20,-0.89
198241317,-0.14,0.20,-0.84
198243205,-0.14,0.20,-0.84
198245203,-0.14,0.20,-0.84
198247219,-0.14,0.20,-0.84
198249211,-0.14,0.20,-0.84
198251209,-0.14,0.20,-0.84
198253253,-0.12,0.20,-0.81
198255253,-0.12,0.20,-0.81
198257247,-0.12,0.20,-0.81
198259253,-0.12,0.20,-0.81
198261274,-0.12,0.20,-0.81
198263248,-0.12,0.19,-0.82
198265335,-0.12,0.19,-0.82
198267246,-0.12,0.19,-0.82
198269207,-0.12,0.19,-0.82
198271202,-0.12,0.19,-0.82
198273203,-0.11,0.16,-0.83
198275205,-0.11,0.16,-0.83
198277232,-0.11,0.16,-0.83
198279300,-0.11,0.16,-0.83
198281231,-0.11,0.16,-0.83
198283201,-0.10,0.13,-0.79
198285202,-0.10,0.13,-0.79
198287204,-0.10,0.13,-0.79
198289221,-0.10,0.13,-0.79
198291313,-0.10,0.13,-0.79
198293292,-0.09,0.11,-0.75
198295269,-0.09,0.11,-0.75
198297257,-0.09,0.11,-0.75
198299249,-0.09,0.11,-0.75
198301261,-0.09,0.11,-0.75
198303291,-0.09,0.09,-0.71
198305264,-0.09,0.09,-0.71
198307245,-0.09,0.09,-0.71
198309246,-0.09,0.09,-0.71
198311240,-0.09,0.09,-0.71
198313210,-0.08,0.07,-0.71
198315300,-0.08,0.07,-0.71
198317217,-0.08,0.07,-0.71
198319210,-0.08,0.07,-0.71
198321206,-0.08,0.07,-0.71
198323270,-0.09,0.07,-0.70
198325252,-0.09,0.07,-0.70
198327207,-0.09,0.07,-0.70
198329195,-0.09,0.07,-0.70
198331202,-0.09,0.07,-0.70
198333266,-0.09,0.07,-0.70
198335248,-0.08,0.05,-0.68
198337247,-0.08,0.05,-0.68
198339256,-0.08,0.05,-0.68
198341341,-0.08,0.05,-0.68
198343249,-0.08,0.05,-0.68
198345291,-0.09,0.06,-0.67
198347245,-0.09,0.06,-0.67
198349204,-0.09,0.06,-0.67
198351203,-0.09,0.06,-0.67
198353202,-0.09,0.06,-0.67
198355202,-0.09,0.07,-0.68
198357206,-0.09,0.07,-0.68
198359207,-0.09,0.07,-0.68
198361228,-0.09,0.07,-0.68
198363261,-0.09,0.07,-0.68
198365339,-0.09,0.06,-0.71
198367244,-0.09,0.06,-0.71
198369206,-0.09,0.06,-0.71
198371195,-0.09,0.06,-0.71
198373271,-0.09,0.06,-0.71
198375251,-0.09,0.06,-0.74
198377242,-0.09,0.06,-0.74
198379246,-0.09,0.06,-0.74
198381242,-0.09,0.06,-0.74
198383245,-0.09,0.06,-0.74
198385243,-0.09,0.06,-0.75
198387202,-0.09,0.06,-0.75
198389206,-0.09,0.06,-0.75
198391309,-0.09,0.06,-0.75
198393208,-0.09,0.06,-0.75
198395203,-0.09,0.07,-0.75
198397204,-0.09,0.07,-0.75
198399290,-0.09,0.07,-0.75
198401237,-0.09,0.07,-0.75
198403203,-0.09,0.07,-0.75
198405194,-0.11,0.09,-0.79
198407203,-0.11,0.09,-0.79
198409231,-0.11,0.09,-0.79
198411252,-0.11,0.09,-0.79
198413266,-0.11,0.09,-0.79
198415354,-0.11,0.12,-0.84
198417252,-0.11,0.12,-0.84
198419260,-0.11,0.12,-0.84
198421267,-0.11,0.12,-0.84
198423256,-0.11,0.12,-0.84
198425248,-0.11,0.12,-0.84
198427242,-0.13,0.10,-0.88
198429278,-0.13,0.10,-0.88
198431249,-0.13,0.10,-0.88
198433207,-0.13,0.10,-0.88
198435204,-0.13,0.10,-0.88
198437204,-0.15,0.08,-0.89
198439250,-0.15,0.08,-0.89
198441314,-0.15,0.08,-0.89
198443211,-0.15,0.08,-0.89
198445204,-0.15,0.08,-0.89
198447204,-0.18,0.09,-0.95
198449205,-0.18,0.09,-0.95
198451203,-0.18,0.09,-0.95
198453270,-0.18,0.09,-0.95
198455252,-0.18,0.09,-0.95
198457250,-0.20,0.11,-0.99
198459257,-0.20,0.11,-0.99
198461274,-0.20,0.11,-0.99
198463273,-0.20,0.11,-0.99
198465365,-0.20,0.11,-0.99
198467271,-0.21,0.15,-1.02
198469248,-0.21,0.15,-1.02
198471247,-0.21,0.15,-1.02
198473282,-0.21,0.15,-1.02
198475229,-0.21,0.15,-1.02
198477203,-0.23,0.16,-1.03
198479195,-0.23,0.16,-1.03
198481262,-0.23,0.16,-1.03
198483211,-0.23,0.16,-1.03
198485204,-0.23,0.16,-1.03
198487205,-0.25,0.19,-1.01
198489204,-0.25,0.19,-1.01
198491313,-0.25,0.19,-1.01
198493283,-0.25,0.19,-1.01
198495251,-0.25,0.19,-1.01
198497242,-0.27,0.20,-1.03
198499250,-0.27,0.20,-1.03
198501272,-0.27,0.20,-1.03
198503258,-0.27,0.20,-1.03
198505245,-0.27,0.20,-1.03
198507249,-0.27,0.20,-1.03
198509295,-0.30,0.19,-1.06
198511243,-0.30,0.19,-1.06
198513206,-0.30,0.19,-1.06
198515300,-0.30,0.19,-1.06
198517219,-0.30,0.19,-1.06
198519217,-0.32,0.22,-1.05
198521254,-0.32,0.22,-1.05
198523205,-0.32,0.22,-1.05
198525207,-0.32,0.22,-1.05
198527195,-0.32,0.22,-1.05
198529202,-0.36,0.22,-1.03
198531202,-0.36,0.22,-1.03
198533265,-0.36,0.22,-1.03
198535248,-0.36,0.22,-1.03
198537249,-0.36,0.22,-1.03
198539255,-0.39,0.21,-1.03
198541347,-0.39,0.21,-1.03
198543247,-0.39,0.21,-1.03
198545246,-0.39,0.21,-1.03
198547208,-0.39,0.21,-1.03
198549208,-0.43,0.21,-1.02
198551207,-0.43,0.21,-1.02
198553206,-0.43,0.21,-1.02
198555214,-0.43,0.21,-1.02
198557282,-0.43,0.21,-1.02
198559233,-0.46,0.19,-1.04
198561224,-0.46,0.19,-1.04
198563219,-0.46,0.19,-1.04
198565301,-0.46,0.19,-1.04
198567257,-0.46,0.19,-1.04
198569247,-0.49,0.14,-1.14
198571208,-0.49,0.14,-1.14
198573261,-0.49,0.14,-1.14
198575245,-0.49,0.14,-1.14
198577244,-0.49,0.14,-1.14
198579251,-0.50,0.07,-1.25
198581305,-0.50,0.07,-1.25
198583264,-0.50,0.07,-1.25
198585244,-0.50,0.07,-1.25
198587244,-0.50,0.07,-1.25
198589220,-0.50,0.07,-1.25
198591383,-0.50,0.00,-1.29
198593218,-0.50,0.00,-1.29
198595204,-0.50,0.00,-1.29
198597195,-0.50,0.00,-1.29
198599210,-0.50,0.00,-1.29
198601195,-0.50,-0.04,-1.26
198603226,-0.50,-0.04,-1.26
198605256,-0.50,-0.04,-1.26
198607204,-0.50,-0.04,-1.26
198609194,-0.50,-0.04,-1.26
198611194,-0.47,-0.05,-1.25
198613267,-0.47,-0.05,-1.25
198615355,-0.47,-0.05,-1.25
198617252,-0.47,-0.05,-1.25
198619245,-0.47,-0.05,-1.25
198621252,-0.46,0.01,-1.21
198623268,-0.46,0.01,-1.21
198625263,-0.46,0.01,-1.21
198627248,-0.46,0.01,-1.21
198629231,-0.46,0.01,-1.21
198631207,-0.43,0.11,-1.11
198633206,-0.43,0.11,-1.11
198635205,-0.43,0.11,-1.11
198637207,-0.43,0.11,-1.11
198639204,-0.43,0.11,-1.11
198641321,-0.41,0.21,-0.99
198643212,-0.41,0.21,-0.99
198645210,-0.41,0.21,-0.99
198647206,-0.41,0.21,-0.99
198649204,-0.41,0.21,-0.99
198651204,-0.40,0.30,-0.93
198653251,-0.40,0.30,-0.93
198655243,-0.40,0.30,-0.93
198657245,-0.40,0.30,-0.93
198659248,-0.40,0.30,-0.93
198661255,-0.39,0.39,-0.89
198663248,-0.39,0.39,-0.89
198665287,-0.39,0.39,-0.89
198667240,-0.39,0.39,-0.89
198669203,-0.39,0.39,-0.89
198671208,-0.39,0.39,-0.89
198673319,-0.38,0.44,-0.84
198675229,-0.38,0.44,-0.84
198677206,-0.38,0.44,-0.84
198679193,-0.38,0.44,-0.84
198681194,-0.38,0.44,-0.84
198683194,-0.37,0.50,-0.84
198685195,-0.37,0.50,-0.84
198687203,-0.37,0.50,-0.84
198689202,-0.37,0.50,-0.84
198691308,-0.37,0.50,-0.84
198693262,-0.36,0.53,-0.85
198695248,-0.36,0.53,-0.85
198697244,-0.36,0.53,-0.85
198699246,-0.36,0.53,-0.85
198701247,-0.36,0.53,-0.85
198703252,-0.34,0.54,-0.83
198705315,-0.34,0.54,-0.83
198707228,-0.34,0.54,-0.83
198709202,-0.34,0.54,-0.83
198711194,-0.34,0.54,-0.83
198713194,-0.34,0.53,-0.80
198715355,-0.34,0.53,-0.80
198717240,-0.34,0.53,-0.80
198719204,-0.34,0.53,-0.80
198721203,-0.34,0.53,-0.80
198723194,-0.36,0.47,-0.85
198725204,-0.36,0.47,-0.85
198727194,-0.36,0.47,-0.85
198729203,-0.36,0.47,-0.85
198731194,-0.36,0.47,-0.85
198733266,-0.38,0.39,-0.93
198735248,-0.38,0.39,-0.93
198737246,-0.38,0.39,-0.93
198739264,-0.38,0.39,-0.93
198741378,-0.38,0.39,-0.93
198743259,-0.39,0.38,-0.98
198745243,-0.39,0.38,-0.98
198747246,-0.39,0.38,-0.98
198749239,-0.39,0.38,-0.98
198751204,-0.39,0.38,-0.98
198753206,-0.39,0.32,-0.97
198755207,-0.39,0.32,-0.97
198757204,-0.39,0.32,-0.97
198759318,-0.39,0.32,-0.97
198761237,-0.39,0.32,-0.97
198763216,-0.39,0.32,-0.97
198765300,-0.38,0.29,-0.94
198767253,-0.38,0.29,-0.94
198769232,-0.38,0.29,-0.94
198771263,-0.38,0.29,-0.94
198773275,-0.38,0.29,-0.94
198775343,-0.37,0.30,-0.94
198777248,-0.37,0.30,-0.94
198779252,-0.37,0.30,-0.94
198781260,-0.37,0.30,-0.94
198783270,-0.37,0.30,-0.94
198785263,-0.34,0.32,-0.95
198787246,-0.34,0.32,-0.95
198789248,-0.34,0.32,-0.95
198791318,-0.34,0.32,-0.95
198793204,-0.34,0.32,-0.95
198795282,-0.32,0.31,-0.89
198797234,-0.32,0.31,-0.89
198799201,-0.32,0.31,-0.89
198801195,-0.32,0.31,-0.89
198803204,-0.32,0.31,-0.89
198805205,-0.30,0.29,-0.81
198807203,-0.30,0.29,-0.81
198809195,-0.30,0.29,-0.81
198811226,-0.30,0.29,-0.81
198813279,-0.30,0.29,-0.81
198815364,-0.29,0.28,-0.77
198817254,-0.29,0.28,-0.77
198819244,-0.29,0.28,-0.77
198821244,-0.29,0.28,-0.77
198823248,-0.29,0.28,-0.77
198825247,-0.28,0.28,-0.77
198827243,-0.28,0.28,-0.77
198829203,-0.28,0.28,-0.77
198831205,-0.28,0.28,-0.77
198833207,-0.28,0.28,-0.77
198835206,-0.27,0.28,-0.78
198837222,-0.27,0.28,-0.78
198839206,-0.27,0.28,-0.78
198841461,-0.27,0.28,-0.78
198843234,-0.27,0.28,-0.78
198845202,-0.27,0.28,-0.78
198847204,-0.25,0.27,-0.77
198849202,-0.25,0.27,-0.77
198851203,-0.25,0.27,-0.77
198853262,-0.25,0.27,-0.77
198855245,-0.25,0.27,-0.77
198857271,-0.25,0.27,-0.76
198859283,-0.25,0.27,-0.76
198861253,-0.25,0.27,-0.76
198863250,-0.25,0.27,-0.76
198865353,-0.25,0.27,-0.76
198867266,-0.25,0.29,-0.76
198869204,-0.25,0.29,-0.76
198871204,-0.25,0.29,-0.76
198873218,-0.25,0.29,-0.76
198875248,-0.25,0.29,-0.76
198877205,-0.24,0.30,-0.76
198879275,-0.24,0.30,-0.76
198881242,-0.24,0.30,-0.76
198883210,-0.24,0.30,-0.76
198885203,-0.24,0.30,-0.76
198887206,-0.25,0.33,-0.75
198889213,-0.25,0.33,-0.75
198891362,-0.25,0.33,-0.75
198893282,-0.25,0.33,-0.75
198895255,-0.25,0.33,-0.75
198897245,-0.25,0.33,-0.75
198899247,-0.25,0.33,-0.75
198901281,-0.25,0.33,-0.75
198903271,-0.25,0.33,-0.75
198905245,-0.25,0.33,-0.75
198907245,-0.25,0.34,-0.84
198909241,-0.25,0.34,-0.84
198911255,-0.25,0.34,-0.84
198913255,-0.25,0.34,-0.84
198915304,-0.25,0.34,-0.84
198917215,-0.25,0.37,-0.84
198919202,-0.25,0.37,-0.84
198921206,-0.25,0.37,-0.84
198923203,-0.25,0.37,-0.84
198925202,-0.25,0.37,-0.84
198927225,-0.26,0.40,-0.78
198929254,-0.26,0.40,-0.78
198931202,-0.26,0.40,-0.78
198933268,-0.26,0.40,-0.78
198935246,-0.26,0.40,-0.78
198937243,-0.26,0.40,-0.78
198939246,-0.27,0.39,-0.74
198941365,-0.27,0.39,-0.74
198943259,-0.27,0.39,-0.74
198945267,-0.27,0.39,-0.74
198947244,-0.27,0.39,-0.74
198949212,-0.27,0.41,-0.76
198951205,-0.27,0.41,-0.76
198953205,-0.27,0.41,-0.76
198955205,-0.27,0.41,-0.76
198957230,-0.27,0.41,-0.76
198959286,-0.27,0.43,-0.80
198961236,-0.27,0.43,-0.80
198963217,-0.27,0.43,-0.80
198965300,-0.27,0.43,-0.80
198967250,-0.27,0.43,-0.80
198969203,-0.28,0.39,-0.79
198971202,-0.28,0.39,-0.79
198973252,-0.28,0.39,-0.79
198975247,-0.28,0.39,-0.79
198977241,-0.28,0.39,-0.79
198979243,-0.30,0.37,-0.76
198981244,-0.30,0.37,-0.76
198983241,-0.30,0.37,-0.76
198985206,-0.30,0.37,-0.76
198987205,-0.30,0.37,-0.76
198989203,-0.32,0.36,-0.82
198991300,-0.32,0.36,-0.82
198993204,-0.32,0.36,-0.82
198995206,-0.32,0.36,-0.82
198997204,-0.32,0.36,-0.82
198999203,-0.33,0.36,-0.95
199001203,-0.33,0.36,-0.95
199003206,-0.33,0.36,-0.95
199005205,-0.33,0.36,-0.95
199007207,-0.33,0.36,-0.95
199009202,-0.34,0.39,-1.00
199011210,-0.34,0.39,-1.00
199013246,-0.34,0.39,-1.00
199015359,-0.34,0.39,-1.00
199017267,-0.34,0.39,-1.00
199019252,-0.34,0.39,-1.00
199021244,-0.34,0.40,-0.98
199023244,-0.34,0.40,-0.98
199025243,-0.34,0.40,-0.98
199027256,-0.34,0.40,-0.98
199029270,-0.34,0.40,-0.98
199031225,-0.36,0.41,-1.00
199033211,-0.36,0.41,-1.00
199035206,-0.36,0.41,-1.00
199037209,-0.36,0.41,-1.00
199039255,-0.36,0.41,-1.00
199041312,-0.37,0.45,-1.11
199043195,-0.37,0.45,-1.11
199045195,-0.37,0.45,-1.11
199047194,-0.37,0.45,-1.11
199049203,-0.37,0.45,-1.11
199051203,-0.39,0.50,-1.18
199053264,-0.39,0.50,-1.18
199055251,-0.39,0.50,-1.18
199057245,-0.39,0.50,-1.18
199059252,-0.39,0.50,-1.18
199061254,-0.39,0.53,-1.14
199063250,-0.39,0.53,-1.14
199065342,-0.39,0.53,-1.14
199067253,-0.39,0.53,-1.14
199069202,-0.39,0.53,-1.14
199071195,-0.40,0.55,-1.06
199073202,-0.40,0.55,-1.06
199075194,-0.40,0.55,-1.06
199077195,-0.40,0.55,-1.06
199079195,-0.40,0.55,-1.06
199081206,-0.41,0.55,-1.05
199083205,-0.41,0.55,-1.05
199085204,-0.41,0.55,-1.05
199087202,-0.41,0.55,-1.05
199089201,-0.41,0.55,-1.05
199091280,-0.42,0.53,-1.10
199093247,-0.42,0.53,-1.10
199095244,-0.42,0.53,-1.10
199097247,-0.42,0.53,-1.10
199099252,-0.42,0.53,-1.10
199101247,-0.42,0.53,-1.10
199103247,-0.42,0.47,-1.09
199105204,-0.42,0.47,-1.09
199107202,-0.42,0.47,-1.09
199109203,-0.42,0.47,-1.09
199111204,-0.42,0.47,-1.09
199113202,-0.42,0.42,-1.00
199115282,-0.42,0.42,-1.00
199117206,-0.42,0.42,-1.00
199119210,-0.42,0.42,-1.00
199121204,-0.42,0.42,-1.00
199123203,-0.42,0.39,-0.92
199125205,-0.42,0.39,-0.92
199127204,-0.42,0.39,-0.92
199129202,-0.42,0.39,-0.92
199131205,-0.42,0.39,-0.92
199133248,-0.42,0.32,-0.95
199135241,-0.42,0.32,-0.95
199137247,-0.42,0.32,-0.95
199139249,-0.42,0.32,-0.95
199141386,-0.42,0.32,-0.95
199143254,-0.43,0.25,-1.00
199145246,-0.43,0.25,-1.00
199147203,-0.43,0.25,-1.00
199149212,-0.43,0.25,-1.00
199151207,-0.43,0.25,-1.00
199153204,-0.44,0.20,-1.04
199155202,-0.44,0.20,-1.04
199157204,-0.44,0.20,-1.04
199159205,-0.44,0.20,-1.04
199161221,-0.44,0.20,-1.04
199163212,-0.43,0.14,-1.11
199165300,-0.43,0.14,-1.11
199167252,-0.43,0.14,-1.11
199169250,-0.43,0.14,-1.11
199171213,-0.43,0.14,-1.11
199173253,-0.41,0.11,-1.16
199175247,-0.41,0.11,-1.16
199177247,-0.41,0.11,-1.16
199179246,-0.41,0.11,-1.16
199181250,-0.41,0.11,-1.16
199183265,-0.40,0.14,-1.16
199185244,-0.40,0.14,-1.16
199187202,-0.40,0.14,-1.16
199189205,-0.40,0.14,-1.16
199191309,-0.40,0.14,-1.16
199193205,-0.40,0.14,-1.16
199195203,-0.36,0.15,-1.15
199197204,-0.36,0.15,-1.15
199199254,-0.36,0.15,-1.15
199201203,-0.36,0.15,-1.15
199203191,-0.36,0.15,-1.15
199205204,-0.31,0.21,-1.04
199207202,-0.31,0.21,-1.04
199209201,-0.31,0.21,-1.04
199211203,-0.31,0.21,-1.04
199213255,-0.31,0.21,-1.04
199215348,-0.27,0.25,-0.91
199217249,-0.27,0.25,-0.91
199219254,-0.27,0.25,-0.91
199221355,-0.27,0.25,-0.91
199223271,-0.27,0.25,-0.91
199225245,-0.24,0.25,-0.86
199227245,-0.24,0.25,-0.86
199229217,-0.24,0.25,-0.86
199231273,-0.24,0.25,-0.86
199233223,-0.24,0.25,-0.86
199235203,-0.21,0.25,-0.90
199237202,-0.21,0.25,-0.90
199239209,-0.21,0.25,-0.90
199241352,-0.21,0.25,-0.90
199243203,-0.21,0.25,-0.90
199245203,-0.19,0.25,-0.92
199247205,-0.19,0.25,-0.92
199249204,-0.19,0.25,-0.92
199251203,-0.19,0.25,-0.92
199253271,-0.19,0.25,-0.92
199255247,-0.18,0.20,-0.88
199257245,-0.18,0.20,-0.88
199259250,-0.18,0.20,-0.88
199261251,-0.18,0.20,-0.88
199263249,-0.18,0.20,-0.88
199265344,-0.16,0.13,-0.86
199267252,-0.16,0.13,-0.86
199269203,-0.16,0.13,-0.86
199271201,-0.16,0.13,-0.86
199273194,-0.16,0.13,-0.86
199275195,-0.16,0.13,-0.86
199277203,-0.16,0.07,-0.86
199279195,-0.16,0.07,-0.86
199281202,-0.16,0.07,-0.86
199283202,-0.16,0.07,-0.86
199285194,-0.16,0.07,-0.86
199287204,-0.15,0.01,-0.88
199289215,-0.15,0.01,-0.88
199291286,-0.15,0.01,-0.88
199293368,-0.15,0.01,-0.88
199295273,-0.15,0.01,-0.88
199297247,-0.14,-0.02,-0.88
199299242,-0.14,-0.02,-0.88
199301242,-0.14,-0.02,-0.88
199303267,-0.14,-0.02,-0.88
199305262,-0.14,-0.02,-0.88
199307263,-0.12,-0.04,-0.84
199309242,-0.12,-0.04,-0.84
199311211,-0.12,-0.04,-0.84
199313217,-0.12,-0.04,-0.84
199315366,-0.12,-0.04,-0.84
199317234,-0.11,-0.04,-0.78
199319204,-0.11,-0.04,-0.78
199321202,-0.11,-0.04,-0.78
199323256,-0.11,-0.04,-0.78
199325207,-0.11,-0.04,-0.78
199327202,-0.09,-0.02,-0.79
199329205,-0.09,-0.02,-0.79
199331190,-0.09,-0.02,-0.79
199333203,-0.09,-0.02,-0.79
199335275,-0.09,-0.02,-0.79
199337253,-0.07,0.02,-0.81
199339251,-0.07,0.02,-0.81
199341375,-0.07,0.02,-0.81
199343267,-0.07,0.02,-0.81
199345265,-0.07,0.02,-0.81
199347245,-0.06,0.06,-0.81
199349243,-0.06,0.06,-0.81
199351278,-0.06,0.06,-0.81
199353242,-0.06,0.06,-0.81
199355206,-0.06,0.06,-0.81
199357204,-0.06,0.03,-0.78
199359206,-0.06,0.03,-0.78
199361235,-0.06,0.03,-0.78
199363252,-0.06,0.03,-0.78
199365300,-0.06,0.03,-0.78
199367251,-0.06,0.03,-0.78
199369204,-0.05,0.00,-0.72
199371366,-0.05,0.00,-0.72
199373233,-0.05,0.00,-0.72
199375278,-0.05,0.00,-0.72
199377253,-0.05,0.00,-0.72
199379251,-0.05,-0.02,-0.69
199381248,-0.05,-0.02,-0.69
199383248,-0.05,-0.02,-0.69
199385255,-0.05,-0.02,-0.69
199387282,-0.05,-0.02,-0.69
199389276,-0.06,-0.04,-0.71
199391365,-0.06,-0.04,-0.71
199393211,-0.06,-0.04,-0.71
199395212,-0.06,-0.04,-0.71
199397240,-0.06,-0.04,-0.71
199399279,-0.05,-0.04,-0.72
199401231,-0.05,-0.04,-0.72
199403210,-0.05,-0.04,-0.72
199405217,-0.05,-0.04,-0.72
199407254,-0.05,-0.04,-0.72
199409208,-0.06,-0.05,-0.68
199411205,-0.06,-0.05,-0.68
199413206,-0.06,-0.05,-0.68
199415361,-0.06,-0.05,-0.68
199417252,-0.06,-0.05,-0.68
199419251,-0.06,-0.05,-0.66
199421249,-0.06,-0.05,-0.66
199423256,-0.06,-0.05,-0.66
199425308,-0.06,-0.05,-0.66
199427261,-0.06,-0.05,-0.66
199429251,-0.06,-0.07,-0.65
199431247,-0.06,-0.07,-0.65
199433216,-0.06,-0.07,-0.65
199435210,-0.06,-0.07,-0.65
199437215,-0.06,-0.07,-0.65
199439213,-0.06,-0.06,-0.66
199441313,-0.06,-0.06,-0.66
199443219,-0.06,-0.06,-0.66
199445210,-0.06,-0.06,-0.66
199447208,-0.06,-0.06,-0.66
199449206,-0.06,-0.06,-0.66
199451208,-0.06,-0.06,-0.68
199453208,-0.06,-0.06,-0.68
199455274,-0.06,-0.06,-0.68
199457293,-0.06,-0.06,-0.68
199459270,-0.06,-0.06,-0.68
199461257,-0.06,-0.07,-0.68
199463248,-0.06,-0.07,-0.68
199465356,-0.06,-0.07,-0.68
199467272,-0.06,-0.07,-0.68
199469255,-0.06,-0.07,-0.68
199471303,-0.05,-0.07,-0.69
199473234,-0.05,-0.07,-0.69
199475205,-0.05,-0.07,-0.69
199477206,-0.05,-0.07,-0.69
199479208,-0.05,-0.07,-0.69
199481205,-0.04,-0.04,-0.69
199483240,-0.04,-0.04,-0.69
199485257,-0.04,-0.04,-0.69
199487238,-0.04,-0.04,-0.69
199489240,-0.04,-0.04,-0.69
199491319,-0.03,-0.07,-0.68
199493215,-0.03,-0.07,-0.68
199495273,-0.03,-0.07,-0.68
199497250,-0.03,-0.07,-0.68
199499250,-0.03,-0.07,-0.68
199501248,-0.02,-0.07,-0.67
199503280,-0.02,-0.07,-0.67
199505254,-0.02,-0.07,-0.67
199507251,-0.02,-0.07,-0.67
199509249,-0.02,-0.07,-0.67
199511217,-0.01,-0.09,-0.67
199513213,-0.01,-0.09,-0.67
199515321,-0.01,-0.09,-0.67
199517369,-0.01,-0.09,-0.67
199519233,-0.01,-0.09,-0.67
199521205,-0.01,-0.09,-0.67
199523205,-0.01,-0.09,-0.67
199525225,-0.01,-0.09,-0.67
199527254,-0.01,-0.09,-0.67
199529210,-0.01,-0.09,-0.67
199531205,-0.01,-0.09,-0.67
199533210,0.00,-0.08,-0.70
199535266,0.00,-0.08,-0.70
199537255,0.00,-0.08,-0.70
199539252,0.00,-0.08,-0.70
199541352,0.00,-0.08,-0.70
199543289,0.00,-0.08,-0.73
199545272,0.00,-0.08,-0.73
199547249,0.00,-0.08,-0.73
199549247,0.00,-0.08,-0.73
199551268,0.00,-0.08,-0.73
199553267,-0.01,-0.12,-0.77
199555232,-0.01,-0.12,-0.77
199557215,-0.01,-0.12,-0.77
199559208,-0.01,-0.12,-0.77
199561226,-0.01,-0.12,-0.77
199563218,-0.03,-0.17,-0.85
199565303,-0.03,-0.17,-0.85
199567254,-0.03,-0.17,-0.85
199569211,-0.03,-0.17,-0.85
199571211,-0.03,-0.17,-0.85
199573209,-0.05,-0.22,-0.93
199575269,-0.05,-0.22,-0.93
199577250,-0.05,-0.22,-0.93
199579252,-0.05,-0.22,-0.93
199581252,-0.05,-0.22,-0.93
199583250,-0.05,-0.25,-0.97
199585251,-0.05,-0.25,-0.97
199587211,-0.05,-0.25,-0.97
199589212,-0.05,-0.25,-0.97
199591305,-0.05,-0.25,-0.97
199593212,-0.06,-0.31,-0.96
199595211,-0.06,-0.31,-0.96
199597215,-0.06,-0.31,-0.96
199599210,-0.06,-0.31,-0.96
199601215,-0.06,-0.31,-0.96
199603218,-0.08,-0.29,-0.95
199605212,-0.08,-0.29,-0.95
199607212,-0.08,-0.29,-0.95
199609209,-0.08,-0.29,-0.95
199611208,-0.08,-0.29,-0.95
199613212,-0.07,-0.29,-1.06
199615332,-0.07,-0.29,-1.06
199617253,-0.07,-0.29,-1.06
199619254,-0.07,-0.29,-1.06
199621270,-0.07,-0.29,-1.06
199623292,-0.07,-0.29,-1.06
199625274,-0.07,-0.27,-1.08
199627251,-0.07,-0.27,-1.08
199629251,-0.07,-0.27,-1.08
199631214,-0.07,-0.27,-1.08
199633207,-0.07,-0.27,-1.08
199635207,-0.07,-0.21,-0.99
199637207,-0.07,-0.21,-0.99
199639212,-0.07,-0.21,-0.99
199641384,-0.07,-0.21,-0.99
199643237,-0.07,-0.21,-0.99
199645206,-0.09,-0.19,-0.94
199647212,-0.09,-0.19,-0.94
199649230,-0.09,-0.19,-0.94
199651256,-0.09,-0.19,-0.94
199653208,-0.09,-0.19,-0.94
199655272,-0.08,-0.11,-0.96
199657250,-0.08,-0.11,-0.96
199659252,-0.08,-0.11,-0.96
199661269,-0.08,-0.11,-0.96
199663273,-0.08,-0.11,-0.96
199665358,-0.10,-0.03,-0.99
199667271,-0.10,-0.03,-0.99
199669253,-0.10,-0.03,-0.99
199671250,-0.10,-0.03,-0.99
199673218,-0.10,-0.03,-0.99
199675219,-0.15,-0.01,-1.04
199677284,-0.15,-0.01,-1.04
199679232,-0.15,-0.01,-1.04
199681205,-0.15,-0.01,-1.04
199683214,-0.15,-0.01,-1.04
199685207,-0.19,0.00,-1.15
199687205,-0.19,0.00,-1.15
199689226,-0.19,0.00,-1.15
199691361,-0.19,0.00,-1.15
199693249,-0.19,0.00,-1.15
199695279,-0.23,-0.07,-1.26
199697272,-0.23,-0.07,-1.26
199699251,-0.23,-0.07,-1.26
199701249,-0.23,-0.07,-1.26
199703279,-0.23,-0.07,-1.26
199705279,-0.23,-0.07,-1.26
199707255,-0.27,-0.15,-1.27
199709255,-0.27,-0.15,-1.27
199711248,-0.27,-0.15,-1.27
199713265,-0.27,-0.15,-1.27
199715333,-0.27,-0.15,-1.27
199717217,-0.30,-0.24,-1.30
199719210,-0.30,-0.24,-1.30
199721207,-0.30,-0.24,-1.30
199723206,-0.30,-0.24,-1.30
199725208,-0.30,-0.24,-1.30
199727205,-0.33,-0.30,-1.34
199729207,-0.33,-0.30,-1.34
199731208,-0.33,-0.30,-1.34
199733204,-0.33,-0.30,-1.34
199735262,-0.33,-0.30,-1.34
199737253,-0.35,-0.35,-1.38
199739249,-0.35,-0.35,-1.38
199741324,-0.35,-0.35,-1.38
199743253,-0.35,-0.35,-1.38
199745251,-0.35,-0.35,-1.38
199747242,-0.34,-0.39,-1.33
199749207,-0.34,-0.39,-1.33
199751314,-0.34,-0.39,-1.33
199753234,-0.34,-0.39,-1.33
199755216,-0.34,-0.39,-1.33
199757205,-0.32,-0.37,-1.18
199759207,-0.32,-0.37,-1.18
199761225,-0.32,-0.37,-1.18
199763222,-0.32,-0.37,-1.18
199765316,-0.32,-0.37,-1.18
199767251,-0.28,-0.27,-1.03
199769208,-0.28,-0.27,-1.03
199771206,-0.28,-0.27,-1.03
199773207,-0.28,-0.27,-1.03
199775340,-0.28,-0.27,-1.03
199777278,-0.25,-0.21,-0.96
199779253,-0.25,-0.21,-0.96
199781246,-0.25,-0.21,-0.96
199783242,-0.25,-0.21,-0.96
199785238,-0.25,-0.21,-0.96
199787289,-0.22,-0.14,-0.92
199789269,-0.22,-0.14,-0.92
199791353,-0.22,-0.14,-0.92
199793205,-0.22,-0.14,-0.92
199795210,-0.22,-0.14,-0.92
199797207,-0.22,-0.14,-0.92
199799245,-0.21,-0.05,-0.84
199801240,-0.21,-0.05,-0.84
199803281,-0.21,-0.05,-0.84
199805240,-0.21,-0.05,-0.84
199807205,-0.21,-0.05,-0.84
199809206,-0.20,-0.04,-0.81
199811224,-0.20,-0.04,-0.81
199813206,-0.20,-0.04,-0.81
199815363,-0.20,-0.04,-0.81
199817273,-0.20,-0.04,-0.81
199819251,-0.20,-0.02,-0.84
199821246,-0.20,-0.02,-0.84
199823254,-0.20,-0.02,-0.84
199825276,-0.20,-0.02,-0.84
199827261,-0.20,-0.02,-0.84
199829246,-0.20,-0.01,-0.92
199831246,-0.20,-0.01,-0.92
199833204,-0.20,-0.01,-0.92
199835204,-0.20,-0.01,-0.92
199837203,-0.20,-0.01,-0.92
199839266,-0.21,-0.05,-0.94
199841350,-0.21,-0.05,-0.94
199843203,-0.21,-0.05,-0.94
199845206,-0.21,-0.05,-0.94
199847209,-0.21,-0.05,-0.94
199849206,-0.22,-0.09,-0.89
199851255,-0.22,-0.09,-0.89
199853204,-0.22,-0.09,-0.89
199855274,-0.22,-0.09,-0.89
199857250,-0.22,-0.09,-0.89
199859249,-0.23,-0.11,-0.86
199861258,-0.23,-0.11,-0.86
199863318,-0.23,-0.11,-0.86
199865364,-0.23,-0.11,-0.86
199867269,-0.23,-0.11,-0.86
199869246,-0.25,-0.14,-0.93
199871246,-0.25,-0.14,-0.93
199873215,-0.25,-0.14,-0.93
199875274,-0.25,-0.14,-0.93
199877227,-0.25,-0.14,-0.93
199879203,-0.25,-0.14,-0.93
199881193,-0.24,-0.13,-1.03
199883201,-0.24,-0.13,-1.03
199885210,-0.24,-0.13,-1.03
199887202,-0.24,-0.13,-1.03
199889203,-0.24,-0.13,-1.03
199891310,-0.23,-0.12,-1.07
199893195,-0.23,-0.12,-1.07
199895258,-0.23,-0.12,-1.07
199897254,-0.23,-0.12,-1.07
199899275,-0.23,-0.12,-1.07
199901247,-0.24,-0.15,-1.03
199903247,-0.24,-0.15,-1.03
199905249,-0.24,-0.15,-1.03
199907249,-0.24,-0.15,-1.03
199909209,-0.24,-0.15,-1.03
199911271,-0.22,-0.19,-1.00
199913252,-0.22,-0.19,-1.00
199915301,-0.22,-0.19,-1.00
199917216,-0.22,-0.19,-1.00
199919204,-0.22,-0.19,-1.00
199921203,-0.21,-0.15,-0.97
199923202,-0.21,-0.15,-0.97
199925203,-0.21,-0.15,-0.97
199927205,-0.21,-0.15,-0.97
199929203,-0.21,-0.15,-0.97
199931204,-0.18,-0.14,-0.98
199933204,-0.18,-0.14,-0.98
199935261,-0.18,-0.14,-0.98
199937248,-0.18,-0.14,-0.98
199939247,-0.18,-0.14,-0.98
199941320,-0.16,-0.11,-0.93
199943247,-0.16,-0.11,-0.93
199945247,-0.16,-0.11,-0.93
199947238,-0.16,-0.11,-0.93
199949309,-0.16,-0.11,-0.93
199951239,-0.14,-0.14,-0.84
199953202,-0.14,-0.14,-0.84
199955204,-0.14,-0.14,-0.84
199957225,-0.14,-0.14,-0.84
199959223,-0.14,-0.14,-0.84
199961257,-0.14,-0.14,-0.84
199963216,-0.13,-0.20,-0.73
199965304,-0.13,-0.20,-0.73
199967245,-0.13,-0.20,-0.73
199969195,-0.13,-0.20,-0.73
199971202,-0.13,-0.20,-0.73
199973204,-0.13,-0.19,-0.70
199975268,-0.13,-0.19,-0.70
199977250,-0.13,-0.19,-0.70
199979247,-0.13,-0.19,-0.70
199981255,-0.13,-0.19,-0.70
199983284,-0.12,-0.18,-0.77
199985256,-0.12,-0.18,-0.77
199987241,-0.12,-0.18,-0.77
199989245,-0.12,-0.18,-0.77
199991345,-0.12,-0.18,-0.77
199993205,-0.12,-0.13,-0.82
199995203,-0.12,-0.13,-0.82
199997216,-0.12,-0.13,-0.82
199999278,-0.12,-0.13,-0.82
200001242,-0.12,-0.13,-0.82
200003203,-0.11,-0.13,-0.80
200005195,-0.11,-0.13,-0.80
200007216,-0.11,-0.13,-0.80
200009255,-0.11,-0.13,-0.80
200011207,-0.11,-0.13,-0.80
200013204,-0.11,-0.10,-0.76
200015362,-0.11,-0.10,-0.76
200017252,-0.11,-0.10,-0.76
200019255,-0.11,-0.10,-0.76
200021264,-0.11,-0.10,-0.76
200023273,-0.08,-0.05,-0.78
200025255,-0.08,-0.05,-0.78
200027247,-0.08,-0.05,-0.78
200029244,-0.08,-0.05,-0.78
200031241,-0.08,-0.05,-0.78
200033205,-0.07,-0.02,-0.82
200035205,-0.07,-0.02,-0.82
200037210,-0.07,-0.02,-0.82
200039224,-0.07,-0.02,-0.82
200041314,-0.07,-0.02,-0.82
200043207,-0.06,-0.05,-0.77
200045205,-0.06,-0.05,-0.77
200047203,-0.06,-0.05,-0.77
200049210,-0.06,-0.05,-0.77
200051209,-0.06,-0.05,-0.77
200053204,-0.06,-0.05,-0.77
200055250,-0.06,-0.09,-0.70
200057249,-0.06,-0.09,-0.70
200059249,-0.06,-0.09,-0.70
200061252,-0.06,-0.09,-0.70
200063248,-0.06,-0.09,-0.70
200065333,-0.06,-0.09,-0.70
200067243,-0.06,-0.09,-0.70
200069201,-0.06,-0.09,-0.70
200071202,-0.06,-0.09,-0.70
200073195,-0.06,-0.09,-0.70
200075201,-0.05,-0.06,-0.77
200077195,-0.05,-0.06,-0.77
200079204,-0.05,-0.06,-0.77
200081202,-0.05,-0.06,-0.77
200083206,-0.05,-0.06,-0.77
200085195,-0.06,-0.05,-0.80
200087204,-0.06,-0.05,-0.80
200089227,-0.06,-0.05,-0.80
200091434,-0.06,-0.05,-0.80
200093236,-0.06,-0.05,-0.80
200095261,-0.07,-0.06,-0.78
200097249,-0.07,-0.06,-0.78
200099248,-0.07,-0.06,-0.78
200101244,-0.07,-0.06,-0.78
200103247,-0.07,-0.06,-0.78
200105265,-0.09,-0.03,-0.80
200107244,-0.09,-0.03,-0.80
200109283,-0.09,-0.03,-0.80
200111230,-0.09,-0.03,-0.80
200113202,-0.09,-0.03,-0.80
200115298,-0.08,0.00,-0.88
200117215,-0.08,0.00,-0.88
200119206,-0.08,0.00,-0.88
200121258,-0.08,0.00,-0.88
200123203,-0.08,0.00,-0.88
200125203,-0.09,0.00,-0.95
200127202,-0.09,0.00,-0.95
200129204,-0.09,0.00,-0.95
200131205,-0.09,0.00,-0.95
200133209,-0.09,0.00,-0.95
200135264,-0.09,0.00,-0.95
200137250,-0.11,-0.00,-0.95
200139247,-0.11,-0.00,-0.95
200141367,-0.11,-0.00,-0.95
200143308,-0.11,-0.00,-0.95
200145264,-0.11,-0.00,-0.95
200147250,-0.12,-0.00,-0.96
200149247,-0.12,-0.00,-0.96
200151253,-0.12,-0.00,-0.96
200153266,-0.12,-0.00,-0.96
200155208,-0.12,-0.00,-0.96
200157203,-0.13,-0.01,-1.00
200159206,-0.13,-0.01,-1.00
200161252,-0.13,-0.01,-1.00
200163252,-0.13,-0.01,-1.00
200165299,-0.13,-0.01,-1.00
200167248,-0.15,-0.09,-1.04
200169210,-0.15,-0.09,-1.04
200171202,-0.15,-0.09,-1.04
200173207,-0.15,-0.09,-1.04
200175270,-0.15,-0.09,-1.04
200177251,-0.17,-0.14,-1.03
200179246,-0.17,-0.14,-1.03
200181242,-0.17,-0.14,-1.03
200183243,-0.17,-0.14,-1.03
200185247,-0.17,-0.14,-1.03
200187245,-0.21,-0.22,-1.03
200189205,-0.21,-0.22,-1.03
200191312,-0.21,-0.22,-1.03
200193210,-0.21,-0.22,-1.03
200195291,-0.21,-0.22,-1.03
200197232,-0.21,-0.17,-1.11
200199205,-0.21,-0.17,-1.11
200201205,-0.21,-0.17,-1.11
200203202,-0.21,-0.17,-1.11
200205215,-0.21,-0.17,-1.11
200207239,-0.22,-0.10,-1.23
200209202,-0.22,-0.10,-1.23
200211205,-0.22,-0.10,-1.23
200213208,-0.22,-0.10,-1.23
200215355,-0.22,-0.10,-1.23
200217251,-0.22,-0.10,-1.23
200219284,-0.20,-0.09,-1.22
200221273,-0.20,-0.09,-1.22
200223252,-0.20,-0.09,-1.22
200225241,-0.20,-0.09,-1.22
200227245,-0.20,-0.09,-1.22
200229243,-0.21,-0.05,-1.10
200231203,-0.21,-0.05,-1.10
200233207,-0.21,-0.05,-1.10
200235206,-0.21,-0.05,-1.10
200237205,-0.21,-0.05,-1.10
200239206,-0.20,-0.12,-1.08
200241309,-0.20,-0.12,-1.08
200243204,-0.20,-0.12,-1.08
200245210,-0.20,-0.12,-1.08
200247205,-0.20,-0.12,-1.08
200249285,-0.21,-0.02,-1.04
200251242,-0.21,-0.02,-1.04
200253207,-0.21,-0.02,-1.04
200255258,-0.21,-0.02,-1.04
200257246,-0.21,-0.02,-1.04
200259248,-0.22,-0.09,-1.04
200261259,-0.22,-0.09,-1.04
200263273,-0.22,-0.09,-1.04
200265358,-0.22,-0.09,-1.04
200267264,-0.22,-0.09,-1.04
200269244,-0.24,-0.13,-1.03
200271205,-0.24,-0.13,-1.03
200273204,-0.24,-0.13,-1.03
200275204,-0.24,-0.13,-1.03
200277202,-0.24,-0.13,-1.03
200279215,-0.27,-0.13,-1.07
200281207,-0.27,-0.13,-1.07
200283226,-0.27,-0.13,-1.07
200285295,-0.27,-0.13,-1.07
200287233,-0.27,-0.13,-1.07
200289218,-0.28,-0.21,-1.14
200291312,-0.28,-0.21,-1.14
200293203,-0.28,-0.21,-1.14
200295260,-0.28,-0.21,-1.14
200297250,-0.28,-0.21,-1.14
200299246,-0.33,-0.27,-1.20
200301245,-0.33,-0.27,-1.20
200303340,-0.33,-0.27,-1.20
200305263,-0.33,-0.27,-1.20
200307245,-0.33,-0.27,-1.20
200309245,-0.33,-0.27,-1.20
200311254,-0.37,-0.39,-1.32
200313227,-0.37,-0.39,-1.32
200315365,-0.37,-0.39,-1.32
200317243,-0.37,-0.39,-1.32
200319195,-0.37,-0.39,-1.32
200321202,-0.36,-0.46,-1.45
200323223,-0.36,-0.46,-1.45
200325251,-0.36,-0.46,-1.45
200327208,-0.36,-0.46,-1.45
200329203,-0.36,-0.46,-1.45
200331201,-0.36,-0.45,-1.39
200333204,-0.36,-0.45,-1.39
200335267,-0.36,-0.45,-1.39
200337246,-0.36,-0.45,-1.39
200339251,-0.36,-0.45,-1.39
200341351,-0.34,-0.47,-1.27
200343246,-0.34,-0.47,-1.27
200345248,-0.34,-0.47,-1.27
200347250,-0.34,-0.47,-1.27
200349231,-0.34,-0.47,-1.27
200351204,-0.29,-0.41,-1.19
200353207,-0.29,-0.41,-1.19
200355203,-0.29,-0.41,-1.19
200357205,-0.29,-0.41,-1.19
200359207,-0.29,-0.41,-1.19
200361225,-0.23,-0.29,-1.06
200363214,-0.23,-0.29,-1.06
200365286,-0.23,-0.29,-1.06
200367248,-0.23,-0.29,-1.06
200369208,-0.23,-0.29,-1.06
200371194,-0.21,-0.27,-0.93
200373207,-0.21,-0.27,-0.93
200375273,-0.21,-0.27,-0.93
200377370,-0.21,-0.27,-0.93
200379264,-0.21,-0.27,-0.93
200381245,-0.18,-0.14,-0.78
200383245,-0.18,-0.14,-0.78
200385244,-0.18,-0.14,-0.78
200387243,-0.18,-0.14,-0.78
200389288,-0.18,-0.14,-0.78
200391364,-0.13,-0.09,-0.78
200393211,-0.13,-0.09,-0.78
200395209,-0.13,-0.09,-0.78
200397206,-0.13,-0.09,-0.78
200399204,-0.13,-0.09,-0.78
200401204,-0.13,-0.09,-0.78
200403205,-0.12,-0.06,-0.85
200405207,-0.12,-0.06,-0.85
200407275,-0.12,-0.06,-0.85
200409256,-0.12,-0.06,-0.85
200411244,-0.12,-0.06,-0.85
200413203,-0.12,-0.08,-0.88
200415353,-0.12,-0.08,-0.88
200417273,-0.12,-0.08,-0.88
200419281,-0.12,-0.08,-0.88
200421251,-0.12,-0.08,-0.88
200423261,-0.14,-0.20,-0.86
200425246,-0.14,-0.20,-0.86
200427245,-0.14,-0.20,-0.86
200429252,-0.14,-0.20,-0.86
200431264,-0.14,-0.20,-0.86
200433282,-0.17,-0.22,-0.89
200435206,-0.17,-0.22,-0.89
200437206,-0.17,-0.22,-0.89
200439203,-0.17,-0.22,-0.89
200441312,-0.17,-0.22,-0.89
200443262,-0.16,-0.22,-1.03
200445207,-0.16,-0.22,-1.03
200447204,-0.16,-0.22,-1.03
200449202,-0.16,-0.22,-1.03
200451195,-0.16,-0.22,-1.03
200453209,-0.16,-0.24,-1.08
200455276,-0.16,-0.24,-1.08
200457260,-0.16,-0.24,-1.08
200459257,-0.16,-0.24,-1.08
200461255,-0.16,-0.24,-1.08
200463253,-0.17,-0.29,-0.99
200465365,-0.17,-0.29,-0.99
200467265,-0.17,-0.29,-0.99
200469259,-0.17,-0.29,-0.99
200471251,-0.17,-0.29,-0.99
200473251,-0.18,-0.32,-0.87
200475215,-0.18,-0.32,-0.87
200477205,-0.18,-0.32,-0.87
200479204,-0.18,-0.32,-0.87
200481205,-0.18,-0.32,-0.87
200483213,-0.18,-0.32,-0.87
200485206,-0.17,-0.37,-0.86
200487204,-0.17,-0.37,-0.86
200489204,-0.17,-0.37,-0.86
200491432,-0.17,-0.37,-0.86
200493243,-0.17,-0.37,-0.86
200495259,-0.18,-0.35,-0.94
200497246,-0.18,-0.35,-0.94
200499268,-0.18,-0.35,-0.94
200501260,-0.18,-0.35,-0.94
200503251,-0.18,-0.35,-0.94
200505247,-0.16,-0.34,-0.98
200507248,-0.16,-0.34,-0.98
200509272,-0.16,-0.34,-0.98
200511255,-0.16,-0.34,-0.98
200513250,-0.16,-0.34,-0.98
200515299,-0.15,-0.34,-0.91
200517216,-0.15,-0.34,-0.91
200519203,-0.15,-0.34,-0.91
200521203,-0.15,-0.34,-0.91
200523208,-0.15,-0.34,-0.91
200525213,-0.15,-0.32,-0.83
200527278,-0.15,-0.32,-0.83
200529226,-0.15,-0.32,-0.83
200531203,-0.15,-0.32,-0.83
200533259,-0.15,-0.32,-0.83
200495259,-0.18,-0.35,-0.94
200497246,-0.18,-0.35,-0.94
200499268,-0.18,-0.35,-0.94
200501260,-0.18,-0.35,-0.94
200503251,-0.18,-0.35,-0.94
200505247,-0.16,-0.34,-0.98
200507248,-0.16,-0.34,-0.98
200509272,-0.16,-0.34,-0.98
200511255,-0.16,-0.34,-0.98
200513250,-0.16,-0.34,-0.98
