timestamp,accX,accY,accZ
212660273,-0.03,0.25,-0.80
212662230,-0.03,0.25,-0.80
212664220,-0.03,0.25,-0.80
212666294,-0.03,0.25,-0.80
212668211,-0.03,0.16,-0.81
212670208,-0.03,0.16,-0.81
212672211,-0.03,0.16,-0.81
212674208,-0.03,0.16,-0.81
212676207,-0.03,0.16,-0.81
212678211,-0.05,0.18,-0.86
212680210,-0.05,0.18,-0.86
212682215,-0.05,0.18,-0.86
212684213,-0.05,0.18,-0.86
212686216,-0.05,0.18,-0.86
212688211,-0.06,0.19,-0.93
212690276,-0.06,0.19,-0.93
212692219,-0.06,0.19,-0.93
212694216,-0.06,0.19,-0.93
212696216,-0.06,0.19,-0.93
212698260,-0.06,0.19,-0.93
212700215,-0.07,0.12,-0.93
212702216,-0.07,0.12,-0.93
212704214,-0.07,0.12,-0.93
212706211,-0.07,0.12,-0.93
212708210,-0.07,0.12,-0.93
212766379,-0.12,0.17,-0.98
212768258,-0.12,0.17,-0.98
212770256,-0.12,0.20,-0.89
212772264,-0.12,0.20,-0.89
212774320,-0.12,0.20,-0.89
212776270,-0.12,0.20,-0.89
212778256,-0.12,0.20,-0.89
212780254,-0.12,0.25,-0.89
212782256,-0.12,0.25,-0.89
212784253,-0.12,0.25,-0.89
212786214,-0.12,0.25,-0.89
212788215,-0.12,0.25,-0.89
212790332,-0.12,0.25,-0.89
212792222,-0.12,0.28,-0.98
212794214,-0.12,0.28,-0.98
212796223,-0.12,0.28,-0.98
212798211,-0.12,0.28,-0.98
212800214,-0.12,0.28,-0.98
212802211,-0.13,0.34,-1.00
212804210,-0.13,0.34,-1.00
212806266,-0.13,0.34,-1.00
212808256,-0.13,0.34,-1.00
212810256,-0.13,0.34,-1.00
212812263,-0.12,0.34,-0.98
212814298,-0.12,0.34,-0.98
212816383,-0.12,0.34,-0.98
212818255,-0.12,0.34,-0.98
212820254,-0.12,0.34,-0.98
212822220,-0.12,0.36,-0.98
212824216,-0.12,0.36,-0.98
212826218,-0.12,0.36,-0.98
212828236,-0.12,0.36,-0.98
212830289,-0.12,0.36,-0.98
212832239,-0.11,0.39,-1.00
212834214,-0.11,0.39,-1.00
212836215,-0.11,0.39,-1.00
212838258,-0.11,0.39,-1.00
212840363,-0.11,0.39,-1.00
212842223,-0.11,0.36,-0.97
212844211,-0.11,0.36,-0.97
212846283,-0.11,0.36,-0.97
212848262,-0.11,0.36,-0.97
212850260,-0.11,0.36,-0.97
212852259,-0.11,0.31,-0.94
212854256,-0.11,0.31,-0.94
212856254,-0.11,0.31,-0.94
212858256,-0.11,0.31,-0.94
212860241,-0.11,0.31,-0.94
212862298,-0.12,0.29,-0.92
212864249,-0.12,0.29,-0.92
212866320,-0.12,0.29,-0.92
212868216,-0.12,0.29,-0.92
212870214,-0.12,0.29,-0.92
212872214,-0.12,0.29,-0.92
212874214,-0.14,0.27,-0.95
212876260,-0.14,0.27,-0.95
212878220,-0.14,0.27,-0.95
212880219,-0.14,0.27,-0.95
212882211,-0.14,0.27,-0.95
212884210,-0.15,0.26,-0.99
212886282,-0.15,0.26,-0.99
212888258,-0.15,0.26,-0.99
212890357,-0.15,0.26,-0.99
212892256,-0.15,0.26,-0.99
212894253,-0.14,0.27,-0.99
212896254,-0.14,0.27,-0.99
212898255,-0.14,0.27,-0.99
212900215,-0.14,0.27,-0.99
212902242,-0.14,0.27,-0.99
212904289,-0.14,0.27,-0.93
212906258,-0.14,0.27,-0.93
212908211,-0.14,0.27,-0.93
212910213,-0.14,0.27,-0.93
212912219,-0.14,0.27,-0.93
212914215,-0.12,0.26,-0.86
212916318,-0.12,0.26,-0.86
212918258,-0.12,0.26,-0.86
212920212,-0.12,0.26,-0.86
212922219,-0.12,0.26,-0.86
212924216,-0.11,0.29,-0.82
212926286,-0.11,0.29,-0.82
212928258,-0.11,0.29,-0.82
212930258,-0.11,0.29,-0.82
212932259,-0.11,0.29,-0.82
212934257,-0.09,0.30,-0.79
212936381,-0.09,0.30,-0.79
212938273,-0.09,0.30,-0.79
212940364,-0.09,0.30,-0.79
212942260,-0.09,0.30,-0.79
212944214,-0.08,0.34,-0.75
212946214,-0.08,0.34,-0.75
212948215,-0.08,0.34,-0.75
212950219,-0.08,0.34,-0.75
212952220,-0.08,0.34,-0.75
212954217,-0.08,0.34,-0.75
212956226,-0.08,0.32,-0.71
212958375,-0.08,0.32,-0.71
212960242,-0.08,0.32,-0.71
212962232,-0.08,0.32,-0.71
212964221,-0.08,0.32,-0.71
212966374,-0.09,0.27,-0.72
212968258,-0.09,0.27,-0.72
212970254,-0.09,0.27,-0.72
212972254,-0.09,0.27,-0.72
212974321,-0.09,0.27,-0.72
212976263,-0.10,0.25,-0.74
212978255,-0.10,0.25,-0.74
212980252,-0.10,0.25,-0.74
212982216,-0.10,0.25,-0.74
212984246,-0.10,0.25,-0.74
212986316,-0.11,0.23,-0.78
212988243,-0.11,0.23,-0.78
212990305,-0.11,0.23,-0.78
212992225,-0.11,0.23,-0.78
212994270,-0.11,0.23,-0.78
212996235,-0.12,0.21,-0.80
212998216,-0.12,0.21,-0.80
213000214,-0.12,0.21,-0.80
213002211,-0.12,0.21,-0.80
213004229,-0.12,0.21,-0.80
213006289,-0.12,0.20,-0.77
213008281,-0.12,0.20,-0.77
213010256,-0.12,0.20,-0.77
213012256,-0.12,0.20,-0.77
213014263,-0.12,0.20,-0.77
213016431,-0.11,0.21,-0.74
213018267,-0.11,0.21,-0.74
213020258,-0.11,0.21,-0.74
213022256,-0.11,0.21,-0.74
213024223,-0.11,0.21,-0.74
213026227,-0.11,0.23,-0.74
213028292,-0.11,0.23,-0.74
213030236,-0.11,0.23,-0.74
213032219,-0.11,0.23,-0.74
213034219,-0.11,0.23,-0.74
213036220,-0.11,0.24,-0.77
213038224,-0.11,0.24,-0.77
213040369,-0.11,0.24,-0.77
213042223,-0.11,0.24,-0.77
213044215,-0.11,0.24,-0.77
213046296,-0.11,0.24,-0.77
213048266,-0.11,0.23,-0.78
213050257,-0.11,0.23,-0.78
213052254,-0.11,0.23,-0.78
213054256,-0.11,0.23,-0.78
213056258,-0.11,0.23,-0.78
213058259,-0.12,0.27,-0.77
213060225,-0.12,0.27,-0.77
213062301,-0.12,0.27,-0.77
213064255,-0.12,0.27,-0.77
213066319,-0.12,0.27,-0.77
213068220,-0.12,0.27,-0.80
213070219,-0.12,0.27,-0.80
213072211,-0.12,0.27,-0.80
213074218,-0.12,0.27,-0.80
213076257,-0.12,0.27,-0.80
213078219,-0.12,0.27,-0.83
213080217,-0.12,0.27,-0.83
213082215,-0.12,0.27,-0.83
213084211,-0.12,0.27,-0.83
213086281,-0.12,0.27,-0.83
213088258,-0.12,0.27,-0.84
213090360,-0.12,0.27,-0.84
213092257,-0.12,0.27,-0.84
213094258,-0.12,0.27,-0.84
213096295,-0.12,0.27,-0.84
213098279,-0.11,0.23,-0.80
213100258,-0.11,0.23,-0.80
213102256,-0.11,0.23,-0.80
213104216,-0.11,0.23,-0.80
213106219,-0.11,0.23,-0.80
213108252,-0.11,0.17,-0.77
213110216,-0.11,0.17,-0.77
213112214,-0.11,0.17,-0.77
213114228,-0.11,0.17,-0.77
213116391,-0.11,0.17,-0.77
213118226,-0.10,0.14,-0.79
213120215,-0.10,0.14,-0.79
213122227,-0.10,0.14,-0.79
213124260,-0.10,0.14,-0.79
213126280,-0.10,0.14,-0.79
213128256,-0.10,0.14,-0.79
213130255,-0.09,0.13,-0.84
213132270,-0.09,0.13,-0.84
213134285,-0.09,0.13,-0.84
213136257,-0.09,0.13,-0.84
213138256,-0.09,0.13,-0.84
213140361,-0.07,0.12,-0.87
213142289,-0.07,0.12,-0.87
213144259,-0.07,0.12,-0.87
213146217,-0.07,0.12,-0.87
213148214,-0.07,0.12,-0.87
213150211,-0.07,0.11,-0.88
213152212,-0.07,0.11,-0.88
213154225,-0.07,0.11,-0.88
213156261,-0.07,0.11,-0.88
213158216,-0.07,0.11,-0.88
213160220,-0.08,0.07,-0.90
213162234,-0.08,0.07,-0.90
213164217,-0.08,0.07,-0.90
213166383,-0.08,0.07,-0.90
213168258,-0.08,0.07,-0.90
213170258,-0.07,0.05,-0.93
213172257,-0.07,0.05,-0.93
213174258,-0.07,0.05,-0.93
213176285,-0.07,0.05,-0.93
213178340,-0.07,0.05,-0.93
213180272,-0.09,0.07,-0.98
213182251,-0.09,0.07,-0.98
213184216,-0.09,0.07,-0.98
213186215,-0.09,0.07,-0.98
213188218,-0.09,0.07,-0.98
213190370,-0.09,0.03,-1.00
213192235,-0.09,0.03,-1.00
213194216,-0.09,0.03,-1.00
213196226,-0.09,0.03,-1.00
213198260,-0.09,0.03,-1.00
213200216,-0.10,0.04,-0.97
213202211,-0.10,0.04,-0.97
213204210,-0.10,0.04,-0.97
213206279,-0.10,0.04,-0.97
213208254,-0.10,0.04,-0.97
213210261,-0.11,0.09,-0.95
213212277,-0.11,0.09,-0.95
213214285,-0.11,0.09,-0.95
213216387,-0.11,0.09,-0.95
213218255,-0.11,0.09,-0.95
213220258,-0.11,0.09,-0.95
213222253,-0.12,0.16,-1.02
213224216,-0.12,0.16,-1.02
213226218,-0.12,0.16,-1.02
213228220,-0.12,0.16,-1.02
213230216,-0.12,0.16,-1.02
213232220,-0.13,0.25,-1.15
213234215,-0.13,0.25,-1.15
213236222,-0.13,0.25,-1.15
213238216,-0.13,0.25,-1.15
213240292,-0.13,0.25,-1.15
213242224,-0.13,0.31,-1.24
213244245,-0.13,0.31,-1.24
213246257,-0.13,0.31,-1.24
213248257,-0.13,0.31,-1.24
213250255,-0.13,0.31,-1.24
213252258,-0.12,0.35,-1.22
213254262,-0.12,0.35,-1.22
213256256,-0.12,0.35,-1.22
213258222,-0.12,0.35,-1.22
213260220,-0.12,0.35,-1.22
213262237,-0.11,0.32,-1.18
213264227,-0.11,0.32,-1.18
213266307,-0.11,0.32,-1.18
213268218,-0.11,0.32,-1.18
213270220,-0.11,0.32,-1.18
213272221,-0.10,0.38,-1.22
213274218,-0.10,0.38,-1.22
213276220,-0.10,0.38,-1.22
213278217,-0.10,0.38,-1.22
213280216,-0.10,0.38,-1.22
213282217,-0.09,0.36,-1.27
213284218,-0.09,0.36,-1.27
213286257,-0.09,0.36,-1.27
213288264,-0.09,0.36,-1.27
213290372,-0.09,0.36,-1.27
213292275,-0.09,0.29,-1.21
213294254,-0.09,0.29,-1.21
213296258,-0.09,0.29,-1.21
213298257,-0.09,0.29,-1.21
213300253,-0.09,0.29,-1.21
213302220,-0.09,0.29,-1.21
213304220,-0.11,0.28,-1.14
213306220,-0.11,0.28,-1.14
213308216,-0.11,0.28,-1.14
213310218,-0.11,0.28,-1.14
213312234,-0.11,0.28,-1.14
213314294,-0.10,0.23,-1.19
213316365,-0.10,0.23,-1.19
213318208,-0.10,0.23,-1.19
213320233,-0.10,0.23,-1.19
213322213,-0.10,0.23,-1.19
213324228,-0.11,0.24,-1.24
213326289,-0.11,0.24,-1.24
213328270,-0.11,0.24,-1.24
213330256,-0.11,0.24,-1.24
213332256,-0.11,0.24,-1.24
213334256,-0.12,0.26,-1.26
213336337,-0.12,0.26,-1.26
213338264,-0.12,0.26,-1.26
213340361,-0.12,0.26,-1.26
213342259,-0.12,0.26,-1.26
213344254,-0.12,0.23,-1.25
213346325,-0.12,0.23,-1.25
213348239,-0.12,0.23,-1.25
213350215,-0.12,0.23,-1.25
213352212,-0.12,0.23,-1.25
213354242,-0.11,0.23,-1.19
213356258,-0.11,0.23,-1.19
213358214,-0.11,0.23,-1.19
213360215,-0.11,0.23,-1.19
213362233,-0.11,0.23,-1.19
213364230,-0.09,0.26,-1.11
213366379,-0.09,0.26,-1.11
213368256,-0.09,0.26,-1.11
213370257,-0.09,0.26,-1.11
213372263,-0.09,0.26,-1.11
213374257,-0.07,0.27,-1.05
213376255,-0.07,0.27,-1.05
213378255,-0.07,0.27,-1.05
213380251,-0.07,0.27,-1.05
213382221,-0.07,0.27,-1.05
213384219,-0.07,0.27,-1.05
213386234,-0.07,0.30,-1.03
213388222,-0.07,0.30,-1.03
213390312,-0.07,0.30,-1.03
213392225,-0.07,0.30,-1.03
213394294,-0.07,0.30,-1.03
213396255,-0.07,0.34,-1.02
213398217,-0.07,0.34,-1.02
213400216,-0.07,0.34,-1.02
213402215,-0.07,0.34,-1.02
213404220,-0.07,0.34,-1.02
213406294,-0.07,0.34,-0.99
213408282,-0.07,0.34,-0.99
213410259,-0.07,0.34,-0.99
213412257,-0.07,0.34,-0.99
213414258,-0.07,0.34,-0.99
213416364,-0.07,0.35,-0.96
213418281,-0.07,0.35,-0.96
213420338,-0.07,0.35,-0.96
213422277,-0.07,0.35,-0.96
213424253,-0.07,0.35,-0.96
213426224,-0.07,0.36,-0.95
213428222,-0.07,0.36,-0.95
213430311,-0.07,0.36,-0.95
213432242,-0.07,0.36,-0.95
213434223,-0.07,0.36,-0.95
213436216,-0.07,0.39,-0.98
213438216,-0.07,0.39,-0.98
213440363,-0.07,0.39,-0.98
213442226,-0.07,0.39,-0.98
213444251,-0.07,0.39,-0.98
213446278,-0.08,0.43,-1.03
213448257,-0.08,0.43,-1.03
213450258,-0.08,0.43,-1.03
213452256,-0.08,0.43,-1.03
213454256,-0.08,0.43,-1.03
213456297,-0.09,0.46,-1.01
213458283,-0.09,0.46,-1.01
213460259,-0.09,0.46,-1.01
213462260,-0.09,0.46,-1.01
213464225,-0.09,0.46,-1.01
213466318,-0.09,0.47,-0.98
213468221,-0.09,0.47,-0.98
213470231,-0.09,0.47,-0.98
213472287,-0.09,0.47,-0.98
213474242,-0.09,0.47,-0.98
213476220,-0.09,0.47,-0.98
213478245,-0.10,0.46,-0.96
213480260,-0.10,0.46,-0.96
213482220,-0.10,0.46,-0.96
213484217,-0.10,0.46,-0.96
213486281,-0.10,0.46,-0.96
213488258,-0.11,0.46,-0.94
213490358,-0.11,0.46,-0.94
213492264,-0.11,0.46,-0.94
213494281,-0.11,0.46,-0.94
213496272,-0.11,0.46,-0.94
213498259,-0.11,0.46,-0.90
213500260,-0.11,0.46,-0.90
213502261,-0.11,0.46,-0.90
213504304,-0.11,0.46,-0.90
213506242,-0.11,0.46,-0.90
213508218,-0.12,0.43,-0.87
213510217,-0.12,0.43,-0.87
213512217,-0.12,0.43,-0.87
213514226,-0.12,0.43,-0.87
213516340,-0.12,0.43,-0.87
213518252,-0.13,0.44,-0.82
213520229,-0.13,0.44,-0.82
213522259,-0.13,0.44,-0.82
213524219,-0.13,0.44,-0.82
213526279,-0.13,0.44,-0.82
213528274,-0.13,0.43,-0.77
213530249,-0.13,0.43,-0.77
213532250,-0.13,0.43,-0.77
213534253,-0.13,0.43,-0.77
213536251,-0.13,0.43,-0.77
213538252,-0.14,0.44,-0.75
213540325,-0.14,0.44,-0.75
213542219,-0.14,0.44,-0.75
213544253,-0.14,0.44,-0.75
213546218,-0.14,0.44,-0.75
213548319,-0.15,0.43,-0.76
213550232,-0.15,0.43,-0.76
213552208,-0.15,0.43,-0.76
213554205,-0.15,0.43,-0.76
213556207,-0.15,0.43,-0.76
213558217,-0.15,0.43,-0.76
213560256,-0.16,0.44,-0.78
213562224,-0.16,0.44,-0.78
213564218,-0.16,0.44,-0.78
213566373,-0.16,0.44,-0.78
213568252,-0.16,0.44,-0.78
213570250,-0.17,0.45,-0.76
213572249,-0.17,0.45,-0.76
213574256,-0.17,0.45,-0.76
213576264,-0.17,0.45,-0.76
213578283,-0.17,0.45,-0.76
213580264,-0.17,0.45,-0.74
213582256,-0.17,0.45,-0.74
213584213,-0.17,0.45,-0.74
213586222,-0.17,0.45,-0.74
213588275,-0.17,0.45,-0.74
213590253,-0.18,0.46,-0.68
213592211,-0.18,0.46,-0.68
213594205,-0.18,0.46,-0.68
213596252,-0.18,0.46,-0.68
213598215,-0.18,0.46,-0.68
213600206,-0.19,0.51,-0.65
213602211,-0.19,0.51,-0.65
213604208,-0.19,0.51,-0.65
213606266,-0.19,0.51,-0.65
213608251,-0.19,0.51,-0.65
213610247,-0.20,0.59,-0.69
213612249,-0.20,0.59,-0.69
213614248,-0.20,0.59,-0.69
213616300,-0.20,0.59,-0.69
213618282,-0.20,0.59,-0.69
213620265,-0.20,0.66,-0.74
213622256,-0.20,0.66,-0.74
213624211,-0.20,0.66,-0.74
213626213,-0.20,0.66,-0.74
213628211,-0.20,0.66,-0.74
213630210,-0.21,0.74,-0.77
213632215,-0.21,0.74,-0.77
213634214,-0.21,0.74,-0.77
213636276,-0.21,0.74,-0.77
213638230,-0.21,0.74,-0.77
213640244,-0.21,0.74,-0.77
213642242,-0.22,0.82,-0.77
213644269,-0.22,0.82,-0.77
213646273,-0.22,0.82,-0.77
213648260,-0.22,0.82,-0.77
213650251,-0.22,0.82,-0.77
213652250,-0.22,0.86,-0.80
213654274,-0.22,0.86,-0.80
213656263,-0.22,0.86,-0.80
213658254,-0.22,0.86,-0.80
213660250,-0.22,0.86,-0.80
213662247,-0.23,0.88,-0.83
213664219,-0.23,0.88,-0.83
213666243,-0.23,0.88,-0.83
213668211,-0.23,0.88,-0.83
213670210,-0.23,0.88,-0.83
213672215,-0.24,0.87,-0.83
213674211,-0.24,0.87,-0.83
213676211,-0.24,0.87,-0.83
213678210,-0.24,0.87,-0.83
213680210,-0.24,0.87,-0.83
213682215,-0.26,0.81,-0.86
213684211,-0.26,0.81,-0.86
213686251,-0.26,0.81,-0.86
213688249,-0.26,0.81,-0.86
213690260,-0.26,0.81,-0.86
213692249,-0.28,0.80,-0.96
213694285,-0.28,0.80,-0.96
213696268,-0.28,0.80,-0.96
213698252,-0.28,0.80,-0.96
213700250,-0.28,0.80,-0.96
213702216,-0.29,0.81,-1.05
213704211,-0.29,0.81,-1.05
213706211,-0.29,0.81,-1.05
213708214,-0.29,0.81,-1.05
213710213,-0.29,0.81,-1.05
213712210,-0.30,0.77,-1.07
213714218,-0.30,0.77,-1.07
213716242,-0.30,0.77,-1.07
213718216,-0.30,0.77,-1.07
213720210,-0.30,0.77,-1.07
213722208,-0.30,0.77,-1.04
213724215,-0.30,0.77,-1.04
213726252,-0.30,0.77,-1.04
213728247,-0.30,0.77,-1.04
213730248,-0.30,0.77,-1.04
213732252,-0.30,0.77,-1.04
213734251,-0.28,0.80,-1.11
213736265,-0.28,0.80,-1.11
213738271,-0.28,0.80,-1.11
213740260,-0.28,0.80,-1.11
213742209,-0.28,0.80,-1.11
213744243,-0.25,0.79,-1.23
213746207,-0.25,0.79,-1.23
213748206,-0.25,0.79,-1.23
213750217,-0.25,0.79,-1.23
213752254,-0.25,0.79,-1.23
213754212,-0.23,0.71,-1.27
213756208,-0.23,0.71,-1.27
213758207,-0.23,0.71,-1.27
213760211,-0.23,0.71,-1.27
213762223,-0.23,0.71,-1.27
213764218,-0.22,0.58,-1.24
213766291,-0.22,0.58,-1.24
213768251,-0.22,0.58,-1.24
213770251,-0.22,0.58,-1.24
213772248,-0.22,0.58,-1.24
213774251,-0.20,0.52,-1.20
213776257,-0.20,0.52,-1.20
213778250,-0.20,0.52,-1.20
213780248,-0.20,0.52,-1.20
213782361,-0.20,0.52,-1.20
213784238,-0.18,0.59,-1.23
213786211,-0.18,0.59,-1.23
213788208,-0.18,0.59,-1.23
213790248,-0.18,0.59,-1.23
213792231,-0.18,0.59,-1.23
213794253,-0.15,0.68,-1.26
213796208,-0.15,0.68,-1.26
213798210,-0.15,0.68,-1.26
213800206,-0.15,0.68,-1.26
213802208,-0.15,0.68,-1.26
213804207,-0.14,0.76,-1.25
213806266,-0.14,0.76,-1.25
213808251,-0.14,0.76,-1.25
213810253,-0.14,0.76,-1.25
213812253,-0.14,0.76,-1.25
213814249,-0.14,0.76,-1.25
213816271,-0.14,0.80,-1.25
213818249,-0.14,0.80,-1.25
213820211,-0.14,0.80,-1.25
213822212,-0.14,0.80,-1.25
213824231,-0.14,0.80,-1.25
213826246,-0.18,0.83,-1.36
213828215,-0.18,0.83,-1.36
213830216,-0.18,0.83,-1.36
213832208,-0.18,0.83,-1.36
213834207,-0.18,0.83,-1.36
213836212,-0.20,0.87,-1.49
213838212,-0.20,0.87,-1.49
213840228,-0.20,0.87,-1.49
213842209,-0.20,0.87,-1.49
213844246,-0.20,0.87,-1.49
213846254,-0.23,0.79,-1.58
213848251,-0.23,0.79,-1.58
213850249,-0.23,0.79,-1.58
213852254,-0.23,0.79,-1.58
213854252,-0.23,0.79,-1.58
213856242,-0.24,0.74,-1.66
213858213,-0.24,0.74,-1.66
213860210,-0.24,0.74,-1.66
213862225,-0.24,0.74,-1.66
213864222,-0.24,0.74,-1.66
213866230,-0.23,0.68,-1.62
213868211,-0.23,0.68,-1.62
213870215,-0.23,0.68,-1.62
213872212,-0.23,0.68,-1.62
213874212,-0.23,0.68,-1.62
213876208,-0.21,0.55,-1.57
213878240,-0.21,0.55,-1.57
213880298,-0.21,0.55,-1.57
213882239,-0.21,0.55,-1.57
213884212,-0.21,0.55,-1.57
213886260,-0.19,0.53,-1.41
213888250,-0.19,0.53,-1.41
213890276,-0.19,0.53,-1.41
213892254,-0.19,0.53,-1.41
213894255,-0.19,0.53,-1.41
213896249,-0.18,0.46,-1.25
213898238,-0.18,0.46,-1.25
213900207,-0.18,0.46,-1.25
213902212,-0.18,0.46,-1.25
213904212,-0.18,0.46,-1.25
213906213,-0.18,0.46,-1.25
213908275,-0.17,0.42,-1.10
213910266,-0.17,0.42,-1.10
213912212,-0.17,0.42,-1.10
213914212,-0.17,0.42,-1.10
213916240,-0.17,0.42,-1.10
213918211,-0.13,0.39,-0.97
213920212,-0.13,0.39,-0.97
213922219,-0.13,0.39,-0.97
213924256,-0.13,0.39,-0.97
213926267,-0.13,0.39,-0.97
213928273,-0.10,0.37,-0.79
213930254,-0.10,0.37,-0.79
213932254,-0.10,0.37,-0.79
213934319,-0.10,0.37,-0.79
213936264,-0.10,0.37,-0.79
213938251,-0.07,0.32,-0.59
213940275,-0.07,0.32,-0.59
213942259,-0.07,0.32,-0.59
213944274,-0.07,0.32,-0.59
213946253,-0.07,0.32,-0.59
213948214,-0.02,0.24,-0.45
213950214,-0.02,0.24,-0.45
213952212,-0.02,0.24,-0.45
213954208,-0.02,0.24,-0.45
213956210,-0.02,0.24,-0.45
213958235,0.01,0.16,-0.35
213960259,0.01,0.16,-0.35
213962222,0.01,0.16,-0.35
213964223,0.01,0.16,-0.35
213966294,0.01,0.16,-0.35
213968251,0.04,0.17,-0.43
213970247,0.04,0.17,-0.43
213972249,0.04,0.17,-0.43
213974250,0.04,0.17,-0.43
213976255,0.04,0.17,-0.43
213978296,0.05,0.11,-0.55
213980278,0.05,0.11,-0.55
213982252,0.05,0.11,-0.55
213984211,0.05,0.11,-0.55
213986205,0.05,0.11,-0.55
213988205,0.05,0.11,-0.55
213990228,0.06,0.09,-0.61
213992216,0.06,0.09,-0.61
213994246,0.06,0.09,-0.61
213996202,0.06,0.09,-0.61
213998205,0.06,0.09,-0.61
214000204,0.07,0.03,-0.55
214002203,0.07,0.03,-0.55
214004204,0.07,0.03,-0.55
214006255,0.07,0.03,-0.55
214008247,0.07,0.03,-0.55
214010244,0.08,-0.11,-0.50
214012248,0.08,-0.11,-0.50
214014244,0.08,-0.11,-0.50
214016261,0.08,-0.11,-0.50
214018211,0.08,-0.11,-0.50
214020207,0.09,-0.23,-0.48
214022206,0.09,-0.23,-0.48
214024204,0.09,-0.23,-0.48
214026205,0.09,-0.23,-0.48
214028206,0.09,-0.23,-0.48
214030202,0.12,-0.27,-0.51
214032249,0.12,-0.27,-0.51
214034278,0.12,-0.27,-0.51
214036226,0.12,-0.27,-0.51
214038212,0.12,-0.27,-0.51
214040248,0.18,-0.29,-0.57
214042210,0.18,-0.29,-0.57
214044206,0.18,-0.29,-0.57
214046292,0.18,-0.29,-0.57
214048260,0.18,-0.29,-0.57
214050260,0.22,-0.33,-0.53
214052248,0.22,-0.33,-0.53
214054278,0.22,-0.33,-0.53
214056270,0.22,-0.33,-0.53
214058250,0.22,-0.33,-0.53
214060246,0.23,-0.37,-0.39
214062255,0.23,-0.37,-0.39
214064346,0.23,-0.37,-0.39
214066269,0.23,-0.37,-0.39
214068211,0.23,-0.37,-0.39
214070205,0.23,-0.37,-0.39
214072252,0.22,-0.31,-0.43
214074257,0.22,-0.31,-0.43
214076205,0.22,-0.31,-0.43
214078204,0.22,-0.31,-0.43
214080253,0.22,-0.31,-0.43
214082206,0.21,-0.18,-0.76
214084206,0.21,-0.18,-0.76
214086271,0.21,-0.18,-0.76
214088251,0.21,-0.18,-0.76
214090273,0.21,-0.18,-0.76
214092247,0.20,-0.13,-1.14
214094245,0.20,-0.13,-1.14
214096246,0.20,-0.13,-1.14
214098328,0.20,-0.13,-1.14
214100270,0.20,-0.13,-1.14
214102231,0.19,-0.22,-1.19
214104203,0.19,-0.22,-1.19
214106213,0.19,-0.22,-1.19
214108310,0.19,-0.22,-1.19
214110227,0.19,-0.22,-1.19
214112207,0.18,-0.29,-0.83
214114237,0.18,-0.29,-0.83
214116271,0.18,-0.29,-0.83
214118203,0.18,-0.29,-0.83
214120195,0.18,-0.29,-0.83
214122204,0.17,-0.34,-0.51
214124203,0.17,-0.34,-0.51
214126267,0.17,-0.34,-0.51
214128248,0.17,-0.34,-0.51
214130245,0.17,-0.34,-0.51
214132241,0.16,-0.30,-0.59
214134247,0.16,-0.30,-0.59
214136247,0.16,-0.30,-0.59
214138244,0.16,-0.30,-0.59
214140223,0.16,-0.30,-0.59
214142210,0.14,-0.17,-0.94
214144206,0.14,-0.17,-0.94
214146242,0.14,-0.17,-0.94
214148202,0.14,-0.17,-0.94
214150195,0.14,-0.17,-0.94
214152202,0.09,-0.01,-1.21
214154195,0.09,-0.01,-1.21
214156207,0.09,-0.01,-1.21
214158194,0.09,-0.01,-1.21
214160206,0.09,-0.01,-1.21
214162219,0.09,-0.01,-1.21
214164217,0.04,0.07,-1.20
214166266,0.04,0.07,-1.20
214168248,0.04,0.07,-1.20
214170243,0.04,0.07,-1.20
214172251,0.04,0.07,-1.20
214174244,-0.03,0.12,-1.11
214176241,-0.03,0.12,-1.11
214178207,-0.03,0.12,-1.11
214180267,-0.03,0.12,-1.11
214182254,-0.03,0.12,-1.11
214184205,-0.12,0.29,-1.28
214186205,-0.12,0.29,-1.28
214188202,-0.12,0.29,-1.28
214190226,-0.12,0.29,-1.28
214192204,-0.12,0.29,-1.28
214194202,-0.22,0.56,-1.61
214196202,-0.22,0.56,-1.61
214198202,-0.22,0.56,-1.61
214200253,-0.22,0.56,-1.61
214202237,-0.22,0.56,-1.61
214204195,-0.26,0.72,-1.77
214206268,-0.26,0.72,-1.77
214208247,-0.26,0.72,-1.77
214210252,-0.26,0.72,-1.77
214212273,-0.26,0.72,-1.77
214214298,-0.28,0.81,-1.61
214216301,-0.28,0.81,-1.61
214218253,-0.28,0.81,-1.61
214220246,-0.28,0.81,-1.61
214222283,-0.28,0.81,-1.61
214224270,-0.29,0.68,-1.46
214226226,-0.29,0.68,-1.46
214228204,-0.29,0.68,-1.46
214230211,-0.29,0.68,-1.46
214232205,-0.29,0.68,-1.46
214234265,-0.30,0.57,-1.34
214236278,-0.30,0.57,-1.34
214238236,-0.30,0.57,-1.34
214240235,-0.30,0.57,-1.34
214242202,-0.30,0.57,-1.34
214244203,-0.30,0.57,-1.34
214246280,-0.35,0.55,-1.22
214248250,-0.35,0.55,-1.22
214250247,-0.35,0.55,-1.22
214252248,-0.35,0.55,-1.22
214254255,-0.35,0.55,-1.22
214256273,-0.36,0.51,-1.12
214258265,-0.36,0.51,-1.12
214260247,-0.36,0.51,-1.12
214262222,-0.36,0.51,-1.12
214264225,-0.36,0.51,-1.12
214266311,-0.37,0.50,-1.05
214268231,-0.37,0.50,-1.05
214270202,-0.37,0.50,-1.05
214272216,-0.37,0.50,-1.05
214274250,-0.37,0.50,-1.05
214276207,-0.37,0.53,-0.93
214278202,-0.37,0.53,-0.93
214280203,-0.37,0.53,-0.93
214282202,-0.37,0.53,-0.93
214284203,-0.37,0.53,-0.93
214286270,-0.33,0.56,-0.77
214288252,-0.33,0.56,-0.77
214290358,-0.33,0.56,-0.77
214292253,-0.33,0.56,-0.77
214294247,-0.33,0.56,-0.77
214296245,-0.30,0.63,-0.61
214298247,-0.30,0.63,-0.61
214300205,-0.30,0.63,-0.61
214302209,-0.30,0.63,-0.61
214304214,-0.30,0.63,-0.61
214306259,-0.27,0.62,-0.46
214308274,-0.27,0.62,-0.46
214310218,-0.27,0.62,-0.46
214312205,-0.27,0.62,-0.46
214314194,-0.27,0.62,-0.46
214316236,-0.27,0.56,-0.38
214318210,-0.27,0.56,-0.38
214320254,-0.27,0.56,-0.38
214322207,-0.27,0.56,-0.38
214324194,-0.27,0.56,-0.38
214326268,-0.27,0.54,-0.41
214328250,-0.27,0.54,-0.41
214330248,-0.27,0.54,-0.41
214332249,-0.27,0.54,-0.41
214334248,-0.27,0.54,-0.41
214336245,-0.27,0.54,-0.41
214338312,-0.30,0.41,-0.50
214340339,-0.30,0.41,-0.50
214342212,-0.30,0.41,-0.50
214344284,-0.30,0.41,-0.50
214346255,-0.30,0.41,-0.50
214348205,-0.32,0.30,-0.58
214350203,-0.32,0.30,-0.58
214352193,-0.32,0.30,-0.58
214354205,-0.32,0.30,-0.58
214356203,-0.32,0.30,-0.58
214358195,-0.34,0.29,-0.69
214360203,-0.34,0.29,-0.69
214362226,-0.34,0.29,-0.69
214364254,-0.34,0.29,-0.69
214366295,-0.34,0.29,-0.69
214368250,-0.32,0.35,-0.89
214370247,-0.32,0.35,-0.89
214372243,-0.32,0.35,-0.89
214374249,-0.32,0.35,-0.89
214376277,-0.32,0.35,-0.89
214378256,-0.27,0.50,-1.15
214380249,-0.27,0.50,-1.15
214382239,-0.27,0.50,-1.15
214384232,-0.27,0.50,-1.15
214386280,-0.27,0.50,-1.15
214388219,-0.21,0.66,-1.20
214390227,-0.21,0.66,-1.20
214392220,-0.21,0.66,-1.20
214394254,-0.21,0.66,-1.20
214396205,-0.21,0.66,-1.20
214398195,-0.13,0.79,-0.99
214400202,-0.13,0.79,-0.99
214402205,-0.13,0.79,-0.99
214404202,-0.13,0.79,-0.99
214406265,-0.13,0.79,-0.99
214408248,-0.07,0.79,-0.75
214410246,-0.07,0.79,-0.75
214412259,-0.07,0.79,-0.75
214414311,-0.07,0.79,-0.75
214416294,-0.07,0.79,-0.75
214418246,-0.07,0.79,-0.75
214420246,-0.00,0.71,-0.62
214422281,-0.00,0.71,-0.62
214424247,-0.00,0.71,-0.62
214426211,-0.00,0.71,-0.62
214428206,-0.00,0.71,-0.62
214430204,0.04,0.66,-0.56
214432204,0.04,0.66,-0.56
214434209,0.04,0.66,-0.56
214436205,0.04,0.66,-0.56
214438205,0.04,0.66,-0.56
214440232,0.07,0.66,-0.69
214442205,0.07,0.66,-0.69
214444203,0.07,0.66,-0.69
214446262,0.07,0.66,-0.69
214448250,0.07,0.66,-0.69
214450247,0.06,0.71,-0.94
214452247,0.06,0.71,-0.94
214454284,0.06,0.71,-0.94
214456281,0.06,0.71,-0.94
214458252,0.06,0.71,-0.94
214460246,0.05,0.77,-1.02
214462249,0.05,0.77,-1.02
214464220,0.05,0.77,-1.02
214466234,0.05,0.77,-1.02
214468208,0.05,0.77,-1.02
214470206,0.00,0.71,-0.97
214472203,0.00,0.71,-0.97
214474207,0.00,0.71,-0.97
214476206,0.00,0.71,-0.97
214478206,0.00,0.71,-0.97
214480269,-0.03,0.56,-0.99
214482252,-0.03,0.56,-0.99
214484205,-0.03,0.56,-0.99
214486257,-0.03,0.56,-0.99
214488242,-0.03,0.56,-0.99
214490288,-0.05,0.46,-1.06
214492275,-0.05,0.46,-1.06
214494252,-0.05,0.46,-1.06
214496248,-0.05,0.46,-1.06
214498249,-0.05,0.46,-1.06
214500296,-0.11,0.33,-1.12
214502246,-0.11,0.33,-1.12
214504204,-0.11,0.33,-1.12
214506202,-0.11,0.33,-1.12
214508206,-0.11,0.33,-1.12
214510272,-0.11,0.33,-1.12
214512208,-0.14,0.22,-1.26
214514206,-0.14,0.22,-1.26
214516239,-0.14,0.22,-1.26
214518205,-0.14,0.22,-1.26
214520207,-0.14,0.22,-1.26
214522206,-0.14,0.06,-1.41
214524208,-0.14,0.06,-1.41
214526270,-0.14,0.06,-1.41
214528249,-0.14,0.06,-1.41
214530252,-0.14,0.06,-1.41
214532275,-0.12,-0.03,-1.45
214534271,-0.12,-0.03,-1.45
214536262,-0.12,-0.03,-1.45
214538257,-0.12,-0.03,-1.45
214540280,-0.12,-0.03,-1.45
214542245,-0.12,-0.04,-1.26
214544260,-0.12,-0.04,-1.26
214546243,-0.12,-0.04,-1.26
214548194,-0.12,-0.04,-1.26
214550202,-0.12,-0.04,-1.26
214552237,-0.07,0.01,-1.08
214554286,-0.07,0.01,-1.08
214556235,-0.07,0.01,-1.08
214558203,-0.07,0.01,-1.08
214560206,-0.07,0.01,-1.08
214562248,-0.00,0.11,-0.91
214564254,-0.00,0.11,-0.91
214566301,-0.00,0.11,-0.91
214568259,-0.00,0.11,-0.91
214570253,-0.00,0.11,-0.91
214572276,0.07,0.21,-0.70
214574270,0.07,0.21,-0.70
214576255,0.07,0.21,-0.70
214578250,0.07,0.21,-0.70
214580249,0.07,0.21,-0.70
214582248,0.13,0.21,-0.47
214584211,0.13,0.21,-0.47
214586206,0.13,0.21,-0.47
214588204,0.13,0.21,-0.47
214590228,0.13,0.21,-0.47
214592206,0.13,0.21,-0.47
214594204,0.14,0.17,-0.32
214596255,0.14,0.17,-0.32
214598269,0.14,0.17,-0.32
214600206,0.14,0.17,-0.32
214602211,0.14,0.17,-0.32
214604204,0.09,0.05,-0.33
214606278,0.09,0.05,-0.33
214608270,0.09,0.05,-0.33
214610263,0.09,0.05,-0.33
214612245,0.09,0.05,-0.33
214614250,0.04,-0.13,-0.44
214616297,0.04,-0.13,-0.44
214618263,0.04,-0.13,-0.44
214620245,0.04,-0.13,-0.44
214622243,0.04,-0.13,-0.44
214624218,-0.03,-0.21,-0.50
214626285,-0.03,-0.21,-0.50
214628231,-0.03,-0.21,-0.50
214630205,-0.03,-0.21,-0.50
214632208,-0.03,-0.21,-0.50
214634203,-0.10,-0.30,-0.59
214636206,-0.10,-0.30,-0.59
214638208,-0.10,-0.30,-0.59
214640226,-0.10,-0.30,-0.59
214642204,-0.10,-0.30,-0.59
214644240,-0.14,-0.51,-0.77
214646281,-0.14,-0.51,-0.77
214648247,-0.14,-0.51,-0.77
214650246,-0.14,-0.51,-0.77
214652248,-0.14,-0.51,-0.77
214654246,-0.14,-0.49,-0.95
214656250,-0.14,-0.49,-0.95
214658307,-0.14,-0.49,-0.95
214660261,-0.14,-0.49,-0.95
214662226,-0.14,-0.49,-0.95
214664215,-0.09,-0.32,-1.12
214666235,-0.09,-0.32,-1.12
214668251,-0.09,-0.32,-1.12
214670256,-0.09,-0.32,-1.12
214672211,-0.09,-0.32,-1.12
214674207,-0.09,-0.32,-1.12
214676264,-0.02,-0.20,-1.24
214678228,-0.02,-0.20,-1.24
214680203,-0.02,-0.20,-1.24
214682203,-0.02,-0.20,-1.24
214684202,-0.02,-0.20,-1.24
214686267,0.06,-0.06,-1.15
214688249,0.06,-0.06,-1.15
214690353,0.06,-0.06,-1.15
214692255,0.06,-0.06,-1.15
214694292,0.06,-0.06,-1.15
214696267,0.12,-0.06,-0.96
214698247,0.12,-0.06,-0.96
214700245,0.12,-0.06,-0.96
214702243,0.12,-0.06,-0.96
214704212,0.12,-0.06,-0.96
214706205,0.15,-0.07,-0.93
214708206,0.15,-0.07,-0.93
214710203,0.15,-0.07,-0.93
214712235,0.15,-0.07,-0.93
214714275,0.15,-0.07,-0.93
214716249,0.16,-0.20,-1.11
214718207,0.16,-0.20,-1.11
214720202,0.16,-0.20,-1.11
214722215,0.16,-0.20,-1.11
214724258,0.16,-0.20,-1.11
214726265,0.17,-0.25,-1.11
214728250,0.17,-0.25,-1.11
214730245,0.17,-0.25,-1.11
214732250,0.17,-0.25,-1.11
214734269,0.17,-0.25,-1.11
214736255,0.18,-0.26,-0.84
214738249,0.18,-0.26,-0.84
214740352,0.18,-0.26,-0.84
214742207,0.18,-0.26,-0.84
214744206,0.18,-0.26,-0.84
214746285,0.20,-0.33,-0.56
214748206,0.20,-0.33,-0.56
214750205,0.20,-0.33,-0.56
214752206,0.20,-0.33,-0.56
214754204,0.20,-0.33,-0.56
214756256,0.20,-0.28,-0.45
214758257,0.20,-0.28,-0.45
214760212,0.20,-0.28,-0.45
214762236,0.20,-0.28,-0.45
214764219,0.20,-0.28,-0.45
214766279,0.20,-0.28,-0.45
214768248,0.21,-0.20,-0.56
214770244,0.21,-0.20,-0.56
214772250,0.21,-0.20,-0.56
214774274,0.21,-0.20,-0.56
214776260,0.21,-0.20,-0.56
214778247,0.23,-0.17,-0.75
214780246,0.23,-0.17,-0.75
214782219,0.23,-0.17,-0.75
214784289,0.23,-0.17,-0.75
214786232,0.23,-0.17,-0.75
214788206,0.18,-0.22,-0.81
214790245,0.18,-0.22,-0.81
214792262,0.18,-0.22,-0.81
214794231,0.18,-0.22,-0.81
214796207,0.18,-0.22,-0.81
214798202,0.11,-0.28,-0.92
214800201,0.11,-0.28,-0.92
214802204,0.11,-0.28,-0.92
214804195,0.11,-0.28,-0.92
214806267,0.11,-0.28,-0.92
214808246,0.03,-0.28,-1.25
214810248,0.03,-0.28,-1.25
214812254,0.03,-0.28,-1.25
214814247,0.03,-0.28,-1.25
214816266,0.03,-0.28,-1.25
214818243,-0.02,-0.06,-1.72
214820208,-0.02,-0.06,-1.72
214822204,-0.02,-0.06,-1.72
214824205,-0.02,-0.06,-1.72
214826205,-0.02,-0.06,-1.72
214828236,-0.04,0.05,-2.00
214830289,-0.04,0.05,-2.00
214832228,-0.04,0.05,-2.00
214834202,-0.04,0.05,-2.00
214836202,-0.04,0.05,-2.00
214838203,-0.06,-0.05,-2.00
214840229,-0.06,-0.05,-2.00
214842211,-0.06,-0.05,-2.00
214844251,-0.06,-0.05,-2.00
214846292,-0.06,-0.05,-2.00
214848254,-0.06,-0.05,-2.00
214850265,-0.10,-0.21,-1.90
214852245,-0.10,-0.21,-1.90
214854244,-0.10,-0.21,-1.90
214856247,-0.10,-0.21,-1.90
214858243,-0.10,-0.21,-1.90
214860269,-0.15,-0.29,-1.92
214862286,-0.15,-0.29,-1.92
214864235,-0.15,-0.29,-1.92
214866241,-0.15,-0.29,-1.92
214868203,-0.15,-0.29,-1.92
214870202,-0.16,-0.26,-1.93
214872206,-0.16,-0.26,-1.93
214874206,-0.16,-0.26,-1.93
214876251,-0.16,-0.26,-1.93
214878203,-0.16,-0.26,-1.93
214880201,-0.16,-0.08,-1.71
214882195,-0.16,-0.08,-1.71
214884202,-0.16,-0.08,-1.71
214886273,-0.16,-0.08,-1.71
214888252,-0.16,-0.08,-1.71
214890273,-0.13,0.03,-1.45
214892245,-0.13,0.03,-1.45
214894262,-0.13,0.03,-1.45
214896289,-0.13,0.03,-1.45
214898265,-0.13,0.03,-1.45
214900244,-0.08,0.14,-1.16
214902241,-0.08,0.14,-1.16
214904203,-0.08,0.14,-1.16
214906205,-0.08,0.14,-1.16
214908207,-0.08,0.14,-1.16
214910217,-0.04,0.23,-0.88
214912284,-0.04,0.23,-0.88
214914220,-0.04,0.23,-0.88
214916234,-0.04,0.23,-0.88
214918220,-0.04,0.23,-0.88
214920254,-0.02,0.35,-0.68
214922205,-0.02,0.35,-0.68
214924205,-0.02,0.35,-0.68
214926272,-0.02,0.35,-0.68
214928248,-0.02,0.35,-0.68
214930246,-0.02,0.35,-0.68
214932273,-0.03,0.39,-0.68
214934258,-0.03,0.39,-0.68
214936252,-0.03,0.39,-0.68
214938249,-0.03,0.39,-0.68
214940271,-0.03,0.39,-0.68
214942278,-0.07,0.41,-0.80
214944246,-0.07,0.41,-0.80
214946244,-0.07,0.41,-0.80
214948204,-0.07,0.41,-0.80
214950202,-0.07,0.41,-0.80
214952254,-0.11,0.36,-0.82
214954225,-0.11,0.36,-0.82
214956204,-0.11,0.36,-0.82
214958222,-0.11,0.36,-0.82
214960210,-0.11,0.36,-0.82
214962222,-0.16,0.24,-0.64
214964225,-0.16,0.24,-0.64
214966311,-0.16,0.24,-0.64
214968276,-0.16,0.24,-0.64
214970252,-0.16,0.24,-0.64
214972245,-0.20,0.20,-0.41
214974266,-0.20,0.20,-0.41
214976267,-0.20,0.20,-0.41
214978254,-0.20,0.20,-0.41
214980244,-0.20,0.20,-0.41
214982243,-0.22,0.11,-0.34
214984268,-0.22,0.11,-0.34
214986242,-0.22,0.11,-0.34
214988203,-0.22,0.11,-0.34
214990229,-0.22,0.11,-0.34
214992206,-0.22,0.10,-0.40
214994216,-0.22,0.10,-0.40
214996256,-0.22,0.10,-0.40
214998202,-0.22,0.10,-0.40
215000194,-0.22,0.10,-0.40
215002194,-0.21,0.10,-0.44
215004195,-0.21,0.10,-0.44
215006269,-0.21,0.10,-0.44
215008246,-0.21,0.10,-0.44
215010244,-0.21,0.10,-0.44
215012249,-0.19,0.11,-0.39
215014247,-0.19,0.11,-0.39
215016290,-0.19,0.11,-0.39
215018307,-0.19,0.11,-0.39
215020266,-0.19,0.11,-0.39
215022206,-0.19,0.11,-0.39
215024210,-0.19,0.17,-0.36
215026207,-0.19,0.17,-0.36
215028203,-0.19,0.17,-0.36
215030206,-0.19,0.17,-0.36
215032203,-0.19,0.17,-0.36
215034203,-0.20,0.25,-0.47
215036204,-0.20,0.25,-0.47
215038205,-0.20,0.25,-0.47
215040245,-0.20,0.25,-0.47
215042204,-0.20,0.25,-0.47
215044204,-0.18,0.40,-0.60
215046270,-0.18,0.40,-0.60
215048246,-0.18,0.40,-0.60
215050245,-0.18,0.40,-0.60
215052254,-0.18,0.40,-0.60
215054272,-0.14,0.47,-0.68
215056286,-0.14,0.47,-0.68
215058277,-0.14,0.47,-0.68
215060247,-0.14,0.47,-0.68
215062249,-0.14,0.47,-0.68
215064212,-0.10,0.45,-0.59
215066234,-0.10,0.45,-0.59
215068210,-0.10,0.45,-0.59
215070210,-0.10,0.45,-0.59
215072245,-0.10,0.45,-0.59
215074272,-0.07,0.42,-0.45
215076228,-0.07,0.42,-0.45
215078205,-0.07,0.42,-0.45
215080205,-0.07,0.42,-0.45
215082203,-0.07,0.42,-0.45
215084254,-0.04,0.38,-0.42
215086265,-0.04,0.38,-0.42
215088248,-0.04,0.38,-0.42
215090266,-0.04,0.38,-0.42
215092266,-0.04,0.38,-0.42
215094272,0.00,0.32,-0.57
215096257,0.00,0.32,-0.57
215098249,0.00,0.32,-0.57
215100246,0.00,0.32,-0.57
215102275,0.00,0.32,-0.57
215104236,0.00,0.32,-0.57
215106201,0.07,0.33,-0.71
215108201,0.07,0.33,-0.71
215110195,0.07,0.33,-0.71
215112195,0.07,0.33,-0.71
215114194,0.07,0.33,-0.71
215116229,0.12,0.42,-0.66
215118203,0.12,0.42,-0.66
215120212,0.12,0.42,-0.66
215122256,0.12,0.42,-0.66
215124202,0.12,0.42,-0.66
215126265,0.15,0.44,-0.61
215128245,0.15,0.44,-0.61
215130248,0.15,0.44,-0.61
215132252,0.15,0.44,-0.61
215134280,0.15,0.44,-0.61
215136253,0.18,0.42,-0.70
215138247,0.18,0.42,-0.70
215140275,0.18,0.42,-0.70
215142267,0.18,0.42,-0.70
215144253,0.18,0.42,-0.70
215146245,0.18,0.33,-0.86
215148202,0.18,0.33,-0.86
215150204,0.18,0.33,-0.86
215152204,0.18,0.33,-0.86
215154203,0.18,0.33,-0.86
215156271,0.17,0.22,-1.02
215158239,0.17,0.22,-1.02
215160206,0.17,0.22,-1.02
215162220,0.17,0.22,-1.02
215164212,0.17,0.22,-1.02
215166294,0.11,0.04,-1.22
215168251,0.11,0.04,-1.22
215170248,0.11,0.04,-1.22
215172268,0.11,0.04,-1.22
215174286,0.11,0.04,-1.22
215176262,0.05,-0.12,-1.48
215178243,0.05,-0.12,-1.48
215180245,0.05,-0.12,-1.48
215182212,0.05,-0.12,-1.48
215184205,0.05,-0.12,-1.48
215186203,0.01,-0.39,-1.86
215188206,0.01,-0.39,-1.86
215190228,0.01,-0.39,-1.86
215192207,0.01,-0.39,-1.86
215194201,0.01,-0.39,-1.86
215196205,0.01,-0.39,-1.86
215198202,-0.02,-0.59,-2.00
215200202,-0.02,-0.59,-2.00
215202202,-0.02,-0.59,-2.00
215204206,-0.02,-0.59,-2.00
215206248,-0.02,-0.59,-2.00
215208253,-0.03,-0.50,-1.98
215210290,-0.03,-0.50,-1.98
215212262,-0.03,-0.50,-1.98
215214248,-0.03,-0.50,-1.98
215216269,-0.03,-0.50,-1.98
215218247,0.05,-0.41,-1.77
215220255,0.05,-0.41,-1.77
215222210,0.05,-0.41,-1.77
215224205,0.05,-0.41,-1.77
215226210,0.05,-0.41,-1.77
215228215,0.16,-0.30,-1.54
215230285,0.16,-0.30,-1.54
215232222,0.16,-0.30,-1.54
215234203,0.16,-0.30,-1.54
215236203,0.16,-0.30,-1.54
215238228,0.28,-0.20,-1.22
215240278,0.28,-0.20,-1.22
215242207,0.28,-0.20,-1.22
215244194,0.28,-0.20,-1.22
215246294,0.28,-0.20,-1.22
215248259,0.39,-0.09,-0.88
215250247,0.39,-0.09,-0.88
215252244,0.39,-0.09,-0.88
215254248,0.39,-0.09,-0.88
215256247,0.39,-0.09,-0.88
215258292,0.45,0.05,-0.61
215260276,0.45,0.05,-0.61
215262261,0.45,0.05,-0.61
215264217,0.45,0.05,-0.61
215266234,0.45,0.05,-0.61
215268207,0.46,0.08,-0.49
215270272,0.46,0.08,-0.49
215272251,0.46,0.08,-0.49
215274206,0.46,0.08,-0.49
215276202,0.46,0.08,-0.49
215278202,0.46,0.08,-0.49
215280201,0.41,0.02,-0.45
215282205,0.41,0.02,-0.45
215284205,0.41,0.02,-0.45
215286262,0.41,0.02,-0.45
215288249,0.41,0.02,-0.45
215290277,0.32,-0.07,-0.41
215292244,0.32,-0.07,-0.41
215294243,0.32,-0.07,-0.41
215296244,0.32,-0.07,-0.41
215298205,0.32,-0.07,-0.41
215300206,0.22,-0.18,-0.47
215302207,0.22,-0.18,-0.47
215304207,0.22,-0.18,-0.47
215306204,0.22,-0.18,-0.47
215308217,0.22,-0.18,-0.47
215310317,0.11,-0.23,-0.63
215312229,0.11,-0.23,-0.63
215314195,0.11,-0.23,-0.63
215316231,0.11,-0.23,-0.63
215318204,0.11,-0.23,-0.63
215320201,0.03,-0.32,-0.85
215322254,0.03,-0.32,-0.85
215324207,0.03,-0.32,-0.85
215326269,0.03,-0.32,-0.85
215328246,0.03,-0.32,-0.85
215330245,-0.02,-0.46,-1.00
215332250,-0.02,-0.46,-1.00
215334247,-0.02,-0.46,-1.00
215336248,-0.02,-0.46,-1.00
215338245,-0.02,-0.46,-1.00
215340224,-0.05,-0.52,-0.97
215342205,-0.05,-0.52,-0.97
215344204,-0.05,-0.52,-0.97
215346279,-0.05,-0.52,-0.97
215348251,-0.05,-0.52,-0.97
215350205,-0.06,-0.48,-0.85
215352211,-0.06,-0.48,-0.85
215354204,-0.06,-0.48,-0.85
215356205,-0.06,-0.48,-0.85
215358204,-0.06,-0.48,-0.85
215360205,-0.06,-0.48,-0.85
215362222,-0.04,-0.41,-0.77
215364215,-0.04,-0.41,-0.77
215366289,-0.04,-0.41,-0.77
215368249,-0.04,-0.41,-0.77
215370248,-0.04,-0.41,-0.77
215372267,0.02,-0.21,-0.71
215374250,0.02,-0.21,-0.71
215376255,0.02,-0.21,-0.71
215378269,0.02,-0.21,-0.71
215380218,0.02,-0.21,-0.71
215382208,0.06,-0.04,-0.62
215384215,0.06,-0.04,-0.62
215386213,0.06,-0.04,-0.62
215388212,0.06,-0.04,-0.62
215390231,0.06,-0.04,-0.62
215392222,0.14,0.02,-0.57
215394327,0.14,0.02,-0.57
215396239,0.14,0.02,-0.57
215398211,0.14,0.02,-0.57
215400211,0.14,0.02,-0.57
215402206,0.19,0.01,-0.48
215404213,0.19,0.01,-0.48
215406285,0.19,0.01,-0.48
215408273,0.19,0.01,-0.48
215410253,0.19,0.01,-0.48
215412249,0.21,-0.04,-0.34
215414258,0.21,-0.04,-0.34
215416298,0.21,-0.04,-0.34
215418256,0.21,-0.04,-0.34
215420248,0.21,-0.04,-0.34
215422249,0.21,-0.14,-0.26
215424263,0.21,-0.14,-0.26
215426253,0.21,-0.14,-0.26
215428210,0.21,-0.14,-0.26
215430207,0.21,-0.14,-0.26
215432205,0.20,-0.23,-0.30
215434211,0.20,-0.23,-0.30
215436207,0.20,-0.23,-0.30
215438212,0.20,-0.23,-0.30
215440235,0.20,-0.23,-0.30
215442207,0.20,-0.29,-0.41
215444207,0.20,-0.29,-0.41
215446281,0.20,-0.29,-0.41
215448248,0.20,-0.29,-0.41
215450248,0.20,-0.29,-0.41
215452251,0.20,-0.29,-0.41
215454248,0.20,-0.33,-0.43
215456251,0.20,-0.33,-0.43
215458249,0.20,-0.33,-0.43
215460243,0.20,-0.33,-0.43
215462290,0.20,-0.33,-0.43
215464253,0.22,-0.28,-0.35
215466237,0.22,-0.28,-0.35
215468206,0.22,-0.28,-0.35
215470206,0.22,-0.28,-0.35
215472207,0.22,-0.28,-0.35
215474207,0.24,-0.28,-0.36
215476208,0.24,-0.28,-0.36
215478206,0.24,-0.28,-0.36
215480205,0.24,-0.28,-0.36
215482205,0.24,-0.28,-0.36
215484215,0.25,-0.30,-0.58
215486261,0.25,-0.30,-0.58
215488251,0.25,-0.30,-0.58
215490266,0.25,-0.30,-0.58
215492255,0.25,-0.30,-0.58
215494309,0.23,-0.30,-0.91
215496274,0.23,-0.30,-0.91
215498248,0.23,-0.30,-0.91
215500250,0.23,-0.30,-0.91
215502219,0.23,-0.30,-0.91
215504276,0.21,-0.35,-1.24
215506224,0.21,-0.35,-1.24
215508211,0.21,-0.35,-1.24
215510208,0.21,-0.35,-1.24
215512252,0.21,-0.35,-1.24
215514208,0.18,-0.34,-1.50
215516321,0.18,-0.34,-1.50
215518212,0.18,-0.34,-1.50
215520206,0.18,-0.34,-1.50
215522211,0.18,-0.34,-1.50
215524206,0.16,-0.21,-1.68
215526269,0.16,-0.21,-1.68
215528249,0.16,-0.21,-1.68
215530249,0.16,-0.21,-1.68
215532253,0.16,-0.21,-1.68
215534286,0.14,-0.04,-1.93
215536271,0.14,-0.04,-1.93
215538254,0.14,-0.04,-1.93
215540355,0.14,-0.04,-1.93
215542251,0.14,-0.04,-1.93
215544218,0.14,-0.04,-1.93
215546243,0.14,0.01,-2.00
215548278,0.14,0.01,-2.00
215550251,0.14,0.01,-2.00
215552207,0.14,0.01,-2.00
215554210,0.14,0.01,-2.00
215556212,0.13,-0.14,-1.97
215558208,0.13,-0.14,-1.97
215560207,0.13,-0.14,-1.97
215562256,0.13,-0.14,-1.97
215564230,0.13,-0.14,-1.97
215566385,0.11,-0.35,-1.74
215568279,0.11,-0.35,-1.74
215570247,0.11,-0.35,-1.74
215572249,0.11,-0.35,-1.74
215574272,0.11,-0.35,-1.74
215576330,0.08,-0.38,-1.73
215578268,0.08,-0.38,-1.73
215580247,0.08,-0.38,-1.73
215582242,0.08,-0.38,-1.73
215584251,0.08,-0.38,-1.73
215586318,0.06,-0.30,-1.86
215588230,0.06,-0.30,-1.86
215590303,0.06,-0.30,-1.86
215592212,0.06,-0.30,-1.86
215594214,0.06,-0.30,-1.86
215596253,0.05,-0.27,-1.82
215598203,0.05,-0.27,-1.82
215600203,0.05,-0.27,-1.82
215602206,0.05,-0.27,-1.82
215604204,0.05,-0.27,-1.82
215606271,0.04,-0.24,-1.60
215608247,0.04,-0.24,-1.60
215610246,0.04,-0.24,-1.60
215612245,0.04,-0.24,-1.60
215614250,0.04,-0.24,-1.60
215616349,0.04,-0.16,-1.42
215618246,0.04,-0.16,-1.42
215620203,0.04,-0.16,-1.42
215622206,0.04,-0.16,-1.42
215624209,0.04,-0.16,-1.42
215626210,0.04,-0.16,-1.42
215628206,0.05,-0.10,-1.35
215630210,0.05,-0.10,-1.35
215632203,0.05,-0.10,-1.35
215634203,0.05,-0.10,-1.35
215636203,0.05,-0.10,-1.35
215638208,0.06,0.03,-1.30
215640278,0.06,0.03,-1.30
215642215,0.06,0.03,-1.30
215644209,0.06,0.03,-1.30
215646270,0.06,0.03,-1.30
215648246,0.08,0.07,-1.26
215650244,0.08,0.07,-1.26
215652244,0.08,0.07,-1.26
215654246,0.08,0.07,-1.26
215656247,0.08,0.07,-1.26
215658205,0.08,0.06,-1.18
215660207,0.08,0.06,-1.18
215662225,0.08,0.06,-1.18
215664216,0.08,0.06,-1.18
215666300,0.08,0.06,-1.18
215668246,0.07,0.08,-1.12
215670205,0.07,0.08,-1.12
215672207,0.07,0.08,-1.12
215674203,0.07,0.08,-1.12
215676205,0.07,0.08,-1.12
215678208,0.05,0.09,-1.11
215680262,0.05,0.09,-1.11
215682251,0.05,0.09,-1.11
215684206,0.05,0.09,-1.11
215686261,0.05,0.09,-1.11
215688247,0.04,0.11,-1.08
215690346,0.04,0.11,-1.08
215692258,0.04,0.11,-1.08
215694250,0.04,0.11,-1.08
215696245,0.04,0.11,-1.08
215698234,0.04,0.12,-0.95
215700208,0.04,0.12,-0.95
215702204,0.04,0.12,-0.95
215704244,0.04,0.12,-0.95
215706277,0.04,0.12,-0.95
215708231,0.04,0.12,-0.95
215710202,0.04,0.19,-0.71
215712193,0.04,0.19,-0.71
215714205,0.04,0.19,-0.71
215716363,0.04,0.19,-0.71
215718238,0.04,0.19,-0.71
215720203,0.05,0.23,-0.49
215722195,0.05,0.23,-0.49
215724193,0.05,0.23,-0.49
215726269,0.05,0.23,-0.49
215728248,0.05,0.23,-0.49
215730247,0.04,0.23,-0.33
215732279,0.04,0.23,-0.33
215734279,0.04,0.23,-0.33
215736249,0.04,0.23,-0.33
215738247,0.04,0.23,-0.33
215740349,0.04,0.24,-0.26
215742235,0.04,0.24,-0.26
215744209,0.04,0.24,-0.26
215746243,0.04,0.24,-0.26
215748202,0.04,0.24,-0.26
215750262,0.01,0.22,-0.25
215752252,0.01,0.22,-0.25
215754205,0.01,0.22,-0.25
215756195,0.01,0.22,-0.25
215758202,0.01,0.22,-0.25
215760269,-0.02,0.12,-0.25
215762238,-0.02,0.12,-0.25
215764218,-0.02,0.12,-0.25
215766378,-0.02,0.12,-0.25
215768247,-0.02,0.12,-0.25
215770251,-0.08,0.01,-0.33
215772270,-0.08,0.01,-0.33
215774255,-0.08,0.01,-0.33
215776309,-0.08,0.01,-0.33
215778271,-0.08,0.01,-0.33
215780248,-0.16,-0.09,-0.54
215782252,-0.16,-0.09,-0.54
215784208,-0.16,-0.09,-0.54
215786202,-0.16,-0.09,-0.54
215788213,-0.16,-0.09,-0.54
215790323,-0.16,-0.09,-0.54
215792215,-0.21,-0.08,-0.77
215794207,-0.21,-0.08,-0.77
215796205,-0.21,-0.08,-0.77
215798206,-0.21,-0.08,-0.77
215800281,-0.21,-0.08,-0.77
215802231,-0.22,0.02,-0.89
215804205,-0.22,0.02,-0.89
215806267,-0.22,0.02,-0.89
215808244,-0.22,0.02,-0.89
215810279,-0.22,0.02,-0.89
215812271,-0.16,0.14,-0.83
215814247,-0.16,0.14,-0.83
215816347,-0.16,0.14,-0.83
215818254,-0.16,0.14,-0.83
215820273,-0.16,0.14,-0.83
215822260,-0.09,0.30,-0.61
215824235,-0.09,0.30,-0.61
215826203,-0.09,0.30,-0.61
215828204,-0.09,0.30,-0.61
215830284,-0.09,0.30,-0.61
215832242,-0.01,0.33,-0.41
215834204,-0.01,0.33,-0.41
215836202,-0.01,0.33,-0.41
215838241,-0.01,0.33,-0.41
215840346,-0.01,0.33,-0.41
215842218,0.05,0.30,-0.31
215844208,0.05,0.30,-0.31
215846289,0.05,0.30,-0.31
215848257,0.05,0.30,-0.31
215850248,0.05,0.30,-0.31
215852245,0.11,0.36,-0.23
215854252,0.11,0.36,-0.23
215856323,0.11,0.36,-0.23
215858262,0.11,0.36,-0.23
215860248,0.11,0.36,-0.23
215862253,0.14,0.37,-0.21
215864218,0.14,0.37,-0.21
215866319,0.14,0.37,-0.21
215868283,0.14,0.37,-0.21
215870235,0.14,0.37,-0.21
215872206,0.15,0.37,-0.20
215874229,0.15,0.37,-0.20
215876248,0.15,0.37,-0.20
215878203,0.15,0.37,-0.20
215880204,0.15,0.37,-0.20
215882255,0.15,0.37,-0.20
215884203,0.14,0.36,-0.23
215886272,0.14,0.36,-0.23
215888249,0.14,0.36,-0.23
215890347,0.14,0.36,-0.23
215892252,0.14,0.36,-0.23
215894275,0.13,0.30,-0.37
215896271,0.13,0.30,-0.37
215898252,0.13,0.30,-0.37
215900243,0.13,0.30,-0.37
215902226,0.13,0.30,-0.37
215904205,0.11,0.25,-0.60
215906205,0.11,0.25,-0.60
215908220,0.11,0.25,-0.60
215910294,0.11,0.25,-0.60
215912228,0.11,0.25,-0.60
215914194,0.10,0.14,-0.87
215916308,0.10,0.14,-0.87
215918215,0.10,0.14,-0.87
215920253,0.10,0.14,-0.87
215922204,0.10,0.14,-0.87
215924194,0.07,0.00,-1.12
215926274,0.07,0.00,-1.12
215928251,0.07,0.00,-1.12
215930248,0.07,0.00,-1.12
215932244,0.07,0.00,-1.12
215934244,0.05,-0.13,-1.38
215936247,0.05,-0.13,-1.38
215938244,0.05,-0.13,-1.38
215940299,0.05,-0.13,-1.38
215942220,0.05,-0.13,-1.38
215944209,0.03,-0.21,-1.64
215946243,0.03,-0.21,-1.64
215948203,0.03,-0.21,-1.64
215950195,0.03,-0.21,-1.64
215952195,0.03,-0.21,-1.64
215954201,0.04,-0.35,-1.80
215956202,0.04,-0.35,-1.80
215958220,0.04,-0.35,-1.80
215960206,0.04,-0.35,-1.80
215962223,0.04,-0.35,-1.80
215964213,0.04,-0.35,-1.80
215966338,0.08,-0.44,-1.80
215968248,0.08,-0.44,-1.80
215970248,0.08,-0.44,-1.80
215972244,0.08,-0.44,-1.80
215974254,0.08,-0.44,-1.80
215976272,0.13,-0.32,-1.73
215978257,0.13,-0.32,-1.73
215980289,0.13,-0.32,-1.73
215982238,0.13,-0.32,-1.73
215984202,0.13,-0.32,-1.73
215986202,0.20,-0.20,-1.78
215988205,0.20,-0.20,-1.78
215990298,0.20,-0.20,-1.78
215992215,0.20,-0.20,-1.78
215994202,0.20,-0.20,-1.78
215996208,0.27,-0.07,-1.82
215998254,0.27,-0.07,-1.82
216000204,0.27,-0.07,-1.82
216002194,0.27,-0.07,-1.82
216004202,0.27,-0.07,-1.82
216006270,0.36,0.02,-1.67
216008247,0.36,0.02,-1.67
216010245,0.36,0.02,-1.67
216012250,0.36,0.02,-1.67
216014308,0.36,0.02,-1.67
216016364,0.43,0.05,-1.45
216018248,0.43,0.05,-1.45
216020245,0.43,0.05,-1.45
216022243,0.43,0.05,-1.45
216024211,0.43,0.05,-1.45
216026205,0.49,0.10,-1.20
216028215,0.49,0.10,-1.20
216030280,0.49,0.10,-1.20
216032223,0.49,0.10,-1.20
216034219,0.49,0.10,-1.20
216036246,0.52,0.12,-1.03
216038225,0.52,0.12,-1.03
216040355,0.52,0.12,-1.03
216042211,0.52,0.12,-1.03
216044203,0.52,0.12,-1.03
216046297,0.51,0.06,-0.97
216048261,0.51,0.06,-0.97
216050248,0.51,0.06,-0.97
216052245,0.51,0.06,-0.97
216054247,0.51,0.06,-0.97
216056262,0.51,0.06,-0.97
216058259,0.47,-0.02,-0.94
216060254,0.47,-0.02,-0.94
216062251,0.47,-0.02,-0.94
216064215,0.47,-0.02,-0.94
216066308,0.47,-0.02,-0.94
216068290,0.42,-0.12,-0.92
216070236,0.42,-0.12,-0.92
216072216,0.42,-0.12,-0.92
216074203,0.42,-0.12,-0.92
216076202,0.42,-0.12,-0.92
216078203,0.38,-0.23,-0.89
216080203,0.38,-0.23,-0.89
216082195,0.38,-0.23,-0.89
216084195,0.38,-0.23,-0.89
216086254,0.38,-0.23,-0.89
216088246,0.34,-0.23,-0.82
216090351,0.34,-0.23,-0.82
216092251,0.34,-0.23,-0.82
216094290,0.34,-0.23,-0.82
216096273,0.34,-0.23,-0.82
216098255,0.30,-0.25,-0.76
216100250,0.30,-0.25,-0.76
216102205,0.30,-0.25,-0.76
216104257,0.30,-0.25,-0.76
216106250,0.30,-0.25,-0.76
216108204,0.24,-0.30,-0.74
216110195,0.24,-0.30,-0.74
216112195,0.24,-0.30,-0.74
216114251,0.24,-0.30,-0.74
216116309,0.24,-0.30,-0.74
216118205,0.20,-0.28,-0.75
216120204,0.20,-0.28,-0.75
216122205,0.20,-0.28,-0.75
216124195,0.20,-0.28,-0.75
216126272,0.20,-0.28,-0.75
216128250,0.18,-0.25,-0.78
216130247,0.18,-0.25,-0.78
216132247,0.18,-0.25,-0.78
216134246,0.18,-0.25,-0.78
216136245,0.18,-0.25,-0.78
216138251,0.18,-0.25,-0.78
216140312,0.18,-0.20,-0.71
216142298,0.18,-0.20,-0.71
216144239,0.18,-0.20,-0.71
216146243,0.18,-0.20,-0.71
216148202,0.18,-0.20,-0.71
216150205,0.18,-0.18,-0.56
216152204,0.18,-0.18,-0.56
216154204,0.18,-0.18,-0.56
216156255,0.18,-0.18,-0.56
216158205,0.18,-0.18,-0.56
216160207,0.17,-0.17,-0.43
216162220,0.17,-0.17,-0.43
216164218,0.17,-0.17,-0.43
216166375,0.17,-0.17,-0.43
216168248,0.17,-0.17,-0.43
216170249,0.16,-0.20,-0.41
216172245,0.16,-0.20,-0.41
216174245,0.16,-0.20,-0.41
216176244,0.16,-0.20,-0.41
216178244,0.16,-0.20,-0.41
216180271,0.15,-0.24,-0.53
216182248,0.15,-0.24,-0.53
216184203,0.15,-0.24,-0.53
216186195,0.15,-0.24,-0.53
216188205,0.15,-0.24,-0.53
216190298,0.12,-0.29,-0.68
216192212,0.12,-0.29,-0.68
216194205,0.12,-0.29,-0.68
216196205,0.12,-0.29,-0.68
216198202,0.12,-0.29,-0.68
216200203,0.08,-0.34,-0.86
216202214,0.08,-0.34,-0.86
216204270,0.08,-0.34,-0.86
216206268,0.08,-0.34,-0.86
216208249,0.08,-0.34,-0.86
216210247,0.05,-0.45,-1.06
216212247,0.05,-0.45,-1.06
216214290,0.05,-0.45,-1.06
216216374,0.05,-0.45,-1.06
216218247,0.05,-0.45,-1.06
216220248,0.05,-0.49,-1.18
216222236,0.05,-0.49,-1.18
216224266,0.05,-0.49,-1.18
216226251,0.05,-0.49,-1.18
216228207,0.05,-0.49,-1.18
216230203,0.05,-0.49,-1.18
216232203,0.07,-0.45,-1.05
216234202,0.07,-0.45,-1.05
216236202,0.07,-0.45,-1.05
216238203,0.07,-0.45,-1.05
216240299,0.07,-0.45,-1.05
216242216,0.10,-0.41,-0.76
216244206,0.10,-0.41,-0.76
216246277,0.10,-0.41,-0.76
216248246,0.10,-0.41,-0.76
216250246,0.10,-0.41,-0.76
216252242,0.16,-0.38,-0.47
216254244,0.16,-0.38,-0.47
216256244,0.16,-0.38,-0.47
216258237,0.16,-0.38,-0.47
216260207,0.16,-0.38,-0.47
216262222,0.17,-0.40,-0.34
216264218,0.17,-0.40,-0.34
216266297,0.17,-0.40,-0.34
216268206,0.17,-0.40,-0.34
216270211,0.17,-0.40,-0.34
216272203,0.17,-0.38,-0.41
216274207,0.17,-0.38,-0.41
216276205,0.17,-0.38,-0.41
216278203,0.17,-0.38,-0.41
216280211,0.17,-0.38,-0.41
216282259,0.16,-0.43,-0.59
216284212,0.16,-0.43,-0.59
216286258,0.16,-0.43,-0.59
216288249,0.16,-0.43,-0.59
216290340,0.16,-0.43,-0.59
216292253,0.13,-0.49,-0.82
216294244,0.13,-0.49,-0.82
216296245,0.13,-0.49,-0.82
216298203,0.13,-0.49,-0.82
216300204,0.13,-0.49,-0.82
216302205,0.12,-0.50,-1.05
216304204,0.12,-0.50,-1.05
216306205,0.12,-0.50,-1.05
216308204,0.12,-0.50,-1.05
216310207,0.12,-0.50,-1.05
216312206,0.12,-0.50,-1.05
216314208,0.10,-0.45,-1.23
216316283,0.10,-0.45,-1.23
216318205,0.10,-0.45,-1.23
216320204,0.10,-0.45,-1.23
216322206,0.10,-0.45,-1.23
216324207,0.09,-0.32,-1.37
216326253,0.09,-0.32,-1.37
216328247,0.09,-0.32,-1.37
216330246,0.09,-0.32,-1.37
216332245,0.09,-0.32,-1.37
216334267,0.11,-0.21,-1.41
216336253,0.11,-0.21,-1.41
216338247,0.11,-0.21,-1.41
216340333,0.11,-0.21,-1.41
216342212,0.11,-0.21,-1.41
216344206,0.12,-0.11,-1.36
216346247,0.12,-0.11,-1.36
216348207,0.12,-0.11,-1.36
216350194,0.12,-0.11,-1.36
216352255,0.12,-0.11,-1.36
216354210,0.14,-0.04,-1.32
216356207,0.14,-0.04,-1.32
216358204,0.14,-0.04,-1.32
216360204,0.14,-0.04,-1.32
216362219,0.14,-0.04,-1.32
216364216,0.16,-0.11,-1.29
216366364,0.16,-0.11,-1.29
216368243,0.16,-0.11,-1.29
216370253,0.16,-0.11,-1.29
216372253,0.16,-0.11,-1.29
216374252,0.15,-0.14,-1.23
216376246,0.15,-0.14,-1.23
216378238,0.15,-0.14,-1.23
216380203,0.15,-0.14,-1.23
216382205,0.15,-0.14,-1.23
216384204,0.14,-0.16,-1.23
216386208,0.14,-0.16,-1.23
216388203,0.14,-0.16,-1.23
216390283,0.14,-0.16,-1.23
216392206,0.14,-0.16,-1.23
216394204,0.14,-0.16,-1.23
216396206,0.13,-0.23,-1.26
216398210,0.13,-0.23,-1.26
216400217,0.13,-0.23,-1.26
216402211,0.13,-0.23,-1.26
216404206,0.13,-0.23,-1.26
216406252,0.10,-0.18,-1.28
216408245,0.10,-0.18,-1.28
216410245,0.10,-0.18,-1.28
216412244,0.10,-0.18,-1.28
216414248,0.10,-0.18,-1.28
216416348,0.06,-0.23,-1.32
216418243,0.06,-0.23,-1.32
216420182,0.06,-0.23,-1.32
216422181,0.06,-0.23,-1.32
216424182,0.06,-0.23,-1.32
216426182,0.04,-0.25,-1.32
216428181,0.04,-0.25,-1.32
216430181,0.04,-0.25,-1.32
216432181,0.04,-0.25,-1.32
216434182,0.04,-0.25,-1.32
216436182,0.01,-0.22,-1.34
216438181,0.01,-0.22,-1.34
216440181,0.01,-0.22,-1.34
216442191,0.01,-0.22,-1.34
216444187,0.01,-0.22,-1.34
216446273,-0.00,-0.22,-1.39
216448181,-0.00,-0.22,-1.39
216450182,-0.00,-0.22,-1.39
216452181,-0.00,-0.22,-1.39
216454182,-0.00,-0.22,-1.39
217554293,0.09,0.01,-1.05
217556248,0.09,0.01,-1.05
217558258,0.09,0.01,-1.05
217560261,0.09,0.01,-1.05
217562268,-0.00,-0.08,-1.54
217564253,-0.00,-0.08,-1.54
217566353,-0.00,-0.08,-1.54
217568251,-0.00,-0.08,-1.54
217570286,-0.00,-0.08,-1.54
217572279,-0.08,-0.19,-1.89
217574249,-0.08,-0.19,-1.89
217576215,-0.08,-0.19,-1.89
217578208,-0.08,-0.19,-1.89
217580214,-0.08,-0.19,-1.89
217582217,-0.12,-0.30,-1.95
217584210,-0.12,-0.30,-1.95
217586215,-0.12,-0.30,-1.95
217588212,-0.12,-0.30,-1.95
217590306,-0.12,-0.30,-1.95
217592221,-0.10,-0.33,-1.74
217594275,-0.10,-0.33,-1.74
217596251,-0.10,-0.33,-1.74
217598248,-0.10,-0.33,-1.74
217600258,-0.10,-0.33,-1.74
217602287,-0.10,-0.33,-1.74
217604267,-0.06,-0.36,-1.67
217606247,-0.06,-0.36,-1.67
217608239,-0.06,-0.36,-1.67
217610211,-0.06,-0.36,-1.67
217612205,-0.06,-0.36,-1.67
217614245,0.02,-0.24,-1.59
217616314,0.02,-0.24,-1.59
217618277,0.02,-0.24,-1.59
217620229,0.02,-0.24,-1.59
217622203,0.02,-0.24,-1.59
217624204,0.09,-0.15,-1.39
217626204,0.09,-0.15,-1.39
217628204,0.09,-0.15,-1.39
217630206,0.09,-0.15,-1.39
217632204,0.09,-0.15,-1.39
217634256,0.15,-0.13,-1.15
217636248,0.15,-0.13,-1.15
217638248,0.15,-0.13,-1.15
217640364,0.15,-0.13,-1.15
217642262,0.15,-0.13,-1.15
217644265,0.20,-0.07,-0.97
217646259,0.20,-0.07,-0.97
217648244,0.20,-0.07,-0.97
217650212,0.20,-0.07,-0.97
217652229,0.20,-0.07,-0.97
217654269,0.23,-0.06,-0.87
217656232,0.23,-0.06,-0.87
217658207,0.23,-0.06,-0.87
217660204,0.23,-0.06,-0.87
217662269,0.23,-0.06,-0.87
217664239,0.22,-0.09,-0.78
217666313,0.22,-0.09,-0.78
217668194,0.22,-0.09,-0.78
217670202,0.22,-0.09,-0.78
217672204,0.22,-0.09,-0.78
217674270,0.18,-0.09,-0.69
217676249,0.18,-0.09,-0.69
217678248,0.18,-0.09,-0.69
217680279,0.18,-0.09,-0.69
217682275,0.18,-0.09,-0.69
217684249,0.18,-0.09,-0.69
217686244,0.11,-0.17,-0.69
217688246,0.11,-0.17,-0.69
217690304,0.11,-0.17,-0.69
217692285,0.11,-0.17,-0.69
217694236,0.11,-0.17,-0.69
217696194,0.04,-0.25,-0.72
217698203,0.04,-0.25,-0.72
217700202,0.04,-0.25,-0.72
217702258,0.04,-0.25,-0.72
217704204,0.04,-0.25,-0.72
217706208,0.00,-0.26,-0.75
217708206,0.00,-0.26,-0.75
217710203,0.00,-0.26,-0.75
217712209,0.00,-0.26,-0.75
217714269,0.00,-0.26,-0.75
217716366,-0.00,-0.26,-0.77
217718252,-0.00,-0.26,-0.77
217720252,-0.00,-0.26,-0.77
217722285,-0.00,-0.26,-0.77
217724265,-0.00,-0.26,-0.77
217726247,-0.00,-0.24,-0.84
217728249,-0.00,-0.24,-0.84
217730246,-0.00,-0.24,-0.84
217732207,-0.00,-0.24,-0.84
217734211,-0.00,-0.24,-0.84
217736206,-0.00,-0.24,-0.98
217738203,-0.00,-0.24,-0.98
217740299,-0.00,-0.24,-0.98
217742213,-0.00,-0.24,-0.98
217744213,-0.00,-0.24,-0.98
217746239,0.01,-0.26,-1.09
217748206,0.01,-0.26,-1.09
217750203,0.01,-0.26,-1.09
217752204,0.01,-0.26,-1.09
217754253,0.01,-0.26,-1.09
217756251,0.04,-0.27,-1.02
217758246,0.04,-0.27,-1.02
217760246,0.04,-0.27,-1.02
217762255,0.04,-0.27,-1.02
217764249,0.04,-0.27,-1.02
217766300,0.09,-0.25,-0.77
217768204,0.09,-0.25,-0.77
217770208,0.09,-0.25,-0.77
217772203,0.09,-0.25,-0.77
217774207,0.09,-0.25,-0.77
217776224,0.09,-0.25,-0.77
217778290,0.13,-0.27,-0.50
217780234,0.13,-0.27,-0.50
217782207,0.13,-0.27,-0.50
217784202,0.13,-0.27,-0.50
217786205,0.13,-0.27,-0.50
217788210,0.15,-0.23,-0.30
217790315,0.15,-0.23,-0.30
217792213,0.15,-0.23,-0.30
217794290,0.15,-0.23,-0.30
217796269,0.15,-0.23,-0.30
217798248,0.14,-0.25,-0.25
217800246,0.14,-0.25,-0.25
217802353,0.14,-0.25,-0.25
217804271,0.14,-0.25,-0.25
217806245,0.14,-0.25,-0.25
217808243,0.11,-0.30,-0.30
217810315,0.11,-0.30,-0.30
217812267,0.11,-0.30,-0.30
217814244,0.11,-0.30,-0.30
217816312,0.11,-0.30,-0.30
217818217,0.05,-0.41,-0.37
217820249,0.05,-0.41,-0.37
217822205,0.05,-0.41,-0.37
217824205,0.05,-0.41,-0.37
217826203,0.05,-0.41,-0.37
217828203,-0.01,-0.59,-0.47
217830202,-0.01,-0.59,-0.47
217832205,-0.01,-0.59,-0.47
217834259,-0.01,-0.59,-0.47
217836256,-0.01,-0.59,-0.47
217838306,-0.07,-0.66,-0.61
217840356,-0.07,-0.66,-0.61
217842253,-0.07,-0.66,-0.61
217844249,-0.07,-0.66,-0.61
217846295,-0.07,-0.66,-0.61
217848275,-0.08,-0.67,-0.73
217850248,-0.08,-0.67,-0.73
217852243,-0.08,-0.67,-0.73
217854206,-0.08,-0.67,-0.73
217856203,-0.08,-0.67,-0.73
217858203,-0.08,-0.67,-0.73
217860206,-0.08,-0.62,-0.71
217862224,-0.08,-0.62,-0.71
217864213,-0.08,-0.62,-0.71
217866312,-0.08,-0.62,-0.71
217868204,-0.08,-0.62,-0.71
217870204,-0.06,-0.50,-0.52
217872206,-0.06,-0.50,-0.52
217874253,-0.06,-0.50,-0.52
217876247,-0.06,-0.50,-0.52
217878246,-0.06,-0.50,-0.52
217880254,-0.02,-0.44,-0.30
217882253,-0.02,-0.44,-0.30
217884244,-0.02,-0.44,-0.30
217886202,-0.02,-0.44,-0.30
217888209,-0.02,-0.44,-0.30
217890283,0.02,-0.39,-0.16
217892219,0.02,-0.39,-0.16
217894326,0.02,-0.39,-0.16
217896228,0.02,-0.39,-0.16
217898202,0.02,-0.39,-0.16
217900202,0.07,-0.34,-0.18
217902201,0.07,-0.34,-0.18
217904204,0.07,-0.34,-0.18
217906254,0.07,-0.34,-0.18
217908222,0.07,-0.34,-0.18
217910206,0.09,-0.25,-0.35
217912204,0.09,-0.25,-0.35
217914267,0.09,-0.25,-0.35
217916351,0.09,-0.25,-0.35
217918248,0.09,-0.25,-0.35
217920251,0.09,-0.13,-0.62
217922267,0.09,-0.13,-0.62
217924246,0.09,-0.13,-0.62
217926249,0.09,-0.13,-0.62
217928246,0.09,-0.13,-0.62
217930271,0.06,-0.16,-0.89
217932250,0.06,-0.16,-0.89
217934204,0.06,-0.16,-0.89
217936195,0.06,-0.16,-0.89
217938202,0.06,-0.16,-0.89
217940299,0.06,-0.16,-0.89
217942258,0.01,-0.16,-1.03
217944204,0.01,-0.16,-1.03
217946236,0.01,-0.16,-1.03
217948202,0.01,-0.16,-1.03
217950207,0.01,-0.16,-1.03
217952205,-0.03,-0.21,-1.17
217954277,-0.03,-0.21,-1.17
217956250,-0.03,-0.21,-1.17
217958248,-0.03,-0.21,-1.17
217960277,-0.03,-0.21,-1.17
217962270,-0.05,-0.31,-1.32
217964254,-0.05,-0.31,-1.32
217966349,-0.05,-0.31,-1.32
217968247,-0.05,-0.31,-1.32
217970273,-0.05,-0.31,-1.32
217972259,-0.06,-0.36,-1.36
217974215,-0.06,-0.36,-1.36
217976202,-0.06,-0.36,-1.36
217978205,-0.06,-0.36,-1.36
217980204,-0.06,-0.36,-1.36
217982207,-0.06,-0.46,-1.31
217984207,-0.06,-0.46,-1.31
217986207,-0.06,-0.46,-1.31
217988215,-0.06,-0.46,-1.31
217990362,-0.06,-0.46,-1.31
217992230,-0.04,-0.50,-1.24
217994261,-0.04,-0.50,-1.24
217996248,-0.04,-0.50,-1.24
217998265,-0.04,-0.50,-1.24
218000273,-0.04,-0.50,-1.24
218002265,-0.02,-0.52,-1.18
218004247,-0.02,-0.52,-1.18
218006246,-0.02,-0.52,-1.18
218008274,-0.02,-0.52,-1.18
218010247,-0.02,-0.52,-1.18
218012202,0.00,-0.50,-1.12
218014202,0.00,-0.50,-1.12
218016306,0.00,-0.50,-1.12
218018193,0.00,-0.50,-1.12
218020214,0.00,-0.50,-1.12
218022258,0.03,-0.48,-1.13
218024237,0.03,-0.48,-1.13
218026203,0.03,-0.48,-1.13
218028206,0.03,-0.48,-1.13
218030202,0.03,-0.48,-1.13
218032202,0.03,-0.48,-1.13
218034274,0.05,-0.44,-1.15
218036247,0.05,-0.44,-1.15
218038248,0.05,-0.44,-1.15
218040358,0.05,-0.44,-1.15
218042253,0.05,-0.44,-1.15
218044253,0.05,-0.43,-1.17
218046268,0.05,-0.43,-1.17
218048243,0.05,-0.43,-1.17
218050203,0.05,-0.43,-1.17
218052206,0.05,-0.43,-1.17
218054205,0.06,-0.45,-1.24
218056205,0.06,-0.45,-1.24
218058204,0.06,-0.45,-1.24
218060206,0.06,-0.45,-1.24
218062226,0.06,-0.45,-1.24
218064219,0.04,-0.44,-1.26
218066296,0.04,-0.44,-1.26
218068201,0.04,-0.44,-1.26
218070207,0.04,-0.44,-1.26
218072204,0.04,-0.44,-1.26
218074254,0.01,-0.49,-1.31
218076247,0.01,-0.49,-1.31
218078250,0.01,-0.49,-1.31
218080370,0.01,-0.49,-1.31
218082267,0.01,-0.49,-1.31
218084248,-0.01,-0.50,-1.45
218086247,-0.01,-0.50,-1.45
218088245,-0.01,-0.50,-1.45
218090299,-0.01,-0.50,-1.45
218092219,-0.01,-0.50,-1.45
218094275,-0.04,-0.44,-1.59
218096229,-0.04,-0.44,-1.59
218098204,-0.04,-0.44,-1.59
218100204,-0.04,-0.44,-1.59
218102204,-0.04,-0.44,-1.59
218104221,-0.04,-0.40,-1.64
218106256,-0.04,-0.40,-1.64
218108211,-0.04,-0.40,-1.64
218110203,-0.04,-0.40,-1.64
218112195,-0.04,-0.40,-1.64
218114275,-0.01,-0.32,-1.58
218116344,-0.01,-0.32,-1.58
218118250,-0.01,-0.32,-1.58
218120247,-0.01,-0.32,-1.58
218122244,-0.01,-0.32,-1.58
218124252,-0.01,-0.32,-1.58
218126268,0.01,-0.29,-1.49
218128241,0.01,-0.29,-1.49
218130206,0.01,-0.29,-1.49
218132217,0.01,-0.29,-1.49
218134326,0.01,-0.29,-1.49
218136229,0.05,-0.23,-1.41
218138202,0.05,-0.23,-1.41
218140195,0.05,-0.23,-1.41
218142212,0.05,-0.23,-1.41
218144210,0.05,-0.23,-1.41
218146267,0.09,-0.18,-1.24
218148204,0.09,-0.18,-1.24
218150207,0.09,-0.18,-1.24
218152206,0.09,-0.18,-1.24
218154270,0.09,-0.18,-1.24
218156250,0.13,-0.18,-1.10
218158247,0.13,-0.18,-1.10
218160249,0.13,-0.18,-1.10
218162300,0.13,-0.18,-1.10
218164267,0.13,-0.18,-1.10
218166350,0.14,-0.19,-1.01
218168248,0.14,-0.19,-1.01
218170280,0.14,-0.19,-1.01
218172252,0.14,-0.19,-1.01
218174207,0.14,-0.19,-1.01
218176201,0.14,-0.16,-0.97
218178204,0.14,-0.16,-0.97
218180204,0.14,-0.16,-0.97
218182204,0.14,-0.16,-0.97
218184202,0.14,-0.16,-0.97
218186202,0.14,-0.14,-0.97
218188203,0.14,-0.14,-0.97
218190297,0.14,-0.14,-0.97
218192213,0.14,-0.14,-0.97
218194265,0.14,-0.14,-0.97
218196250,0.14,-0.15,-0.94
218198245,0.14,-0.15,-0.94
218200245,0.14,-0.15,-0.94
218202244,0.14,-0.15,-0.94
218204244,0.14,-0.15,-0.94
218206287,0.14,-0.15,-0.94
218208231,0.12,-0.09,-0.88
218210204,0.12,-0.09,-0.88
218212195,0.12,-0.09,-0.88
218214206,0.12,-0.09,-0.88
218216315,0.12,-0.09,-0.88
218218271,0.10,-0.11,-0.85
218220219,0.10,-0.11,-0.85
218222202,0.10,-0.11,-0.85
218224205,0.10,-0.11,-0.85
218226206,0.10,-0.11,-0.85
218228237,0.07,-0.12,-0.83
218230205,0.07,-0.12,-0.83
218232207,0.07,-0.12,-0.83
218234272,0.07,-0.12,-0.83
218236247,0.07,-0.12,-0.83
218238253,0.05,-0.07,-0.79
218240353,0.05,-0.07,-0.79
218242365,0.05,-0.07,-0.79
218244271,0.05,-0.07,-0.79
218246274,0.05,-0.07,-0.79
218248246,0.03,-0.08,-0.75
218250254,0.03,-0.08,-0.75
218252270,0.03,-0.08,-0.75
218254232,0.03,-0.08,-0.75
218256202,0.03,-0.08,-0.75
218258205,0.01,-0.09,-0.71
218260254,0.01,-0.09,-0.71
218262237,0.01,-0.09,-0.71
218264205,0.01,-0.09,-0.71
218266309,0.01,-0.09,-0.71
218268204,0.00,-0.10,-0.65
218270194,0.00,-0.10,-0.65
218272194,0.00,-0.10,-0.65
218274273,0.00,-0.10,-0.65
218276251,0.00,-0.10,-0.65
218278246,-0.00,-0.07,-0.65
218280245,-0.00,-0.07,-0.65
218282247,-0.00,-0.07,-0.65
218284247,-0.00,-0.07,-0.65
218286244,-0.00,-0.07,-0.65
218288206,-0.00,-0.07,-0.65
218290356,0.00,-0.02,-0.63
218292259,0.00,-0.02,-0.63
218294206,0.00,-0.02,-0.63
218296202,0.00,-0.02,-0.63
218298205,0.00,-0.02,-0.63
218300202,0.02,-0.09,-0.54
218302262,0.02,-0.09,-0.54
218304232,0.02,-0.09,-0.54
218306202,0.02,-0.09,-0.54
218308204,0.02,-0.09,-0.54
218310204,0.03,0.00,-0.38
218312204,0.03,0.00,-0.38
218314273,0.03,0.00,-0.38
218316349,0.03,0.00,-0.38
218318251,0.03,0.00,-0.38
218320270,0.03,0.05,-0.41
218322269,0.03,0.05,-0.41
218324265,0.03,0.05,-0.41
218326245,0.03,0.05,-0.41
218328249,0.03,0.05,-0.41
218330270,0.01,0.04,-0.67
218332207,0.01,0.04,-0.67
218334204,0.01,0.04,-0.67
218336207,0.01,0.04,-0.67
218338205,0.01,0.04,-0.67
218340330,-0.01,0.06,-0.91
218342212,-0.01,0.06,-0.91
218344214,-0.01,0.06,-0.91
218346248,-0.01,0.06,-0.91
218348204,-0.01,0.06,-0.91
218350202,-0.04,-0.03,-1.02
218352206,-0.04,-0.03,-1.02
218354292,-0.04,-0.03,-1.02
218356276,-0.04,-0.03,-1.02
218358254,-0.04,-0.03,-1.02
218360249,-0.08,-0.10,-0.99
218362256,-0.08,-0.10,-0.99
218364251,-0.08,-0.10,-0.99
218366355,-0.08,-0.10,-0.99
218368249,-0.08,-0.10,-0.99
218370210,-0.11,-0.10,-0.93
218372204,-0.11,-0.10,-0.93
218374205,-0.11,-0.10,-0.93
218376204,-0.11,-0.10,-0.93
218378204,-0.11,-0.10,-0.93
218380203,-0.11,-0.10,-0.93
218382204,-0.11,-0.07,-0.93
218384285,-0.11,-0.07,-0.93
218386246,-0.11,-0.07,-0.93
218388205,-0.11,-0.07,-0.93
218390299,-0.11,-0.07,-0.93
218392212,-0.08,-0.04,-0.88
218394256,-0.08,-0.04,-0.88
218396292,-0.08,-0.04,-0.88
218398267,-0.08,-0.04,-0.88
218400248,-0.08,-0.04,-0.88
218402246,-0.05,-0.02,-0.67
218404244,-0.05,-0.02,-0.67
218406267,-0.05,-0.02,-0.67
218408299,-0.05,-0.02,-0.67
218410263,-0.05,-0.02,-0.67
218412209,-0.02,-0.04,-0.47
218414210,-0.02,-0.04,-0.47
218416314,-0.02,-0.04,-0.47
218418290,-0.02,-0.04,-0.47
218420234,-0.02,-0.04,-0.47
218422206,-0.00,-0.10,-0.49
218424204,-0.00,-0.10,-0.49
218426203,-0.00,-0.10,-0.49
218428252,-0.00,-0.10,-0.49
218430208,-0.00,-0.10,-0.49
218432244,0.01,-0.14,-0.70
218434281,0.01,-0.14,-0.70
218436276,0.01,-0.14,-0.70
218438253,0.01,-0.14,-0.70
218440349,0.01,-0.14,-0.70
218442292,0.02,-0.18,-0.88
218444278,0.02,-0.18,-0.88
218446274,0.02,-0.18,-0.88
218448249,0.02,-0.18,-0.88
218450246,0.02,-0.18,-0.88
218452284,0.02,-0.19,-0.94
218454259,0.02,-0.19,-0.94
218456216,0.02,-0.19,-0.94
218458223,0.02,-0.19,-0.94
218460240,0.02,-0.19,-0.94
218462276,0.02,-0.19,-0.94
218464228,0.01,-0.18,-0.98
218466312,0.01,-0.18,-0.98
218468207,0.01,-0.18,-0.98
218470207,0.01,-0.18,-0.98
218472203,0.01,-0.18,-0.98
218474263,0.01,-0.20,-1.10
218476263,0.01,-0.20,-1.10
218478279,0.01,-0.20,-1.10
218480275,0.01,-0.20,-1.10
218482254,0.01,-0.20,-1.10
218484248,-0.00,-0.17,-1.22
218486246,-0.00,-0.17,-1.22
218488245,-0.00,-0.17,-1.22
218490308,-0.00,-0.17,-1.22
218492211,-0.00,-0.17,-1.22
218494206,-0.01,-0.16,-1.31
218496204,-0.01,-0.16,-1.31
218498220,-0.01,-0.16,-1.31
218500292,-0.01,-0.16,-1.31
218502230,-0.01,-0.16,-1.31
218504206,-0.02,-0.25,-1.33
218506194,-0.02,-0.25,-1.33
218508208,-0.02,-0.25,-1.33
218510252,-0.02,-0.25,-1.33
218512208,-0.02,-0.25,-1.33
218514271,-0.02,-0.32,-1.27
218516347,-0.02,-0.32,-1.27
218518248,-0.02,-0.32,-1.27
218520269,-0.02,-0.32,-1.27
218522280,-0.02,-0.32,-1.27
218524253,-0.01,-0.32,-1.27
218526250,-0.01,-0.32,-1.27
218528247,-0.01,-0.32,-1.27
218530239,-0.01,-0.32,-1.27
218532211,-0.01,-0.32,-1.27
218534220,0.01,-0.30,-1.38
218536250,0.01,-0.30,-1.38
218538288,0.01,-0.30,-1.38
218540331,0.01,-0.30,-1.38
218542207,0.01,-0.30,-1.38
218544195,0.01,-0.30,-1.38
218546252,0.04,-0.30,-1.43
218548254,0.04,-0.30,-1.43
218550203,0.04,-0.30,-1.43
218552205,0.04,-0.30,-1.43
218554266,0.04,-0.30,-1.43
218556250,0.07,-0.32,-1.34
218558247,0.07,-0.32,-1.34
218560267,0.07,-0.32,-1.34
218562276,0.07,-0.32,-1.34
218564266,0.07,-0.32,-1.34
218566351,0.11,-0.32,-1.25
218568254,0.11,-0.32,-1.25
218570276,0.11,-0.32,-1.25
218572279,0.11,-0.32,-1.25
218574237,0.11,-0.32,-1.25
218576206,0.16,-0.28,-1.19
218578204,0.16,-0.28,-1.19
218580207,0.16,-0.28,-1.19
218582203,0.16,-0.28,-1.19
218584203,0.16,-0.28,-1.19
218586241,0.20,-0.24,-1.13
218588277,0.20,-0.24,-1.13
218590320,0.20,-0.24,-1.13
218592212,0.20,-0.24,-1.13
218594286,0.20,-0.24,-1.13
218596275,0.23,-0.20,-1.07
218598253,0.23,-0.20,-1.07
218600245,0.23,-0.20,-1.07
218602273,0.23,-0.20,-1.07
218604274,0.23,-0.20,-1.07
218606253,0.24,-0.24,-1.02
218608248,0.24,-0.24,-1.02
218610246,0.24,-0.24,-1.02
218612283,0.24,-0.24,-1.02
218614233,0.24,-0.24,-1.02
218616312,0.22,-0.29,-0.97
218618204,0.22,-0.29,-0.97
218620194,0.22,-0.29,-0.97
218622256,0.22,-0.29,-0.97
218624203,0.22,-0.29,-0.97
218626202,0.21,-0.32,-0.94
218628207,0.21,-0.32,-0.94
218630202,0.21,-0.32,-0.94
218632195,0.21,-0.32,-0.94
218634267,0.21,-0.32,-0.94
218636274,0.21,-0.32,-0.94
218638270,0.20,-0.33,-0.95
218640346,0.20,-0.33,-0.95
218642255,0.20,-0.33,-0.95
218644248,0.20,-0.33,-0.95
218646268,0.20,-0.33,-0.95
218648246,0.17,-0.34,-0.97
218650206,0.17,-0.34,-0.97
218652203,0.17,-0.34,-0.97
218654208,0.17,-0.34,-0.97
218656205,0.17,-0.34,-0.97
218658204,0.16,-0.31,-0.98
218660211,0.16,-0.31,-0.98
218662224,0.16,-0.31,-0.98
218664220,0.16,-0.31,-0.98
218666300,0.16,-0.31,-0.98
218668208,0.15,-0.32,-1.00
218670207,0.15,-0.32,-1.00
218672204,0.15,-0.32,-1.00
218674254,0.15,-0.32,-1.00
218676245,0.15,-0.32,-1.00
218678246,0.13,-0.36,-1.01
218680248,0.13,-0.36,-1.01
218682271,0.13,-0.36,-1.01
218684296,0.13,-0.36,-1.01
218686264,0.13,-0.36,-1.01
218688247,0.12,-0.31,-0.97
218690301,0.12,-0.31,-0.97
218692216,0.12,-0.31,-0.97
218694217,0.12,-0.31,-0.97
218696207,0.12,-0.31,-0.97
218698204,0.11,-0.27,-0.88
218700245,0.11,-0.27,-0.88
218702260,0.11,-0.27,-0.88
218704204,0.11,-0.27,-0.88
218706195,0.11,-0.27,-0.88
218708215,0.09,-0.27,-0.79
218710257,0.09,-0.27,-0.79
218712203,0.09,-0.27,-0.79
218714269,0.09,-0.27,-0.79
218716347,0.09,-0.27,-0.79
218718250,0.09,-0.27,-0.79
218720243,0.08,-0.24,-0.68
218722247,0.08,-0.24,-0.68
218724254,0.08,-0.24,-0.68
218726286,0.08,-0.24,-0.68
218728264,0.08,-0.24,-0.68
218730229,0.04,-0.27,-0.59
218732204,0.04,-0.27,-0.59
218734204,0.04,-0.27,-0.59
218736204,0.04,-0.27,-0.59
218738203,0.04,-0.27,-0.59
218740360,0.01,-0.36,-0.57
218742254,0.01,-0.36,-0.57
218744207,0.01,-0.36,-0.57
218746244,0.01,-0.36,-0.57
218748265,0.01,-0.36,-0.57
218750241,-0.04,-0.34,-0.56
218752203,-0.04,-0.34,-0.56
218754268,-0.04,-0.34,-0.56
218756248,-0.04,-0.34,-0.56
218758246,-0.04,-0.34,-0.56
218760270,-0.09,-0.32,-0.61
218762269,-0.09,-0.32,-0.61
218764254,-0.09,-0.32,-0.61
218766351,-0.09,-0.32,-0.61
218768248,-0.09,-0.32,-0.61
218770244,-0.11,-0.30,-0.71
218772205,-0.11,-0.30,-0.71
218774204,-0.11,-0.30,-0.71
218776217,-0.11,-0.30,-0.71
218778205,-0.11,-0.30,-0.71
218780205,-0.12,-0.31,-0.82
218782205,-0.12,-0.31,-0.82
218784202,-0.12,-0.31,-0.82
218786202,-0.12,-0.31,-0.82
218788205,-0.12,-0.31,-0.82
218790297,-0.10,-0.35,-0.85
218792220,-0.10,-0.35,-0.85
218794288,-0.10,-0.35,-0.85
218796264,-0.10,-0.35,-0.85
218798248,-0.10,-0.35,-0.85
218800245,-0.09,-0.37,-0.74
218802279,-0.09,-0.37,-0.74
218804273,-0.09,-0.37,-0.74
218806250,-0.09,-0.37,-0.74
218808244,-0.09,-0.37,-0.74
218810242,-0.09,-0.37,-0.74
218812249,-0.07,-0.37,-0.61
218814255,-0.07,-0.37,-0.61
218816316,-0.07,-0.37,-0.61
218818201,-0.07,-0.37,-0.61
218820202,-0.07,-0.37,-0.61
218822201,-0.05,-0.37,-0.59
218824195,-0.05,-0.37,-0.59
218826206,-0.05,-0.37,-0.59
218828240,-0.05,-0.37,-0.59
218830255,-0.05,-0.37,-0.59
218832207,-0.05,-0.34,-0.63
218834204,-0.05,-0.34,-0.63
218836269,-0.05,-0.34,-0.63
218838248,-0.05,-0.34,-0.63
218840343,-0.05,-0.34,-0.63
218842258,-0.06,-0.35,-0.68
218844273,-0.06,-0.35,-0.68
218846270,-0.06,-0.35,-0.68
218848284,-0.06,-0.35,-0.68
218850264,-0.06,-0.35,-0.68
218852245,-0.07,-0.39,-0.70
218854236,-0.07,-0.39,-0.70
218856209,-0.07,-0.39,-0.70
218858270,-0.07,-0.39,-0.70
218860248,-0.07,-0.39,-0.70
218862223,-0.09,-0.36,-0.73
218864215,-0.09,-0.36,-0.73
218866314,-0.09,-0.36,-0.73
218868275,-0.09,-0.36,-0.73
218870219,-0.09,-0.36,-0.73
218872207,-0.10,-0.34,-0.84
218874204,-0.10,-0.34,-0.84
218876263,-0.10,-0.34,-0.84
218878247,-0.10,-0.34,-0.84
218880245,-0.10,-0.34,-0.84
218882260,-0.10,-0.30,-0.91
218884280,-0.10,-0.30,-0.91
218886262,-0.10,-0.30,-0.91
218888246,-0.10,-0.30,-0.91
218890350,-0.10,-0.30,-0.91
218892217,-0.10,-0.30,-0.91
218894286,-0.12,-0.27,-0.91
218896227,-0.12,-0.27,-0.91
218898206,-0.12,-0.27,-0.91
218900206,-0.12,-0.27,-0.91
218902201,-0.12,-0.27,-0.91
218904260,-0.13,-0.28,-0.89
218906203,-0.13,-0.28,-0.89
218908207,-0.13,-0.28,-0.89
218910206,-0.13,-0.28,-0.89
218912204,-0.13,-0.28,-0.89
218914195,-0.15,-0.23,-0.89
218916374,-0.15,-0.23,-0.89
218918246,-0.15,-0.23,-0.89
218920249,-0.15,-0.23,-0.89
218922252,-0.15,-0.23,-0.89
218924253,-0.14,-0.19,-0.93
218926245,-0.14,-0.19,-0.93
218928247,-0.14,-0.19,-0.93
218930210,-0.14,-0.19,-0.93
218932204,-0.14,-0.19,-0.93
218934205,-0.14,-0.23,-0.93
218936206,-0.14,-0.23,-0.93
218938203,-0.14,-0.23,-0.93
218940282,-0.14,-0.23,-0.93
218942216,-0.14,-0.23,-0.93
218944232,-0.11,-0.25,-0.82
218946253,-0.11,-0.25,-0.82
218948204,-0.11,-0.25,-0.82
218950202,-0.11,-0.25,-0.82
218952202,-0.11,-0.25,-0.82
218954205,-0.14,-0.31,-0.80
218956254,-0.14,-0.31,-0.80
218958268,-0.14,-0.31,-0.80
218960246,-0.14,-0.31,-0.80
218962250,-0.14,-0.31,-0.80
218964250,-0.14,-0.37,-0.95
218966340,-0.14,-0.37,-0.95
218968247,-0.14,-0.37,-0.95
218970213,-0.14,-0.37,-0.95
218972210,-0.14,-0.37,-0.95
218974210,-0.14,-0.37,-0.95
218976208,-0.14,-0.23,-1.01
218978283,-0.14,-0.23,-1.01
218980252,-0.14,-0.23,-1.01
218982203,-0.14,-0.23,-1.01
218984203,-0.14,-0.23,-1.01
218986205,-0.16,-0.30,-1.00
218988211,-0.16,-0.30,-1.00
218990296,-0.16,-0.30,-1.00
218992211,-0.16,-0.30,-1.00
218994203,-0.16,-0.30,-1.00
218996257,-0.17,-0.30,-0.91
218998291,-0.17,-0.30,-0.91
219000263,-0.17,-0.30,-0.91
219002252,-0.17,-0.30,-0.91
219004245,-0.17,-0.30,-0.91
219006276,-0.19,-0.31,-0.83
219008306,-0.19,-0.31,-0.83
219010263,-0.19,-0.31,-0.83
219012248,-0.19,-0.31,-0.83
219014206,-0.19,-0.31,-0.83
219016309,-0.20,-0.33,-0.89
219018220,-0.20,-0.33,-0.89
219020204,-0.20,-0.33,-0.89
219022211,-0.20,-0.33,-0.89
219024206,-0.20,-0.33,-0.89
219026215,-0.23,-0.29,-1.02
219028285,-0.23,-0.29,-1.02
219030222,-0.23,-0.29,-1.02
219032203,-0.23,-0.29,-1.02
219034202,-0.23,-0.29,-1.02
219036286,-0.23,-0.36,-1.11
219038277,-0.23,-0.36,-1.11
219040353,-0.23,-0.36,-1.11
219042253,-0.23,-0.36,-1.11
219044248,-0.23,-0.36,-1.11
219046293,-0.24,-0.40,-1.09
219048281,-0.24,-0.40,-1.09
219050277,-0.24,-0.40,-1.09
219052264,-0.24,-0.40,-1.09
219054243,-0.24,-0.40,-1.09
219056233,-0.23,-0.39,-1.01
219058216,-0.23,-0.39,-1.01
219060209,-0.23,-0.39,-1.01
219062265,-0.23,-0.39,-1.01
219064276,-0.23,-0.39,-1.01
219066318,-0.23,-0.39,-1.01
219068212,-0.19,-0.40,-0.98
219070203,-0.19,-0.40,-0.98
219072208,-0.19,-0.40,-0.98
219074205,-0.19,-0.40,-0.98
219036286,-0.23,-0.36,-1.11
219038277,-0.23,-0.36,-1.11
219040353,-0.23,-0.36,-1.11
219042253,-0.23,-0.36,-1.11
219044248,-0.23,-0.36,-1.11
219046293,-0.24,-0.40,-1.09
