timestamp,accX,accY,accZ
247668270,-0.06,-0.02,-0.76
247670192,-0.06,-0.02,-0.76
247672192,-0.06,-0.02,-0.76
247674190,-0.06,-0.02,-0.76
247676191,-0.05,-0.04,-0.76
247678190,-0.05,-0.04,-0.76
247680190,-0.05,-0.04,-0.76
247682191,-0.05,-0.04,-0.76
247684190,-0.05,-0.04,-0.76
247686191,-0.05,-0.04,-0.73
247688193,-0.05,-0.04,-0.73
247690193,-0.05,-0.04,-0.73
247692203,-0.05,-0.04,-0.73
247694192,-0.05,-0.04,-0.73
247696195,-0.05,-0.04,-0.72
247698193,-0.05,-0.04,-0.72
247700194,-0.05,-0.04,-0.72
247702202,-0.05,-0.04,-0.72
247704193,-0.05,-0.04,-0.72
247706195,-0.06,-0.08,-0.73
247708203,-0.06,-0.08,-0.73
247710202,-0.06,-0.08,-0.73
247712203,-0.06,-0.08,-0.73
247714192,-0.06,-0.08,-0.73
247716263,-0.07,-0.10,-0.76
247774276,-0.14,-0.17,-0.91
247776254,-0.14,-0.17,-0.91
247778245,-0.16,-0.22,-0.97
247780242,-0.16,-0.22,-0.97
247782245,-0.16,-0.22,-0.97
247784244,-0.16,-0.22,-0.97
247786243,-0.16,-0.22,-0.97
247788292,-0.18,-0.26,-1.00
247790362,-0.18,-0.26,-1.00
247792256,-0.18,-0.26,-1.00
247794212,-0.18,-0.26,-1.00
247796207,-0.18,-0.26,-1.00
247798207,-0.20,-0.27,-1.02
247800280,-0.20,-0.27,-1.02
247802240,-0.20,-0.27,-1.02
247804202,-0.20,-0.27,-1.02
247806202,-0.20,-0.27,-1.02
247808253,-0.21,-0.27,-1.04
247810207,-0.21,-0.27,-1.04
247812225,-0.21,-0.27,-1.04
247814268,-0.21,-0.27,-1.04
247816350,-0.21,-0.27,-1.04
247818248,-0.23,-0.30,-1.06
247820245,-0.23,-0.30,-1.06
247822243,-0.23,-0.30,-1.06
247824246,-0.23,-0.30,-1.06
247826246,-0.23,-0.30,-1.06
247828253,-0.24,-0.30,-1.08
247830277,-0.24,-0.30,-1.08
247832229,-0.24,-0.30,-1.08
247834204,-0.24,-0.30,-1.08
247836203,-0.24,-0.30,-1.08
247838216,-0.24,-0.30,-1.08
247840336,-0.24,-0.31,-1.10
247842244,-0.24,-0.31,-1.10
247844256,-0.24,-0.31,-1.10
247846206,-0.24,-0.31,-1.10
247848195,-0.24,-0.31,-1.10
247850202,-0.22,-0.30,-1.12
247852204,-0.22,-0.30,-1.12
247854261,-0.22,-0.30,-1.12
247856248,-0.22,-0.30,-1.12
247858246,-0.22,-0.30,-1.12
247860248,-0.20,-0.30,-1.13
247862340,-0.20,-0.30,-1.13
247864260,-0.20,-0.30,-1.13
247866350,-0.20,-0.30,-1.13
247868254,-0.20,-0.30,-1.13
247870254,-0.19,-0.29,-1.10
247872278,-0.19,-0.29,-1.10
247874228,-0.19,-0.29,-1.10
247876204,-0.19,-0.29,-1.10
247878204,-0.19,-0.29,-1.10
247880194,-0.16,-0.27,-1.05
247882195,-0.16,-0.27,-1.05
247884195,-0.16,-0.27,-1.05
247886203,-0.16,-0.27,-1.05
247888202,-0.16,-0.27,-1.05
247890193,-0.14,-0.24,-1.01
247892209,-0.14,-0.24,-1.01
247894263,-0.14,-0.24,-1.01
247896250,-0.14,-0.24,-1.01
247898244,-0.14,-0.24,-1.01
247900297,-0.13,-0.23,-0.99
247902268,-0.13,-0.23,-0.99
247904247,-0.13,-0.23,-0.99
247906244,-0.13,-0.23,-0.99
247908246,-0.13,-0.23,-0.99
247910272,-0.14,-0.18,-0.94
247912223,-0.14,-0.18,-0.94
247914204,-0.14,-0.18,-0.94
247916313,-0.14,-0.18,-0.94
247918203,-0.14,-0.18,-0.94
247920195,-0.14,-0.18,-0.94
247922195,-0.16,-0.14,-0.89
247924205,-0.16,-0.14,-0.89
247926249,-0.16,-0.14,-0.89
247928235,-0.16,-0.14,-0.89
247930210,-0.16,-0.14,-0.89
247932202,-0.20,-0.15,-0.87
247934257,-0.20,-0.15,-0.87
247936245,-0.20,-0.15,-0.87
247938242,-0.20,-0.15,-0.87
247940335,-0.20,-0.15,-0.87
247942262,-0.25,-0.17,-0.92
247944245,-0.25,-0.17,-0.92
247946239,-0.25,-0.17,-0.92
247948202,-0.25,-0.17,-0.92
247950203,-0.25,-0.17,-0.92
247952207,-0.31,-0.17,-1.07
247954204,-0.31,-0.17,-1.07
247956204,-0.31,-0.17,-1.07
247958231,-0.31,-0.17,-1.07
247960331,-0.31,-0.17,-1.07
247962239,-0.38,-0.19,-1.22
247964219,-0.38,-0.19,-1.22
247966309,-0.38,-0.19,-1.22
247968207,-0.38,-0.19,-1.22
247970194,-0.38,-0.19,-1.22
247972203,-0.40,-0.24,-1.30
247974257,-0.40,-0.24,-1.30
247976246,-0.40,-0.24,-1.30
247978249,-0.40,-0.24,-1.30
247980246,-0.40,-0.24,-1.30
247982251,-0.41,-0.30,-1.29
247984249,-0.41,-0.30,-1.29
247986205,-0.41,-0.30,-1.29
247988207,-0.41,-0.30,-1.29
247990286,-0.41,-0.30,-1.29
247992210,-0.39,-0.36,-1.22
247994206,-0.39,-0.36,-1.22
247996203,-0.39,-0.36,-1.22
247998206,-0.39,-0.36,-1.22
248000202,-0.39,-0.36,-1.22
248002210,-0.35,-0.34,-1.10
248004203,-0.35,-0.34,-1.10
248006209,-0.35,-0.34,-1.10
248008207,-0.35,-0.34,-1.10
248010207,-0.35,-0.34,-1.10
248012297,-0.35,-0.34,-1.10
248014264,-0.31,-0.30,-0.96
248016341,-0.31,-0.30,-0.96
248018250,-0.31,-0.30,-0.96
248020248,-0.31,-0.30,-0.96
248022246,-0.31,-0.30,-0.96
248024244,-0.27,-0.24,-0.82
248026262,-0.27,-0.24,-0.82
248028252,-0.27,-0.24,-0.82
248030276,-0.27,-0.24,-0.82
248032231,-0.27,-0.24,-0.82
248034202,-0.25,-0.23,-0.74
248036202,-0.25,-0.23,-0.74
248038203,-0.25,-0.23,-0.74
248040327,-0.25,-0.23,-0.74
248042265,-0.25,-0.23,-0.74
248044254,-0.24,-0.22,-0.70
248046204,-0.24,-0.22,-0.70
248048207,-0.24,-0.22,-0.70
248050202,-0.24,-0.22,-0.70
248052202,-0.24,-0.22,-0.70
248054269,-0.23,-0.19,-0.71
248056248,-0.23,-0.19,-0.71
248058243,-0.23,-0.19,-0.71
248060246,-0.23,-0.19,-0.71
248062284,-0.23,-0.19,-0.71
248064266,-0.25,-0.14,-0.75
248066345,-0.25,-0.14,-0.75
248068247,-0.25,-0.14,-0.75
248070244,-0.25,-0.14,-0.75
248072326,-0.25,-0.14,-0.75
248074228,-0.26,-0.16,-0.83
248076203,-0.26,-0.16,-0.83
248078203,-0.26,-0.16,-0.83
248080231,-0.26,-0.16,-0.83
248082250,-0.26,-0.16,-0.83
248084208,-0.27,-0.20,-0.90
248086203,-0.27,-0.20,-0.90
248088202,-0.27,-0.20,-0.90
248090297,-0.27,-0.20,-0.90
248092216,-0.27,-0.20,-0.90
248094264,-0.29,-0.17,-0.91
248096249,-0.29,-0.17,-0.91
248098246,-0.29,-0.17,-0.91
248100247,-0.29,-0.17,-0.91
248102296,-0.29,-0.17,-0.91
248104259,-0.29,-0.17,-0.91
248106247,-0.27,-0.17,-0.90
248108242,-0.27,-0.17,-0.90
248110231,-0.27,-0.17,-0.90
248112207,-0.27,-0.17,-0.90
248114212,-0.27,-0.17,-0.90
248116315,-0.26,-0.17,-0.88
248118215,-0.26,-0.17,-0.88
248120296,-0.26,-0.17,-0.88
248122222,-0.26,-0.17,-0.88
248124204,-0.26,-0.17,-0.88
248126203,-0.25,-0.14,-0.83
248128195,-0.25,-0.14,-0.83
248130202,-0.25,-0.14,-0.83
248132216,-0.25,-0.14,-0.83
248134272,-0.25,-0.14,-0.83
248136248,-0.24,-0.13,-0.80
248138244,-0.24,-0.13,-0.80
248140360,-0.24,-0.13,-0.80
248142278,-0.24,-0.13,-0.80
248144253,-0.24,-0.13,-0.80
248146245,-0.23,-0.13,-0.77
248148210,-0.23,-0.13,-0.77
248150206,-0.23,-0.13,-0.77
248152205,-0.23,-0.13,-0.77
248154202,-0.23,-0.13,-0.77
248156206,-0.23,-0.14,-0.77
248158206,-0.23,-0.14,-0.77
248160209,-0.23,-0.14,-0.77
248162225,-0.23,-0.14,-0.77
248164228,-0.23,-0.14,-0.77
248166431,-0.23,-0.16,-0.80
248168234,-0.23,-0.16,-0.80
248170206,-0.23,-0.16,-0.80
248172205,-0.23,-0.16,-0.80
248174253,-0.23,-0.16,-0.80
248176247,-0.22,-0.16,-0.83
248178243,-0.22,-0.16,-0.83
248180246,-0.22,-0.16,-0.83
248182246,-0.22,-0.16,-0.83
248184245,-0.22,-0.16,-0.83
248186209,-0.22,-0.16,-0.83
248188210,-0.22,-0.17,-0.84
248190307,-0.22,-0.17,-0.84
248192291,-0.22,-0.17,-0.84
248194231,-0.22,-0.17,-0.84
248196204,-0.22,-0.17,-0.84
248198203,-0.22,-0.18,-0.86
248200202,-0.22,-0.18,-0.86
248202205,-0.22,-0.18,-0.86
248204251,-0.22,-0.18,-0.86
248206207,-0.22,-0.18,-0.86
248208194,-0.22,-0.16,-0.86
248210204,-0.22,-0.16,-0.86
248212202,-0.22,-0.16,-0.86
248214267,-0.22,-0.16,-0.86
248216350,-0.22,-0.16,-0.86
248218248,-0.22,-0.15,-0.84
248220272,-0.22,-0.15,-0.84
248222272,-0.22,-0.15,-0.84
248224256,-0.22,-0.15,-0.84
248226245,-0.22,-0.15,-0.84
248228247,-0.21,-0.15,-0.84
248230250,-0.21,-0.15,-0.84
248232248,-0.21,-0.15,-0.84
248234285,-0.21,-0.15,-0.84
248236232,-0.21,-0.15,-0.84
248238207,-0.21,-0.13,-0.81
248240298,-0.21,-0.13,-0.81
248242250,-0.21,-0.13,-0.81
248244207,-0.21,-0.13,-0.81
248246201,-0.21,-0.13,-0.81
248248211,-0.20,-0.12,-0.79
248250256,-0.20,-0.12,-0.79
248252210,-0.20,-0.12,-0.79
248254265,-0.20,-0.12,-0.79
248256251,-0.20,-0.12,-0.79
248258245,-0.20,-0.12,-0.77
248260266,-0.20,-0.12,-0.77
248262270,-0.20,-0.12,-0.77
248264256,-0.20,-0.12,-0.77
248266351,-0.20,-0.12,-0.77
248268247,-0.20,-0.12,-0.78
248270281,-0.20,-0.12,-0.78
248272252,-0.20,-0.12,-0.78
248274205,-0.20,-0.12,-0.78
248276207,-0.20,-0.12,-0.78
248278205,-0.20,-0.12,-0.78
248280268,-0.20,-0.11,-0.79
248282234,-0.20,-0.11,-0.79
248284204,-0.20,-0.11,-0.79
248286205,-0.20,-0.11,-0.79
248288206,-0.20,-0.11,-0.79
248290318,-0.19,-0.11,-0.81
248292214,-0.19,-0.11,-0.81
248294264,-0.19,-0.11,-0.81
248296258,-0.19,-0.11,-0.81
248298249,-0.19,-0.11,-0.81
248300269,-0.19,-0.09,-0.83
248302314,-0.19,-0.09,-0.83
248304259,-0.19,-0.09,-0.83
248306245,-0.19,-0.09,-0.83
248308247,-0.19,-0.09,-0.83
248310245,-0.19,-0.07,-0.85
248312235,-0.19,-0.07,-0.85
248314280,-0.19,-0.07,-0.85
248316329,-0.19,-0.07,-0.85
248318211,-0.19,-0.07,-0.85
248320203,-0.20,-0.07,-0.85
248322234,-0.20,-0.07,-0.85
248324255,-0.20,-0.07,-0.85
248326203,-0.20,-0.07,-0.85
248328194,-0.20,-0.07,-0.85
248330201,-0.20,-0.05,-0.84
248332195,-0.20,-0.05,-0.84
248334281,-0.20,-0.05,-0.84
248336265,-0.20,-0.05,-0.84
248338248,-0.20,-0.05,-0.84
248340355,-0.21,-0.06,-0.85
248342273,-0.21,-0.06,-0.85
248344247,-0.21,-0.06,-0.85
248346246,-0.21,-0.06,-0.85
248348249,-0.21,-0.06,-0.85
248350210,-0.23,-0.07,-0.89
248352210,-0.23,-0.07,-0.89
248354206,-0.23,-0.07,-0.89
248356289,-0.23,-0.07,-0.89
248358236,-0.23,-0.07,-0.89
248360207,-0.25,-0.04,-0.95
248362224,-0.25,-0.04,-0.95
248364220,-0.25,-0.04,-0.95
248366318,-0.25,-0.04,-0.95
248368211,-0.25,-0.04,-0.95
248370205,-0.25,-0.04,-0.95
248372250,-0.27,-0.02,-1.02
248374278,-0.27,-0.02,-1.02
248376274,-0.27,-0.02,-1.02
248378247,-0.27,-0.02,-1.02
248380248,-0.27,-0.02,-1.02
248382284,-0.28,-0.02,-1.10
248384268,-0.28,-0.02,-1.10
248386248,-0.28,-0.02,-1.10
248388247,-0.28,-0.02,-1.10
248390373,-0.28,-0.02,-1.10
248392289,-0.30,0.02,-1.11
248394230,-0.30,0.02,-1.11
248396202,-0.30,0.02,-1.11
248398203,-0.30,0.02,-1.11
248400237,-0.30,0.02,-1.11
248402253,-0.31,0.05,-1.08
248404204,-0.31,0.05,-1.08
248406193,-0.31,0.05,-1.08
248408203,-0.31,0.05,-1.08
248410204,-0.31,0.05,-1.08
248412204,-0.33,0.02,-1.08
248414267,-0.33,0.02,-1.08
248416348,-0.33,0.02,-1.08
248418245,-0.33,0.02,-1.08
248420274,-0.33,0.02,-1.08
248422274,-0.34,0.01,-1.11
248424257,-0.34,0.01,-1.11
248426246,-0.34,0.01,-1.11
248428244,-0.34,0.01,-1.11
248430242,-0.34,0.01,-1.11
248432267,-0.36,0.01,-1.14
248434243,-0.36,0.01,-1.14
248436241,-0.36,0.01,-1.14
248438210,-0.36,0.01,-1.14
248440313,-0.36,0.01,-1.14
248442276,-0.37,-0.01,-1.23
248444258,-0.37,-0.01,-1.23
248446206,-0.37,-0.01,-1.23
248448205,-0.37,-0.01,-1.23
248450194,-0.37,-0.01,-1.23
248452194,-0.37,-0.01,-1.23
248454261,-0.38,0.00,-1.25
248456252,-0.38,0.00,-1.25
248458246,-0.38,0.00,-1.25
248460247,-0.38,0.00,-1.25
248462252,-0.38,0.00,-1.25
248464287,-0.37,0.03,-1.24
248466384,-0.37,0.03,-1.24
248468250,-0.37,0.03,-1.24
248470244,-0.37,0.03,-1.24
248472205,-0.37,0.03,-1.24
248474205,-0.37,0.04,-1.20
248476204,-0.37,0.04,-1.20
248478204,-0.37,0.04,-1.20
248480206,-0.37,0.04,-1.20
248482204,-0.37,0.04,-1.20
248484208,-0.36,0.07,-1.16
248486207,-0.36,0.07,-1.16
248488205,-0.36,0.07,-1.16
248490279,-0.36,0.07,-1.16
248492241,-0.36,0.07,-1.16
248494316,-0.35,0.10,-1.14
248496277,-0.35,0.10,-1.14
248498253,-0.35,0.10,-1.14
248500253,-0.35,0.10,-1.14
248502247,-0.35,0.10,-1.14
248504244,-0.34,0.11,-1.13
248506247,-0.34,0.11,-1.13
248508249,-0.34,0.11,-1.13
248510219,-0.34,0.11,-1.13
248512273,-0.34,0.11,-1.13
248514230,-0.34,0.11,-1.14
248516314,-0.34,0.11,-1.14
248518204,-0.34,0.11,-1.14
248520194,-0.34,0.11,-1.14
248522234,-0.34,0.11,-1.14
248524256,-0.35,0.10,-1.16
248526203,-0.35,0.10,-1.16
248528195,-0.35,0.10,-1.16
248530194,-0.35,0.10,-1.16
248532193,-0.35,0.10,-1.16
248534203,-0.37,0.06,-1.15
248536267,-0.37,0.06,-1.15
248538266,-0.37,0.06,-1.15
248540351,-0.37,0.06,-1.15
248542268,-0.37,0.06,-1.15
248544290,-0.37,0.06,-1.15
248546272,-0.38,0.02,-1.14
248548247,-0.38,0.02,-1.14
248550250,-0.38,0.02,-1.14
248552259,-0.38,0.02,-1.14
248554288,-0.38,0.02,-1.14
248556255,-0.39,-0.02,-1.16
248558205,-0.39,-0.02,-1.16
248560208,-0.39,-0.02,-1.16
248562230,-0.39,-0.02,-1.16
248564272,-0.39,-0.02,-1.16
248566329,-0.38,-0.02,-1.18
248568203,-0.38,-0.02,-1.18
248570204,-0.38,-0.02,-1.18
248572205,-0.38,-0.02,-1.18
248574205,-0.38,-0.02,-1.18
248576258,-0.36,-0.03,-1.19
248578250,-0.36,-0.03,-1.19
248580246,-0.36,-0.03,-1.19
248582247,-0.36,-0.03,-1.19
248584251,-0.36,-0.03,-1.19
248586243,-0.34,-0.04,-1.15
248588211,-0.34,-0.04,-1.15
248590278,-0.34,-0.04,-1.15
248592218,-0.34,-0.04,-1.15
248594304,-0.34,-0.04,-1.15
248596231,-0.30,-0.02,-1.06
248598202,-0.30,-0.02,-1.06
248600194,-0.30,-0.02,-1.06
248602206,-0.30,-0.02,-1.06
248604206,-0.30,-0.02,-1.06
248606250,-0.27,0.00,-0.96
248608202,-0.27,0.00,-0.96
248610194,-0.27,0.00,-0.96
248612203,-0.27,0.00,-0.96
248614206,-0.27,0.00,-0.96
248616370,-0.24,0.02,-0.91
248618248,-0.24,0.02,-0.91
248620246,-0.24,0.02,-0.91
248622272,-0.24,0.02,-0.91
248624271,-0.24,0.02,-0.91
248626255,-0.21,0.05,-0.88
248628249,-0.21,0.05,-0.88
248630245,-0.21,0.05,-0.88
248632244,-0.21,0.05,-0.88
248634206,-0.21,0.05,-0.88
248636206,-0.21,0.05,-0.88
248638204,-0.20,0.08,-0.85
248640307,-0.20,0.08,-0.85
248642242,-0.20,0.08,-0.85
248644219,-0.20,0.08,-0.85
248646282,-0.20,0.08,-0.85
248648237,-0.20,0.09,-0.82
248650202,-0.20,0.09,-0.82
248652203,-0.20,0.09,-0.82
248654202,-0.20,0.09,-0.82
248656259,-0.20,0.09,-0.82
248658249,-0.20,0.06,-0.80
248660249,-0.20,0.06,-0.80
248662255,-0.20,0.06,-0.80
248664252,-0.20,0.06,-0.80
248666345,-0.20,0.06,-0.80
248668204,-0.20,0.01,-0.81
248670204,-0.20,0.01,-0.81
248672204,-0.20,0.01,-0.81
248674276,-0.20,0.01,-0.81
248676255,-0.20,0.01,-0.81
248678205,-0.20,-0.00,-0.83
248680208,-0.20,-0.00,-0.83
248682203,-0.20,-0.00,-0.83
248684204,-0.20,-0.00,-0.83
248686258,-0.20,-0.00,-0.83
248688206,-0.20,-0.04,-0.85
248690294,-0.20,-0.04,-0.85
248692214,-0.20,-0.04,-0.85
248694205,-0.20,-0.04,-0.85
248696268,-0.20,-0.04,-0.85
248698251,-0.20,-0.04,-0.87
248700246,-0.20,-0.04,-0.87
248702272,-0.20,-0.04,-0.87
248704280,-0.20,-0.04,-0.87
248706253,-0.20,-0.04,-0.87
248708245,-0.18,-0.02,-0.85
248710244,-0.18,-0.02,-0.85
248712284,-0.18,-0.02,-0.85
248714241,-0.18,-0.02,-0.85
248716312,-0.18,-0.02,-0.85
248718204,-0.18,-0.02,-0.85
248720204,-0.15,-0.03,-0.82
248722202,-0.15,-0.03,-0.82
248724195,-0.15,-0.03,-0.82
248726195,-0.15,-0.03,-0.82
248728211,-0.15,-0.03,-0.82
248730257,-0.14,-0.05,-0.76
248732213,-0.14,-0.05,-0.76
248734206,-0.14,-0.05,-0.76
248736271,-0.14,-0.05,-0.76
248738248,-0.14,-0.05,-0.76
248740350,-0.11,-0.06,-0.71
248742275,-0.11,-0.06,-0.71
248744274,-0.11,-0.06,-0.71
248746263,-0.11,-0.06,-0.71
248748265,-0.11,-0.06,-0.71
248750255,-0.09,-0.05,-0.68
248752244,-0.09,-0.05,-0.68
248754232,-0.09,-0.05,-0.68
248756257,-0.09,-0.05,-0.68
248758258,-0.09,-0.05,-0.68
248760210,-0.08,-0.04,-0.66
248762220,-0.08,-0.04,-0.66
248764224,-0.08,-0.04,-0.66
248766355,-0.08,-0.04,-0.66
248768206,-0.08,-0.04,-0.66
248770205,-0.07,-0.06,-0.69
248772204,-0.07,-0.06,-0.69
248774207,-0.07,-0.06,-0.69
248776274,-0.07,-0.06,-0.69
248778253,-0.07,-0.06,-0.69
248780245,-0.07,-0.05,-0.70
248782247,-0.07,-0.05,-0.70
248784245,-0.07,-0.05,-0.70
248786245,-0.07,-0.05,-0.70
248788251,-0.07,-0.05,-0.70
248790312,-0.07,-0.05,-0.72
248792215,-0.07,-0.05,-0.72
248794206,-0.07,-0.05,-0.72
248796203,-0.07,-0.05,-0.72
248798204,-0.07,-0.05,-0.72
248800258,-0.07,-0.06,-0.74
248802268,-0.07,-0.06,-0.74
248804208,-0.07,-0.06,-0.74
248806208,-0.07,-0.06,-0.74
248808205,-0.07,-0.06,-0.74
248810205,-0.07,-0.06,-0.74
248812236,-0.08,-0.09,-0.76
248814254,-0.08,-0.09,-0.76
248816369,-0.08,-0.09,-0.76
248818253,-0.08,-0.09,-0.76
248820245,-0.08,-0.09,-0.76
248822258,-0.08,-0.10,-0.75
248824284,-0.08,-0.10,-0.75
248826261,-0.08,-0.10,-0.75
248828247,-0.08,-0.10,-0.75
248830244,-0.08,-0.10,-0.75
248832271,-0.07,-0.11,-0.73
248834253,-0.07,-0.11,-0.73
248836206,-0.07,-0.11,-0.73
248838204,-0.07,-0.11,-0.73
248840316,-0.07,-0.11,-0.73
248842245,-0.08,-0.13,-0.71
248844205,-0.08,-0.13,-0.71
248846261,-0.08,-0.13,-0.71
248848256,-0.08,-0.13,-0.71
248850202,-0.08,-0.13,-0.71
248852201,-0.07,-0.14,-0.71
248854191,-0.07,-0.14,-0.71
248856268,-0.07,-0.14,-0.71
248858249,-0.07,-0.14,-0.71
248860244,-0.07,-0.14,-0.71
248862254,-0.07,-0.12,-0.70
248864253,-0.07,-0.12,-0.70
248866350,-0.07,-0.12,-0.70
248868245,-0.07,-0.12,-0.70
248870203,-0.07,-0.12,-0.70
248872202,-0.07,-0.13,-0.70
248874205,-0.07,-0.13,-0.70
248876216,-0.07,-0.13,-0.70
248878285,-0.07,-0.13,-0.70
248880231,-0.07,-0.13,-0.70
248882205,-0.07,-0.12,-0.69
248884202,-0.07,-0.12,-0.69
248886194,-0.07,-0.12,-0.69
248888229,-0.07,-0.12,-0.69
248890352,-0.07,-0.12,-0.69
248892211,-0.09,-0.16,-0.72
248894205,-0.09,-0.16,-0.72
248896269,-0.09,-0.16,-0.72
248898250,-0.09,-0.16,-0.72
248900246,-0.09,-0.16,-0.72
248902247,-0.09,-0.16,-0.72
248904286,-0.11,-0.21,-0.77
248906273,-0.11,-0.21,-0.77
248908251,-0.11,-0.21,-0.77
248910250,-0.11,-0.21,-0.77
248912256,-0.11,-0.21,-0.77
248914276,-0.12,-0.20,-0.81
248916328,-0.12,-0.20,-0.81
248918201,-0.12,-0.20,-0.81
248920194,-0.12,-0.20,-0.81
248922202,-0.12,-0.20,-0.81
248924203,-0.14,-0.21,-0.83
248926226,-0.14,-0.21,-0.83
248928254,-0.14,-0.21,-0.83
248930203,-0.14,-0.21,-0.83
248932204,-0.14,-0.21,-0.83
248934195,-0.15,-0.25,-0.85
248936264,-0.15,-0.25,-0.85
248938250,-0.15,-0.25,-0.85
248940348,-0.15,-0.25,-0.85
248942271,-0.15,-0.25,-0.85
248944244,-0.17,-0.27,-0.86
248946244,-0.17,-0.27,-0.86
248948272,-0.17,-0.27,-0.86
248950247,-0.17,-0.27,-0.86
248952210,-0.17,-0.27,-0.86
248954207,-0.18,-0.29,-0.88
248956206,-0.18,-0.29,-0.88
248958222,-0.18,-0.29,-0.88
248960207,-0.18,-0.29,-0.88
248962224,-0.18,-0.29,-0.88
248964217,-0.19,-0.30,-0.93
248966304,-0.19,-0.30,-0.93
248968206,-0.19,-0.30,-0.93
248970202,-0.19,-0.30,-0.93
248972224,-0.19,-0.30,-0.93
248974222,-0.21,-0.31,-0.98
248976298,-0.21,-0.31,-0.98
248978271,-0.21,-0.31,-0.98
248980244,-0.21,-0.31,-0.98
248982244,-0.21,-0.31,-0.98
248984243,-0.21,-0.32,-1.00
248986247,-0.21,-0.32,-1.00
248988255,-0.21,-0.32,-1.00
248990358,-0.21,-0.32,-1.00
248992253,-0.21,-0.32,-1.00
248994206,-0.21,-0.32,-1.00
248996205,-0.22,-0.31,-1.01
248998202,-0.22,-0.31,-1.01
249000210,-0.22,-0.31,-1.01
249002273,-0.22,-0.31,-1.01
249004245,-0.22,-0.31,-1.01
249006205,-0.22,-0.30,-1.03
249008203,-0.22,-0.30,-1.03
249010215,-0.22,-0.30,-1.03
249012256,-0.22,-0.30,-1.03
249014207,-0.22,-0.30,-1.03
249016311,-0.23,-0.30,-1.05
249018272,-0.23,-0.30,-1.05
249020255,-0.23,-0.30,-1.05
249022242,-0.23,-0.30,-1.05
249024243,-0.23,-0.30,-1.05
249026290,-0.22,-0.27,-1.05
249028270,-0.22,-0.27,-1.05
249030245,-0.22,-0.27,-1.05
249032244,-0.22,-0.27,-1.05
249034243,-0.22,-0.27,-1.05
249036203,-0.23,-0.28,-1.05
249038224,-0.23,-0.28,-1.05
249040369,-0.23,-0.28,-1.05
249042252,-0.23,-0.28,-1.05
249044205,-0.23,-0.28,-1.05
249046203,-0.25,-0.31,-1.07
249048204,-0.25,-0.31,-1.07
249050243,-0.25,-0.31,-1.07
249052256,-0.25,-0.31,-1.07
249054205,-0.25,-0.31,-1.07
249056202,-0.27,-0.33,-1.07
249058264,-0.27,-0.33,-1.07
249060253,-0.27,-0.33,-1.07
249062253,-0.27,-0.33,-1.07
249064252,-0.27,-0.33,-1.07
249066348,-0.30,-0.32,-1.11
249068257,-0.30,-0.32,-1.11
249070275,-0.30,-0.32,-1.11
249072258,-0.30,-0.32,-1.11
249074245,-0.30,-0.32,-1.11
249076204,-0.30,-0.32,-1.11
249078204,-0.34,-0.30,-1.17
249080204,-0.34,-0.30,-1.17
249082205,-0.34,-0.30,-1.17
249084204,-0.34,-0.30,-1.17
249086204,-0.34,-0.30,-1.17
249088205,-0.37,-0.28,-1.22
249090300,-0.37,-0.28,-1.22
249092216,-0.37,-0.28,-1.22
249094195,-0.37,-0.28,-1.22
249096259,-0.37,-0.28,-1.22
249098259,-0.41,-0.26,-1.24
249100252,-0.41,-0.26,-1.24
249102245,-0.41,-0.26,-1.24
249104244,-0.41,-0.26,-1.24
249106243,-0.41,-0.26,-1.24
249108244,-0.45,-0.27,-1.25
249110244,-0.45,-0.27,-1.25
249112242,-0.45,-0.27,-1.25
249114273,-0.45,-0.27,-1.25
249116345,-0.45,-0.27,-1.25
249118205,-0.45,-0.31,-1.25
249120204,-0.45,-0.31,-1.25
249122202,-0.45,-0.31,-1.25
249124202,-0.45,-0.31,-1.25
249126244,-0.45,-0.31,-1.25
249128257,-0.44,-0.33,-1.22
249130203,-0.44,-0.33,-1.22
249132202,-0.44,-0.33,-1.22
249134205,-0.44,-0.33,-1.22
249136202,-0.44,-0.33,-1.22
249138203,-0.40,-0.32,-1.12
249140356,-0.40,-0.32,-1.12
249142285,-0.40,-0.32,-1.12
249144246,-0.40,-0.32,-1.12
249146244,-0.40,-0.32,-1.12
249148263,-0.37,-0.31,-1.02
249150312,-0.37,-0.31,-1.02
249152267,-0.37,-0.31,-1.02
249154270,-0.37,-0.31,-1.02
249156246,-0.37,-0.31,-1.02
249158255,-0.34,-0.25,-0.90
249160211,-0.34,-0.25,-0.90
249162224,-0.34,-0.25,-0.90
249164217,-0.34,-0.25,-0.90
249166313,-0.34,-0.25,-0.90
249168225,-0.34,-0.25,-0.90
249170276,-0.30,-0.20,-0.79
249172230,-0.30,-0.20,-0.79
249174202,-0.30,-0.20,-0.79
249176206,-0.30,-0.20,-0.79
249178264,-0.30,-0.20,-0.79
249180317,-0.28,-0.22,-0.75
249182259,-0.28,-0.22,-0.75
249184253,-0.28,-0.22,-0.75
249186254,-0.28,-0.22,-0.75
249188276,-0.28,-0.22,-0.75
249190353,-0.27,-0.22,-0.73
249192250,-0.27,-0.22,-0.73
249194246,-0.27,-0.22,-0.73
249196242,-0.27,-0.22,-0.73
249198253,-0.27,-0.22,-0.73
249200255,-0.26,-0.20,-0.75
249202210,-0.26,-0.20,-0.75
249204206,-0.26,-0.20,-0.75
249206204,-0.26,-0.20,-0.75
249208215,-0.26,-0.20,-0.75
249210254,-0.27,-0.19,-0.79
249212203,-0.27,-0.19,-0.79
249214202,-0.27,-0.19,-0.79
249216309,-0.27,-0.19,-0.79
249218203,-0.27,-0.19,-0.79
249220271,-0.27,-0.16,-0.83
249222251,-0.27,-0.16,-0.83
249224243,-0.27,-0.16,-0.83
249226245,-0.27,-0.16,-0.83
249228245,-0.27,-0.16,-0.83
249230272,-0.28,-0.15,-0.84
249232261,-0.28,-0.15,-0.84
249234252,-0.28,-0.15,-0.84
249236207,-0.28,-0.15,-0.84
249238204,-0.28,-0.15,-0.84
249240301,-0.29,-0.14,-0.84
249242247,-0.29,-0.14,-0.84
249244203,-0.29,-0.14,-0.84
249246201,-0.29,-0.14,-0.84
249248195,-0.29,-0.14,-0.84
249250195,-0.30,-0.11,-0.87
249252195,-0.30,-0.11,-0.87
249254194,-0.30,-0.11,-0.87
249256273,-0.30,-0.11,-0.87
249258275,-0.30,-0.11,-0.87
249260260,-0.30,-0.11,-0.87
249262256,-0.30,-0.12,-0.91
249264254,-0.30,-0.12,-0.91
249266374,-0.30,-0.12,-0.91
249268258,-0.30,-0.12,-0.91
249270247,-0.30,-0.12,-0.91
249272243,-0.30,-0.14,-0.95
249274249,-0.30,-0.14,-0.95
249276207,-0.30,-0.14,-0.95
249278284,-0.30,-0.14,-0.95
249280242,-0.30,-0.14,-0.95
249282203,-0.30,-0.16,-0.95
249284202,-0.30,-0.16,-0.95
249286202,-0.30,-0.16,-0.95
249288258,-0.30,-0.16,-0.95
249290318,-0.30,-0.16,-0.95
249292212,-0.31,-0.18,-0.93
249294205,-0.31,-0.18,-0.93
249296202,-0.31,-0.18,-0.93
249298202,-0.31,-0.18,-0.93
249300262,-0.31,-0.18,-0.93
249302253,-0.30,-0.20,-0.94
249304252,-0.30,-0.20,-0.94
249306250,-0.30,-0.20,-0.94
249308292,-0.30,-0.20,-0.94
249310263,-0.30,-0.20,-0.94
249312246,-0.29,-0.19,-0.93
249314249,-0.29,-0.19,-0.93
249316380,-0.29,-0.19,-0.93
249318253,-0.29,-0.19,-0.93
249320204,-0.29,-0.19,-0.93
249322205,-0.28,-0.17,-0.91
249324202,-0.28,-0.17,-0.91
249326202,-0.28,-0.17,-0.91
249328195,-0.28,-0.17,-0.91
249330203,-0.28,-0.17,-0.91
249332205,-0.27,-0.17,-0.90
249334203,-0.27,-0.17,-0.90
249336204,-0.27,-0.17,-0.90
249338206,-0.27,-0.17,-0.90
249340348,-0.27,-0.17,-0.90
249342269,-0.27,-0.15,-0.88
249344352,-0.27,-0.15,-0.88
249346267,-0.27,-0.15,-0.88
249348243,-0.27,-0.15,-0.88
249350245,-0.27,-0.15,-0.88
249352246,-0.27,-0.15,-0.88
249354244,-0.25,-0.12,-0.85
249356207,-0.25,-0.12,-0.85
249358250,-0.25,-0.12,-0.85
249360319,-0.25,-0.12,-0.85
249362234,-0.25,-0.12,-0.85
249364216,-0.24,-0.12,-0.83
249366317,-0.24,-0.12,-0.83
249368203,-0.24,-0.12,-0.83
249370259,-0.24,-0.12,-0.83
249372229,-0.24,-0.12,-0.83
249374206,-0.23,-0.11,-0.82
249376203,-0.23,-0.11,-0.82
249378204,-0.23,-0.11,-0.82
249380269,-0.23,-0.11,-0.82
249382252,-0.23,-0.11,-0.82
249384251,-0.22,-0.09,-0.80
249386255,-0.22,-0.09,-0.80
249388252,-0.22,-0.09,-0.80
249390356,-0.22,-0.09,-0.80
249392251,-0.22,-0.09,-0.80
249394212,-0.21,-0.07,-0.79
249396215,-0.21,-0.07,-0.79
249398210,-0.21,-0.07,-0.79
249400235,-0.21,-0.07,-0.79
249402303,-0.21,-0.07,-0.79
249404231,-0.20,-0.09,-0.77
249406206,-0.20,-0.09,-0.77
249408208,-0.20,-0.09,-0.77
249410204,-0.20,-0.09,-0.77
249412206,-0.20,-0.09,-0.77
249414254,-0.19,-0.08,-0.74
249416337,-0.19,-0.08,-0.74
249418205,-0.19,-0.08,-0.74
249420275,-0.19,-0.08,-0.74
249422252,-0.19,-0.08,-0.74
249424248,-0.18,-0.07,-0.69
249426254,-0.18,-0.07,-0.69
249428293,-0.18,-0.07,-0.69
249430264,-0.18,-0.07,-0.69
249432247,-0.18,-0.07,-0.69
249434251,-0.18,-0.07,-0.69
249436242,-0.16,-0.08,-0.67
249438219,-0.16,-0.08,-0.67
249440369,-0.16,-0.08,-0.67
249442252,-0.16,-0.08,-0.67
249444208,-0.16,-0.08,-0.67
249446206,-0.17,-0.07,-0.67
249448263,-0.17,-0.07,-0.67
249450212,-0.17,-0.07,-0.67
249452213,-0.17,-0.07,-0.67
249454210,-0.17,-0.07,-0.67
249456218,-0.17,-0.09,-0.70
249458223,-0.17,-0.09,-0.70
249460279,-0.17,-0.09,-0.70
249462271,-0.17,-0.09,-0.70
249464257,-0.17,-0.09,-0.70
249466351,-0.18,-0.09,-0.74
249468277,-0.18,-0.09,-0.74
249470273,-0.18,-0.09,-0.74
249472260,-0.18,-0.09,-0.74
249474253,-0.18,-0.09,-0.74
249476249,-0.18,-0.08,-0.75
249478249,-0.18,-0.08,-0.75
249480219,-0.18,-0.08,-0.75
249482279,-0.18,-0.08,-0.75
249484227,-0.18,-0.08,-0.75
249486208,-0.18,-0.09,-0.76
249488208,-0.18,-0.09,-0.76
249490305,-0.18,-0.09,-0.76
249492218,-0.18,-0.09,-0.76
249494267,-0.18,-0.09,-0.76
249496215,-0.21,-0.13,-0.80
249498210,-0.21,-0.13,-0.80
249500272,-0.21,-0.13,-0.80
249502254,-0.21,-0.13,-0.80
249504252,-0.21,-0.13,-0.80
249506280,-0.21,-0.12,-0.84
249508278,-0.21,-0.12,-0.84
249510252,-0.21,-0.12,-0.84
249512250,-0.21,-0.12,-0.84
249514244,-0.21,-0.12,-0.84
249516323,-0.24,-0.09,-0.90
249518370,-0.24,-0.09,-0.90
249520233,-0.24,-0.09,-0.90
249522207,-0.24,-0.09,-0.90
249524208,-0.24,-0.09,-0.90
249526208,-0.24,-0.09,-0.90
249528205,-0.25,-0.05,-0.96
249530205,-0.25,-0.05,-0.96
249532204,-0.25,-0.05,-0.96
249534210,-0.25,-0.05,-0.96
249536208,-0.25,-0.05,-0.96
249538209,-0.25,-0.04,-1.00
249540361,-0.25,-0.04,-1.00
249542277,-0.25,-0.04,-1.00
249544253,-0.25,-0.04,-1.00
249546256,-0.25,-0.04,-1.00
249548250,-0.25,-0.02,-1.02
249550247,-0.25,-0.02,-1.02
249552250,-0.25,-0.02,-1.02
249554286,-0.25,-0.02,-1.02
249556242,-0.25,-0.02,-1.02
249558206,-0.27,-0.03,-1.01
249560208,-0.27,-0.03,-1.01
249562227,-0.27,-0.03,-1.01
249564223,-0.27,-0.03,-1.01
249566317,-0.27,-0.03,-1.01
249568261,-0.28,-0.04,-1.04
249570215,-0.28,-0.04,-1.04
249572210,-0.28,-0.04,-1.04
249574224,-0.28,-0.04,-1.04
249576214,-0.28,-0.04,-1.04
249578210,-0.29,-0.05,-1.11
249580287,-0.29,-0.05,-1.11
249582374,-0.29,-0.05,-1.11
249584269,-0.29,-0.05,-1.11
249586252,-0.29,-0.05,-1.11
249588265,-0.31,-0.04,-1.16
249590364,-0.31,-0.04,-1.16
249592266,-0.31,-0.04,-1.16
249594250,-0.31,-0.04,-1.16
249596250,-0.31,-0.04,-1.16
249598249,-0.32,-0.02,-1.18
249600272,-0.32,-0.02,-1.18
249602231,-0.32,-0.02,-1.18
249604206,-0.32,-0.02,-1.18
249606205,-0.32,-0.02,-1.18
249608250,-0.32,-0.04,-1.16
249610257,-0.32,-0.04,-1.16
249612207,-0.32,-0.04,-1.16
249614206,-0.32,-0.04,-1.16
249616316,-0.32,-0.04,-1.16
249618211,-0.32,-0.04,-1.16
249620265,-0.32,-0.04,-1.10
249622252,-0.32,-0.04,-1.10
249624248,-0.32,-0.04,-1.10
249626248,-0.32,-0.04,-1.10
249628254,-0.32,-0.04,-1.10
249630249,-0.33,-0.02,-1.03
249632343,-0.33,-0.02,-1.03
249634265,-0.33,-0.02,-1.03
249636248,-0.33,-0.02,-1.03
249638218,-0.33,-0.02,-1.03
249640310,-0.34,-0.04,-1.02
249642298,-0.34,-0.04,-1.02
249644246,-0.34,-0.04,-1.02
249646211,-0.34,-0.04,-1.02
249648206,-0.34,-0.04,-1.02
249650257,-0.37,-0.03,-1.06
249652240,-0.37,-0.03,-1.06
249654206,-0.37,-0.03,-1.06
249656206,-0.37,-0.03,-1.06
249658208,-0.37,-0.03,-1.06
249660261,-0.41,-0.01,-1.14
249662255,-0.41,-0.01,-1.14
249664253,-0.41,-0.01,-1.14
249666365,-0.41,-0.01,-1.14
249668277,-0.41,-0.01,-1.14
249670252,-0.44,0.02,-1.22
249672250,-0.44,0.02,-1.22
249674251,-0.44,0.02,-1.22
249676212,-0.44,0.02,-1.22
249678208,-0.44,0.02,-1.22
249680208,-0.48,0.00,-1.28
249682212,-0.48,0.00,-1.28
249684209,-0.48,0.00,-1.28
249686216,-0.48,0.00,-1.28
249688210,-0.48,0.00,-1.28
249690315,-0.50,-0.05,-1.34
249692342,-0.50,-0.05,-1.34
249694243,-0.50,-0.05,-1.34
249696210,-0.50,-0.05,-1.34
249698206,-0.50,-0.05,-1.34
249700255,-0.50,-0.05,-1.34
249702257,-0.52,-0.10,-1.36
249704276,-0.52,-0.10,-1.36
249706258,-0.52,-0.10,-1.36
249708251,-0.52,-0.10,-1.36
249710258,-0.52,-0.10,-1.36
249712278,-0.50,-0.16,-1.38
249714259,-0.50,-0.16,-1.38
249716350,-0.50,-0.16,-1.38
249718204,-0.50,-0.16,-1.38
249720211,-0.50,-0.16,-1.38
249722211,-0.47,-0.18,-1.33
249724215,-0.47,-0.18,-1.33
249726215,-0.47,-0.18,-1.33
249728213,-0.47,-0.18,-1.33
249730267,-0.47,-0.18,-1.33
249732256,-0.41,-0.14,-1.18
249734217,-0.41,-0.14,-1.18
249736208,-0.41,-0.14,-1.18
249738218,-0.41,-0.14,-1.18
249740365,-0.41,-0.14,-1.18
249742271,-0.36,-0.12,-1.02
249744255,-0.36,-0.12,-1.02
249746250,-0.36,-0.12,-1.02
249748250,-0.36,-0.12,-1.02
249750253,-0.36,-0.12,-1.02
249752307,-0.30,-0.10,-0.91
249754262,-0.30,-0.10,-0.91
249756251,-0.30,-0.10,-0.91
249758250,-0.30,-0.10,-0.91
249760212,-0.30,-0.10,-0.91
249762227,-0.28,-0.05,-0.87
249764220,-0.28,-0.05,-0.87
249766315,-0.28,-0.05,-0.87
249768252,-0.28,-0.05,-0.87
249770212,-0.28,-0.05,-0.87
249772207,-0.25,-0.00,-0.87
249774210,-0.25,-0.00,-0.87
249776273,-0.25,-0.00,-0.87
249778276,-0.25,-0.00,-0.87
249780269,-0.25,-0.00,-0.87
249782254,-0.24,0.04,-0.86
249784251,-0.24,0.04,-0.86
249786248,-0.24,0.04,-0.86
249788276,-0.24,0.04,-0.86
249790362,-0.24,0.04,-0.86
249792251,-0.24,0.04,-0.86
249794248,-0.23,0.04,-0.83
249796213,-0.23,0.04,-0.83
249798239,-0.23,0.04,-0.83
249800289,-0.23,0.04,-0.83
249802229,-0.23,0.04,-0.83
249804202,-0.23,0.00,-0.82
249806204,-0.23,0.00,-0.82
249808252,-0.23,0.00,-0.82
249810206,-0.23,0.00,-0.82
249812224,-0.23,0.00,-0.82
249814203,-0.24,-0.05,-0.85
249816309,-0.24,-0.05,-0.85
249818202,-0.24,-0.05,-0.85
249820277,-0.24,-0.05,-0.85
249822248,-0.24,-0.05,-0.85
249824253,-0.24,-0.09,-0.91
249826248,-0.24,-0.09,-0.91
249828285,-0.24,-0.09,-0.91
249830273,-0.24,-0.09,-0.91
249832247,-0.24,-0.09,-0.91
249834246,-0.24,-0.09,-0.95
249836234,-0.24,-0.09,-0.95
249838203,-0.24,-0.09,-0.95
249840301,-0.24,-0.09,-0.95
249842245,-0.24,-0.09,-0.95
249844202,-0.23,-0.09,-0.95
249846202,-0.23,-0.09,-0.95
249848195,-0.23,-0.09,-0.95
249850202,-0.23,-0.09,-0.95
249852203,-0.23,-0.09,-0.95
249854202,-0.20,-0.09,-0.90
249856202,-0.20,-0.09,-0.90
249858195,-0.20,-0.09,-0.90
249860255,-0.20,-0.09,-0.90
249862256,-0.20,-0.09,-0.90
249864251,-0.19,-0.10,-0.83
249866336,-0.19,-0.10,-0.83
249868252,-0.19,-0.10,-0.83
249870245,-0.19,-0.10,-0.83
249872206,-0.19,-0.10,-0.83
249874204,-0.17,-0.12,-0.79
249876204,-0.17,-0.12,-0.79
249878210,-0.17,-0.12,-0.79
249880367,-0.17,-0.12,-0.79
249882234,-0.17,-0.12,-0.79
249884205,-0.17,-0.12,-0.79
249886205,-0.15,-0.11,-0.77
249888205,-0.15,-0.11,-0.77
249890304,-0.15,-0.11,-0.77
249892217,-0.15,-0.11,-0.77
249894242,-0.15,-0.11,-0.77
249896250,-0.14,-0.10,-0.79
249898205,-0.14,-0.10,-0.79
249900266,-0.14,-0.10,-0.79
249902251,-0.14,-0.10,-0.79
249904252,-0.14,-0.10,-0.79
249906261,-0.14,-0.09,-0.81
249908292,-0.14,-0.09,-0.81
249910272,-0.14,-0.09,-0.81
249912252,-0.14,-0.09,-0.81
249914242,-0.14,-0.09,-0.81
249916341,-0.14,-0.10,-0.83
249918205,-0.14,-0.10,-0.83
249920203,-0.14,-0.10,-0.83
249922210,-0.14,-0.10,-0.83
249924205,-0.14,-0.10,-0.83
249926215,-0.15,-0.11,-0.86
249928286,-0.15,-0.11,-0.86
249930223,-0.15,-0.11,-0.86
249932203,-0.15,-0.11,-0.86
249934202,-0.15,-0.11,-0.86
249936215,-0.15,-0.11,-0.89
249938256,-0.15,-0.11,-0.89
249940363,-0.15,-0.11,-0.89
249942279,-0.15,-0.11,-0.89
249944248,-0.15,-0.11,-0.89
249946243,-0.14,-0.11,-0.92
249948254,-0.14,-0.11,-0.92
249950271,-0.14,-0.11,-0.92
249952263,-0.14,-0.11,-0.92
249954246,-0.14,-0.11,-0.92
249956246,-0.14,-0.11,-0.91
249958232,-0.14,-0.11,-0.91
249960305,-0.14,-0.11,-0.91
249962233,-0.14,-0.11,-0.91
249964217,-0.14,-0.11,-0.91
249966316,-0.13,-0.10,-0.86
249968218,-0.13,-0.10,-0.86
249970256,-0.13,-0.10,-0.86
249972239,-0.13,-0.10,-0.86
249974206,-0.13,-0.10,-0.86
249976203,-0.13,-0.10,-0.86
249978202,-0.11,-0.11,-0.79
249980273,-0.11,-0.11,-0.79
249982250,-0.11,-0.11,-0.79
249984246,-0.11,-0.11,-0.79
249986245,-0.11,-0.11,-0.79
249988243,-0.09,-0.12,-0.75
249990341,-0.09,-0.12,-0.75
249992250,-0.09,-0.12,-0.75
249994213,-0.09,-0.12,-0.75
249996205,-0.09,-0.12,-0.75
249998218,-0.08,-0.11,-0.72
250000324,-0.08,-0.11,-0.72
250002236,-0.08,-0.11,-0.72
250004205,-0.08,-0.11,-0.72
250006202,-0.08,-0.11,-0.72
250008202,-0.07,-0.11,-0.73
250010247,-0.07,-0.11,-0.73
250012245,-0.07,-0.11,-0.73
250014206,-0.07,-0.11,-0.73
250016311,-0.07,-0.11,-0.73
250018202,-0.05,-0.10,-0.72
250020270,-0.05,-0.10,-0.72
250022249,-0.05,-0.10,-0.72
250024245,-0.05,-0.10,-0.72
250026249,-0.05,-0.10,-0.72
250028245,-0.04,-0.09,-0.68
250030243,-0.04,-0.09,-0.68
250032242,-0.04,-0.09,-0.68
250034204,-0.04,-0.09,-0.68
250036203,-0.04,-0.09,-0.68
250038206,-0.03,-0.09,-0.64
250040307,-0.03,-0.09,-0.64
250042251,-0.03,-0.09,-0.64
250044324,-0.03,-0.09,-0.64
250046231,-0.03,-0.09,-0.64
250048206,-0.02,-0.09,-0.64
250050202,-0.02,-0.09,-0.64
250052206,-0.02,-0.09,-0.64
250054208,-0.02,-0.09,-0.64
250056251,-0.02,-0.09,-0.64
250058202,-0.02,-0.09,-0.64
250060268,-0.02,-0.08,-0.62
250062252,-0.02,-0.08,-0.62
250064254,-0.02,-0.08,-0.62
250066364,-0.02,-0.08,-0.62
250068313,-0.02,-0.08,-0.62
250070260,-0.02,-0.10,-0.63
250072246,-0.02,-0.10,-0.63
250074246,-0.02,-0.10,-0.63
250076264,-0.02,-0.10,-0.63
250078215,-0.02,-0.10,-0.63
250080205,-0.02,-0.13,-0.61
250082210,-0.02,-0.13,-0.61
250084205,-0.02,-0.13,-0.61
250086213,-0.02,-0.13,-0.61
250088211,-0.02,-0.13,-0.61
250090353,-0.03,-0.16,-0.59
250092275,-0.03,-0.16,-0.59
250094227,-0.03,-0.16,-0.59
250096205,-0.03,-0.16,-0.59
250098195,-0.03,-0.16,-0.59
250100261,-0.06,-0.19,-0.58
250102258,-0.06,-0.19,-0.58
250104280,-0.06,-0.19,-0.58
250106263,-0.06,-0.19,-0.58
250108249,-0.06,-0.19,-0.58
250110253,-0.08,-0.26,-0.64
250112268,-0.08,-0.26,-0.64
250114257,-0.08,-0.26,-0.64
250116345,-0.08,-0.26,-0.64
250118212,-0.08,-0.26,-0.64
250120272,-0.09,-0.28,-0.70
250122253,-0.09,-0.28,-0.70
250124209,-0.09,-0.28,-0.70
250126210,-0.09,-0.28,-0.70
250128205,-0.09,-0.28,-0.70
250130192,-0.11,-0.24,-0.73
250132203,-0.11,-0.24,-0.73
250134205,-0.11,-0.24,-0.73
250136207,-0.11,-0.24,-0.73
250138203,-0.11,-0.24,-0.73
250140359,-0.13,-0.23,-0.75
250142270,-0.13,-0.23,-0.75
250144245,-0.13,-0.23,-0.75
250146246,-0.13,-0.23,-0.75
250148252,-0.13,-0.23,-0.75
250150324,-0.13,-0.23,-0.75
250152258,-0.14,-0.25,-0.78
250154245,-0.14,-0.25,-0.78
250156205,-0.14,-0.25,-0.78
250158205,-0.14,-0.25,-0.78
250160255,-0.14,-0.25,-0.78
250162257,-0.18,-0.27,-0.80
250164219,-0.18,-0.27,-0.80
250166314,-0.18,-0.27,-0.80
250168206,-0.18,-0.27,-0.80
250170206,-0.18,-0.27,-0.80
250172201,-0.22,-0.30,-0.86
250174202,-0.22,-0.30,-0.86
250176238,-0.22,-0.30,-0.86
250178243,-0.22,-0.30,-0.86
250180264,-0.22,-0.30,-0.86
250182247,-0.22,-0.32,-0.94
250184244,-0.22,-0.32,-0.94
250186244,-0.22,-0.32,-0.94
250188274,-0.22,-0.32,-0.94
250190364,-0.22,-0.32,-0.94
250192274,-0.21,-0.38,-1.00
250194244,-0.21,-0.38,-1.00
250196207,-0.21,-0.38,-1.00
250198205,-0.21,-0.38,-1.00
250200209,-0.21,-0.38,-1.00
250202205,-0.20,-0.41,-1.00
250204281,-0.20,-0.41,-1.00
250206230,-0.20,-0.41,-1.00
250208203,-0.20,-0.41,-1.00
250210236,-0.20,-0.41,-1.00
250212256,-0.21,-0.43,-0.96
250214210,-0.21,-0.43,-0.96
250216314,-0.21,-0.43,-0.96
250218211,-0.21,-0.43,-0.96
250220272,-0.21,-0.43,-0.96
250222250,-0.23,-0.44,-0.91
250224248,-0.23,-0.44,-0.91
250226243,-0.23,-0.44,-0.91
250228243,-0.23,-0.44,-0.91
250230275,-0.23,-0.44,-0.91
250232274,-0.24,-0.32,-0.89
250234252,-0.24,-0.32,-0.89
250236206,-0.24,-0.32,-0.89
250238204,-0.24,-0.32,-0.89
250240312,-0.24,-0.32,-0.89
250242329,-0.24,-0.32,-0.89
250244249,-0.26,-0.17,-0.94
250246202,-0.26,-0.17,-0.94
250248210,-0.26,-0.17,-0.94
250250254,-0.26,-0.17,-0.94
250252203,-0.26,-0.17,-0.94
250254195,-0.28,-0.09,-1.02
250256203,-0.28,-0.09,-1.02
250258205,-0.28,-0.09,-1.02
250260267,-0.28,-0.09,-1.02
250262255,-0.28,-0.09,-1.02
250264252,-0.32,-0.08,-1.09
250266344,-0.32,-0.08,-1.09
250268292,-0.32,-0.08,-1.09
250270267,-0.32,-0.08,-1.09
250272246,-0.32,-0.08,-1.09
250274245,-0.34,-0.20,-1.11
250276249,-0.34,-0.20,-1.11
250278207,-0.34,-0.20,-1.11
250280207,-0.34,-0.20,-1.11
250282212,-0.34,-0.20,-1.11
250284206,-0.36,-0.29,-1.08
250286205,-0.36,-0.29,-1.08
250288213,-0.36,-0.29,-1.08
250290318,-0.36,-0.29,-1.08
250292213,-0.36,-0.29,-1.08
250294204,-0.38,-0.38,-1.04
250296205,-0.38,-0.38,-1.04
250298221,-0.38,-0.38,-1.04
250300315,-0.38,-0.38,-1.04
250302264,-0.38,-0.38,-1.04
250304247,-0.38,-0.40,-0.99
250306243,-0.38,-0.40,-0.99
250308260,-0.38,-0.40,-0.99
250310273,-0.38,-0.40,-0.99
250312251,-0.38,-0.40,-0.99
250314244,-0.39,-0.37,-1.00
250316343,-0.39,-0.37,-1.00
250318260,-0.39,-0.37,-1.00
250320255,-0.39,-0.37,-1.00
250322210,-0.39,-0.37,-1.00
250324203,-0.39,-0.37,-1.00
250326203,-0.39,-0.33,-1.08
250328202,-0.39,-0.33,-1.08
250330206,-0.39,-0.33,-1.08
250332205,-0.39,-0.33,-1.08
250334203,-0.39,-0.33,-1.08
250336204,-0.39,-0.23,-1.12
250338256,-0.39,-0.23,-1.12
250340332,-0.39,-0.23,-1.12
250342275,-0.39,-0.23,-1.12
250344283,-0.39,-0.23,-1.12
250346248,-0.36,-0.21,-1.11
250348277,-0.36,-0.21,-1.11
250350265,-0.36,-0.21,-1.11
250352252,-0.36,-0.21,-1.11
250354243,-0.36,-0.21,-1.11
250356252,-0.34,-0.22,-0.99
250358294,-0.34,-0.22,-0.99
250360266,-0.34,-0.22,-0.99
250362223,-0.34,-0.22,-0.99
250364220,-0.34,-0.22,-0.99
250366361,-0.34,-0.27,-0.84
250368313,-0.34,-0.27,-0.84
250370226,-0.34,-0.27,-0.84
250372208,-0.34,-0.27,-0.84
250374207,-0.34,-0.27,-0.84
250376205,-0.32,-0.32,-0.74
250378212,-0.32,-0.32,-0.74
250380206,-0.32,-0.32,-0.74
250382266,-0.32,-0.32,-0.74
250384267,-0.32,-0.32,-0.74
250386246,-0.32,-0.30,-0.73
250388251,-0.32,-0.30,-0.73
250390345,-0.32,-0.30,-0.73
250392272,-0.32,-0.30,-0.73
250394321,-0.32,-0.30,-0.73
250396268,-0.31,-0.26,-0.79
250398251,-0.31,-0.26,-0.79
250400206,-0.31,-0.26,-0.79
250402205,-0.31,-0.26,-0.79
250404271,-0.31,-0.26,-0.79
250406245,-0.30,-0.24,-0.88
250408212,-0.30,-0.24,-0.88
250410205,-0.30,-0.24,-0.88
250412255,-0.30,-0.24,-0.88
250414212,-0.30,-0.24,-0.88
250416313,-0.30,-0.24,-0.88
250418217,-0.30,-0.23,-0.93
250420205,-0.30,-0.23,-0.93
250382266,-0.32,-0.32,-0.74
250384267,-0.32,-0.32,-0.74
250386246,-0.32,-0.30,-0.73
250388251,-0.32,-0.30,-0.73
250390345,-0.32,-0.30,-0.73
250392272,-0.32,-0.30,-0.73
250394321,-0.32,-0.30,-0.73
250396268,-0.31,-0.26,-0.79
250398251,-0.31,-0.26,-0.79
250400206,-0.31,-0.26,-0.79
250402205,-0.31,-0.26,-0.79
250404271,-0.31,-0.26,-0.79
250406245,-0.30,-0.24,-0.88
250408212,-0.30,-0.24,-0.88
250410205,-0.30,-0.24,-0.88
250412255,-0.30,-0.24,-0.88
250414212,-0.30,-0.24,-0.88
250416313,-0.30,-0.24,-0.88
250418217,-0.30,-0.23,-0.93
