timestamp,accX,accY,accZ
26992710,0.07,-0.02,0.91
26994647,0.07,-0.02,0.91
26996646,0.07,-0.02,0.91
26998646,0.07,-0.02,0.91
27000645,-0.10,-0.03,0.93
27002649,-0.10,-0.03,0.93
27004643,-0.10,-0.03,0.93
27006645,-0.10,-0.03,0.93
27008647,-0.10,-0.03,0.93
27010645,-0.11,-0.02,0.93
27012756,-0.11,-0.02,0.93
27014653,-0.11,-0.02,0.93
27016647,-0.11,-0.02,0.93
27018644,-0.11,-0.02,0.93
27020644,-0.12,-0.05,0.84
27022646,-0.12,-0.05,0.84
27024646,-0.12,-0.05,0.84
27026645,-0.12,-0.05,0.84
27028645,-0.12,-0.05,0.84
27030647,-0.10,-0.02,0.94
27032699,-0.10,-0.02,0.94
27034703,-0.10,-0.02,0.94
27036674,-0.10,-0.02,0.94
27038783,-0.10,-0.02,0.94
27040721,-0.10,-0.04,0.92
27042671,-0.10,-0.04,0.92
27044677,-0.10,-0.04,0.92
27046676,-0.10,-0.04,0.92
27048674,-0.10,-0.04,0.92
27050648,-0.08,-0.06,0.91
27052644,-0.08,-0.06,0.91
27054646,-0.08,-0.06,0.91
27056646,-0.08,-0.06,0.91
27058655,-0.08,-0.06,0.91
27060642,-0.09,-0.09,0.92
27062755,-0.09,-0.09,0.92
27064656,-0.09,-0.09,0.92
27066658,-0.09,-0.09,0.92
27068649,-0.09,-0.09,0.92
27070645,-0.09,-0.08,0.93
27072682,-0.09,-0.08,0.93
27074697,-0.09,-0.08,0.93
27076728,-0.09,-0.08,0.93
27078722,-0.09,-0.08,0.93
27080686,0.10,-0.13,0.90
27082675,0.10,-0.13,0.90
27084673,0.10,-0.13,0.90
27086674,0.10,-0.13,0.90
27088782,0.10,-0.13,0.90
27090647,-0.09,-0.07,0.98
27092647,-0.09,-0.07,0.98
27094647,-0.09,-0.07,0.98
27096644,-0.09,-0.07,0.98
27098645,-0.09,-0.07,0.98
27100644,-0.16,0.00,0.94
27102644,-0.16,0.00,0.94
27104644,-0.16,0.00,0.94
27106642,-0.16,0.00,0.94
27108643,-0.16,0.00,0.94
27110643,-0.09,-0.03,0.90
27112762,-0.09,-0.03,0.90
27114681,-0.09,-0.03,0.90
27116678,-0.09,-0.03,0.90
27118671,-0.09,-0.03,0.90
27120678,-0.12,-0.01,0.91
27122680,-0.12,-0.01,0.91
27124665,-0.12,-0.01,0.91
27126646,-0.12,-0.01,0.91
27128645,-0.12,-0.01,0.91
27130736,-0.17,-0.00,0.93
27132689,-0.17,-0.00,0.93
27134650,-0.17,-0.00,0.93
27136646,-0.17,-0.00,0.93
27138749,-0.17,-0.00,0.93
27140646,-0.16,0.00,0.93
27142684,-0.16,0.00,0.93
27144647,-0.16,0.00,0.93
27146645,-0.16,0.00,0.93
27148657,-0.16,0.00,0.93
27150645,0.00,-0.01,0.97
27152688,0.00,-0.01,0.97
27154673,0.00,-0.01,0.97
27156678,0.00,-0.01,0.97
27158673,0.00,-0.01,0.97
27160669,0.00,-0.01,0.97
27162775,-0.15,-0.04,0.95
27164672,-0.15,-0.04,0.95
27166646,-0.15,-0.04,0.95
27168647,-0.15,-0.04,0.95
27170647,-0.15,-0.04,0.95
27172647,-0.18,-0.01,0.96
27174646,-0.18,-0.01,0.96
27176644,-0.18,-0.01,0.96
27178678,-0.18,-0.01,0.96
27180646,-0.18,-0.01,0.96
27182644,-0.07,0.00,0.97
27184643,-0.07,0.00,0.97
27186798,-0.07,0.00,0.97
27188795,-0.07,0.00,0.97
27190647,-0.07,0.00,0.97
27192689,-0.09,-0.01,0.99
27194674,-0.09,-0.01,0.99
27196673,-0.09,-0.01,0.99
27198669,-0.09,-0.01,0.99
27200671,-0.09,-0.01,0.99
27202677,-0.11,-0.02,0.99
27204663,-0.11,-0.02,0.99
27206648,-0.11,-0.02,0.99
27208645,-0.11,-0.02,0.99
27210648,-0.11,-0.02,0.99
27212741,-0.11,-0.05,0.99
27214656,-0.11,-0.05,0.99
27216648,-0.11,-0.05,0.99
27218647,-0.11,-0.05,0.99
27220647,-0.11,-0.05,0.99
27222646,-0.12,-0.06,1.03
27224647,-0.12,-0.06,1.03
27226647,-0.12,-0.06,1.03
27228647,-0.12,-0.06,1.03
27230651,-0.12,-0.06,1.03
27232716,-0.12,-0.05,1.01
27234733,-0.12,-0.05,1.01
27236713,-0.12,-0.05,1.01
27238790,-0.12,-0.05,1.01
27240677,-0.12,-0.05,1.01
27242674,-0.12,-0.05,0.95
27244679,-0.12,-0.05,0.95
27246676,-0.12,-0.05,0.95
27248674,-0.12,-0.05,0.95
27250646,-0.12,-0.05,0.95
27252647,-0.13,-0.05,0.90
27254647,-0.13,-0.05,0.90
27256649,-0.13,-0.05,0.90
27258656,-0.13,-0.05,0.90
27260647,-0.13,-0.05,0.90
27262761,-0.15,-0.02,0.87
27264694,-0.15,-0.02,0.87
27266646,-0.15,-0.02,0.87
27268642,-0.15,-0.02,0.87
27270647,-0.15,-0.02,0.87
27272685,-0.15,0.00,0.86
27274672,-0.15,0.00,0.86
27276674,-0.15,0.00,0.86
27278715,-0.15,0.00,0.86
27280674,-0.15,0.00,0.86
27282674,-0.16,0.01,0.87
27284666,-0.16,0.01,0.87
27286647,-0.16,0.01,0.87
27288752,-0.16,0.01,0.87
27290644,-0.16,0.01,0.87
27292642,-0.17,0.01,0.91
27294644,-0.17,0.01,0.91
27296644,-0.17,0.01,0.91
27298644,-0.17,0.01,0.91
27300644,-0.17,0.01,0.91
27302643,-0.16,0.01,0.92
27304643,-0.16,0.01,0.92
27306646,-0.16,0.01,0.92
27308643,-0.16,0.01,0.92
27310717,-0.16,0.01,0.92
27312780,-0.16,0.00,0.93
27314688,-0.16,0.00,0.93
27316675,-0.16,0.00,0.93
27318674,-0.16,0.00,0.93
27320672,-0.16,0.00,0.93
27322674,-0.16,-0.00,0.94
27324670,-0.16,-0.00,0.94
27326665,-0.16,-0.00,0.94
27328649,-0.16,-0.00,0.94
27330647,-0.16,-0.00,0.94
27332644,-0.16,-0.00,0.94
27334644,-0.16,-0.01,0.95
27336642,-0.16,-0.01,0.95
27338739,-0.16,-0.01,0.95
27340647,-0.16,-0.01,0.95
27342647,-0.16,-0.01,0.95
27344646,-0.16,0.00,0.96
27346700,-0.16,0.00,0.96
27348666,-0.16,0.00,0.96
27350643,-0.16,0.00,0.96
27352642,-0.16,0.00,0.96
27354678,-0.21,0.17,0.94
27356681,-0.21,0.17,0.94
27358729,-0.21,0.17,0.94
27360715,-0.21,0.17,0.94
27362783,-0.21,0.17,0.94
27364674,-0.23,0.04,0.93
27366672,-0.23,0.04,0.93
27368673,-0.23,0.04,0.93
27370666,-0.23,0.04,0.93
27372647,-0.23,0.04,0.93
27374644,-0.25,0.05,0.97
27376648,-0.25,0.05,0.97
27378668,-0.25,0.05,0.97
27380645,-0.25,0.05,0.97
27382645,-0.25,0.05,0.97
27384645,-0.23,0.07,1.05
27386644,-0.23,0.07,1.05
27388741,-0.23,0.07,1.05
27390643,-0.23,0.07,1.05
27392644,-0.23,0.07,1.05
27394686,-0.25,0.07,1.07
27396673,-0.25,0.07,1.07
27398679,-0.25,0.07,1.07
27400674,-0.25,0.07,1.07
27402722,-0.25,0.07,1.07
27404717,-0.24,0.00,1.03
27406683,-0.24,0.00,1.03
27408678,-0.24,0.00,1.03
27410666,-0.24,0.00,1.03
27412764,-0.24,0.00,1.03
27414657,-0.17,-0.04,0.97
27416660,-0.17,-0.04,0.97
27418645,-0.17,-0.04,0.97
27420646,-0.17,-0.04,0.97
27422644,-0.17,-0.04,0.97
27424643,-0.16,0.05,1.00
27426646,-0.16,0.05,1.00
27428645,-0.16,0.05,1.00
27430645,-0.16,0.05,1.00
27432645,-0.16,0.05,1.00
27434684,-0.23,0.12,1.01
27436672,-0.23,0.12,1.01
27438778,-0.23,0.12,1.01
27440674,-0.23,0.12,1.01
27442675,-0.23,0.12,1.01
27444674,-0.19,0.14,1.01
27446667,-0.19,0.14,1.01
27448690,-0.19,0.14,1.01
27450737,-0.19,0.14,1.01
27452693,-0.19,0.14,1.01
27454642,-0.16,0.08,1.04
27456646,-0.16,0.08,1.04
27458658,-0.16,0.08,1.04
27460657,-0.16,0.08,1.04
27462764,-0.16,0.08,1.04
27464656,-0.13,0.04,1.07
27466646,-0.13,0.04,1.07
27468647,-0.13,0.04,1.07
27470645,-0.13,0.04,1.07
27472648,-0.13,0.04,1.07
27474684,-0.15,-0.03,0.97
27476676,-0.15,-0.03,0.97
27478708,-0.15,-0.03,0.97
27480680,-0.15,-0.03,0.97
27482683,-0.15,-0.03,0.97
27484675,-0.16,-0.03,0.96
27486676,-0.16,-0.03,0.96
27488778,-0.16,-0.03,0.96
27490645,-0.16,-0.03,0.96
27492645,-0.16,-0.03,0.96
27494645,-0.16,-0.03,0.96
27496806,-0.14,0.04,0.94
27498683,-0.14,0.04,0.94
27500646,-0.14,0.04,0.94
27502646,-0.14,0.04,0.94
27504646,-0.14,0.04,0.94
27506645,-0.19,0.04,0.92
27508647,-0.19,0.04,0.92
27510647,-0.19,0.04,0.92
27512759,-0.19,0.04,0.92
27514689,-0.19,0.04,0.92
27516677,-0.15,0.05,0.89
27518674,-0.15,0.05,0.89
27520755,-0.15,0.05,0.89
27522702,-0.15,0.05,0.89
27524682,-0.15,0.05,0.89
27526676,-0.13,0.12,0.88
27528673,-0.13,0.12,0.88
27530662,-0.13,0.12,0.88
27532648,-0.13,0.12,0.88
27534644,-0.13,0.12,0.88
27536642,-0.15,0.15,0.90
27538754,-0.15,0.15,0.90
27540645,-0.15,0.15,0.90
27542714,-0.15,0.15,0.90
27544694,-0.15,0.15,0.90
27546645,-0.12,0.20,0.94
27548655,-0.12,0.20,0.94
27550652,-0.12,0.20,0.94
27552686,-0.12,0.20,0.94
27554696,-0.12,0.20,0.94
27556675,-0.09,0.21,0.98
27558676,-0.09,0.21,0.98
27560677,-0.09,0.21,0.98
27562784,-0.09,0.21,0.98
27564684,-0.09,0.21,0.98
27566663,-0.06,0.21,1.05
27568648,-0.06,0.21,1.05
27570647,-0.06,0.21,1.05
27572643,-0.06,0.21,1.05
27574643,-0.06,0.21,1.05
27576646,-0.08,0.20,1.06
27578674,-0.08,0.20,1.06
27580648,-0.08,0.20,1.06
27582643,-0.08,0.20,1.06
27584644,-0.08,0.20,1.06
27586642,-0.12,0.20,1.07
27588848,-0.12,0.20,1.07
27590706,-0.12,0.20,1.07
27592647,-0.12,0.20,1.07
27594686,-0.12,0.20,1.07
27596674,-0.08,0.18,1.04
27598676,-0.08,0.18,1.04
27600680,-0.08,0.18,1.04
27602674,-0.08,0.18,1.04
27604678,-0.08,0.18,1.04
27606667,-0.13,0.27,0.86
27608645,-0.13,0.27,0.86
27610644,-0.13,0.27,0.86
27612754,-0.13,0.27,0.86
27614655,-0.13,0.27,0.86
27616646,-0.13,0.23,0.75
27618647,-0.13,0.23,0.75
27620641,-0.13,0.23,0.75
27622643,-0.13,0.23,0.75
27624642,-0.13,0.23,0.75
27626646,-0.11,0.14,0.75
27628646,-0.11,0.14,0.75
27630642,-0.11,0.14,0.75
27632645,-0.11,0.14,0.75
27634688,-0.11,0.14,0.75
27636730,-0.09,0.15,0.80
27638828,-0.09,0.15,0.80
27640673,-0.09,0.15,0.80
27642672,-0.09,0.15,0.80
27644673,-0.09,0.15,0.80
27646674,-0.09,0.21,0.81
27648680,-0.09,0.21,0.81
27650665,-0.09,0.21,0.81
27652648,-0.09,0.21,0.81
27654691,-0.09,0.21,0.81
27656652,-0.11,0.31,0.85
27658657,-0.11,0.31,0.85
27660647,-0.11,0.31,0.85
27662755,-0.11,0.31,0.85
27664653,-0.11,0.31,0.85
27666645,-0.11,0.31,0.85
27668649,-0.09,0.33,0.86
27670643,-0.09,0.33,0.86
27672647,-0.09,0.33,0.86
27674685,-0.09,0.33,0.86
27676673,-0.09,0.33,0.86
27678712,-0.11,0.31,0.86
27680700,-0.11,0.31,0.86
27682736,-0.11,0.31,0.86
27684719,-0.11,0.31,0.86
27686675,-0.11,0.31,0.86
27688790,-0.13,0.23,0.89
27690675,-0.13,0.23,0.89
27692647,-0.13,0.23,0.89
27694649,-0.13,0.23,0.89
27696646,-0.13,0.23,0.89
27698643,-0.12,0.18,0.90
27700646,-0.12,0.18,0.90
27702645,-0.12,0.18,0.90
27704645,-0.12,0.18,0.90
27706647,-0.12,0.18,0.90
27708647,-0.10,0.17,0.93
27710646,-0.10,0.17,0.93
27712742,-0.10,0.17,0.93
27714692,-0.10,0.17,0.93
27716682,-0.10,0.17,0.93
27718677,-0.18,0.16,0.96
27720680,-0.18,0.16,0.96
27722690,-0.18,0.16,0.96
27724680,-0.18,0.16,0.96
27726664,-0.18,0.16,0.96
27728723,-0.19,0.14,0.99
27730696,-0.19,0.14,0.99
27732660,-0.19,0.14,0.99
27734647,-0.19,0.14,0.99
27736646,-0.19,0.14,0.99
27738752,-0.15,0.11,0.96
27740645,-0.15,0.11,0.96
27742646,-0.15,0.11,0.96
27744644,-0.15,0.11,0.96
27746643,-0.15,0.11,0.96
27748654,-0.17,0.11,0.93
27750642,-0.17,0.11,0.93
27752647,-0.17,0.11,0.93
27754685,-0.17,0.11,0.93
27756717,-0.17,0.11,0.93
27758678,-0.14,0.14,0.88
27760675,-0.14,0.14,0.88
27762778,-0.14,0.14,0.88
27764677,-0.14,0.14,0.88
27766673,-0.14,0.14,0.88
27768668,-0.14,0.15,0.82
27770645,-0.14,0.15,0.82
27772645,-0.14,0.15,0.82
27774757,-0.14,0.15,0.82
27776687,-0.14,0.15,0.82
27778673,-0.21,0.10,0.82
27780647,-0.21,0.10,0.82
27782646,-0.21,0.10,0.82
27784646,-0.21,0.10,0.82
27786647,-0.21,0.10,0.82
27788758,-0.30,0.02,0.81
27790644,-0.30,0.02,0.81
27792643,-0.30,0.02,0.81
27794687,-0.30,0.02,0.81
27796677,-0.30,0.02,0.81
27798672,-0.33,-0.05,0.81
27800677,-0.33,-0.05,0.81
27802672,-0.33,-0.05,0.81
27804674,-0.33,-0.05,0.81
27806667,-0.33,-0.05,0.81
27808644,-0.30,-0.04,0.82
27810647,-0.30,-0.04,0.82
27812743,-0.30,-0.04,0.82
27814654,-0.30,-0.04,0.82
27816648,-0.30,-0.04,0.82
27818646,-0.28,-0.01,0.86
27820647,-0.28,-0.01,0.86
27822647,-0.28,-0.01,0.86
27824647,-0.28,-0.01,0.86
27826804,-0.28,-0.01,0.86
27828678,-0.28,0.05,0.94
27830646,-0.28,0.05,0.94
27832644,-0.28,0.05,0.94
27834692,-0.28,0.05,0.94
27836672,-0.28,0.05,0.94
27838787,-0.29,0.12,0.98
27840672,-0.29,0.12,0.98
27842676,-0.29,0.12,0.98
27844673,-0.29,0.12,0.98
27846669,-0.29,0.12,0.98
27848657,-0.29,0.12,0.98
27850647,-0.30,0.18,1.00
27852644,-0.30,0.18,1.00
27854647,-0.30,0.18,1.00
27856645,-0.30,0.18,1.00
27858659,-0.30,0.18,1.00
27860647,-0.27,0.24,1.00
27862748,-0.27,0.24,1.00
27864655,-0.27,0.24,1.00
27866645,-0.27,0.24,1.00
27868689,-0.27,0.24,1.00
27870707,-0.24,0.27,0.98
27872657,-0.24,0.27,0.98
27874687,-0.24,0.27,0.98
27876676,-0.24,0.27,0.98
27878710,-0.24,0.27,0.98
27880675,-0.22,0.26,0.98
27882718,-0.22,0.26,0.98
27884712,-0.22,0.26,0.98
27886674,-0.22,0.26,0.98
27888782,-0.22,0.26,0.98
27890673,-0.24,0.14,0.94
27892671,-0.24,0.14,0.94
27894649,-0.24,0.14,0.94
27896646,-0.24,0.14,0.94
27898647,-0.24,0.14,0.94
27900645,-0.27,0.01,0.90
27902646,-0.27,0.01,0.90
27904646,-0.27,0.01,0.90
27906643,-0.27,0.01,0.90
27908643,-0.27,0.01,0.90
27910647,-0.29,-0.10,0.86
27912744,-0.29,-0.10,0.86
27914681,-0.29,-0.10,0.86
27916675,-0.29,-0.10,0.86
27918679,-0.29,-0.10,0.86
27920676,-0.33,-0.16,0.80
27922673,-0.33,-0.16,0.80
27924675,-0.33,-0.16,0.80
27926668,-0.33,-0.16,0.80
27928730,-0.33,-0.16,0.80
27930689,-0.33,-0.12,0.76
27932645,-0.33,-0.12,0.76
27934642,-0.33,-0.12,0.76
27936645,-0.33,-0.12,0.76
27938754,-0.33,-0.12,0.76
27940644,-0.34,-0.03,0.74
27942644,-0.34,-0.03,0.74
27944645,-0.34,-0.03,0.74
27946648,-0.34,-0.03,0.74
27948660,-0.34,-0.03,0.74
27950645,-0.35,0.02,0.73
27952645,-0.35,0.02,0.73
27954683,-0.35,0.02,0.73
27956678,-0.35,0.02,0.73
27958680,-0.35,0.02,0.73
27960684,-0.39,0.04,0.74
27962775,-0.39,0.04,0.74
27964677,-0.39,0.04,0.74
27966674,-0.39,0.04,0.74
27968673,-0.39,0.04,0.74
27970649,-0.38,0.07,0.74
27972661,-0.38,0.07,0.74
27974785,-0.38,0.07,0.74
27976681,-0.38,0.07,0.74
27978674,-0.38,0.07,0.74
27980661,-0.39,0.09,0.76
27982653,-0.39,0.09,0.76
27984641,-0.39,0.09,0.76
27986640,-0.39,0.09,0.76
27988753,-0.39,0.09,0.76
27990637,-0.37,0.05,0.78
27992633,-0.37,0.05,0.78
27994680,-0.37,0.05,0.78
27996666,-0.37,0.05,0.78
27998665,-0.37,0.05,0.78
28000667,-0.37,0.05,0.78
28002665,-0.35,0.00,0.82
28004666,-0.35,0.00,0.82
28006663,-0.35,0.00,0.82
28008637,-0.35,0.00,0.82
28010637,-0.35,0.00,0.82
28012734,-0.34,-0.11,0.82
28014644,-0.34,-0.11,0.82
28016638,-0.34,-0.11,0.82
28018639,-0.34,-0.11,0.82
28020727,-0.34,-0.11,0.82
28022682,-0.37,-0.23,0.81
28024636,-0.37,-0.23,0.81
28026636,-0.37,-0.23,0.81
28028633,-0.37,-0.23,0.81
28030637,-0.37,-0.23,0.81
28032637,-0.41,-0.29,0.77
28034677,-0.41,-0.29,0.77
28036668,-0.41,-0.29,0.77
28038782,-0.41,-0.29,0.77
28040664,-0.41,-0.29,0.77
28042669,-0.43,-0.32,0.74
28044667,-0.43,-0.32,0.74
28046663,-0.43,-0.32,0.74
28048644,-0.43,-0.32,0.74
28050642,-0.43,-0.32,0.74
28052634,-0.48,-0.31,0.74
28054634,-0.48,-0.31,0.74
28056635,-0.48,-0.31,0.74
28058650,-0.48,-0.31,0.74
28060636,-0.48,-0.31,0.74
28062756,-0.50,-0.27,0.74
28064691,-0.50,-0.27,0.74
28066637,-0.50,-0.27,0.74
28068636,-0.50,-0.27,0.74
28070637,-0.50,-0.27,0.74
28072635,-0.45,-0.22,0.73
28074671,-0.45,-0.22,0.73
28076665,-0.45,-0.22,0.73
28078711,-0.45,-0.22,0.73
28080712,-0.45,-0.22,0.73
28082702,-0.42,-0.18,0.73
28084668,-0.42,-0.18,0.73
28086664,-0.42,-0.18,0.73
28088781,-0.42,-0.18,0.73
28090667,-0.42,-0.18,0.73
28092638,-0.39,-0.11,0.74
28094639,-0.39,-0.11,0.74
28096638,-0.39,-0.11,0.74
28098639,-0.39,-0.11,0.74
28100636,-0.39,-0.11,0.74
28102637,-0.36,-0.03,0.76
28104637,-0.36,-0.03,0.76
28106636,-0.36,-0.03,0.76
28108637,-0.36,-0.03,0.76
28110633,-0.36,-0.03,0.76
28112652,-0.35,0.03,0.77
28114671,-0.35,0.03,0.77
28116671,-0.35,0.03,0.77
28118663,-0.35,0.03,0.77
28120662,-0.35,0.03,0.77
28122662,-0.33,0.11,0.79
28124670,-0.33,0.11,0.79
28126772,-0.33,0.11,0.79
28128699,-0.33,0.11,0.79
28130636,-0.33,0.11,0.79
28132638,-0.33,0.17,0.80
28134630,-0.33,0.17,0.80
28136638,-0.33,0.17,0.80
28138652,-0.33,0.17,0.80
28140636,-0.33,0.17,0.80
28142638,-0.34,0.14,0.84
28144636,-0.34,0.14,0.84
28146639,-0.34,0.14,0.84
28148647,-0.34,0.14,0.84
28150633,-0.34,0.14,0.84
28152633,-0.38,0.10,0.88
28154672,-0.38,0.10,0.88
28156664,-0.38,0.10,0.88
28158666,-0.38,0.10,0.88
28160664,-0.38,0.10,0.88
28162680,-0.34,0.06,0.91
28164674,-0.34,0.06,0.91
28166700,-0.34,0.06,0.91
28168639,-0.34,0.06,0.91
28170636,-0.34,0.06,0.91
28172768,-0.31,0.06,0.95
28174678,-0.31,0.06,0.95
28176638,-0.31,0.06,0.95
28178664,-0.31,0.06,0.95
28180639,-0.31,0.06,0.95
28182637,-0.31,0.06,0.95
28184636,-0.31,0.04,0.96
28186636,-0.31,0.04,0.96
28188651,-0.31,0.04,0.96
28190636,-0.31,0.04,0.96
28192636,-0.31,0.04,0.96
28194684,-0.29,0.02,0.96
28196666,-0.29,0.02,0.96
28198665,-0.29,0.02,0.96
28200666,-0.29,0.02,0.96
28202663,-0.29,0.02,0.96
28204666,-0.29,0.00,0.96
28206668,-0.29,0.00,0.96
28208637,-0.29,0.00,0.96
28210636,-0.29,0.00,0.96
28212657,-0.29,0.00,0.96
28214637,-0.14,0.96,1.48
28216632,-0.14,0.96,1.48
28218661,-0.14,0.96,1.48
28220710,-0.14,0.96,1.48
28222667,-0.14,0.96,1.48
28224637,-0.21,0.45,1.27
28226633,-0.21,0.45,1.27
28228637,-0.21,0.45,1.27
28230637,-0.21,0.45,1.27
28232649,-0.21,0.45,1.27
28234679,-0.16,0.09,1.13
28236662,-0.16,0.09,1.13
28238693,-0.16,0.09,1.13
28240665,-0.16,0.09,1.13
28242663,-0.16,0.09,1.13
28244666,-0.27,0.04,0.96
28246668,-0.27,0.04,0.96
28248650,-0.27,0.04,0.96
28250637,-0.27,0.04,0.96
28252636,-0.27,0.04,0.96
28254637,-0.32,0.06,0.81
28256634,-0.32,0.06,0.81
28258645,-0.32,0.06,0.81
28260638,-0.32,0.06,0.81
28262655,-0.32,0.06,0.81
28264638,-0.29,0.17,0.77
28266638,-0.29,0.17,0.77
28268686,-0.29,0.17,0.77
28270637,-0.29,0.17,0.77
28272633,-0.29,0.17,0.77
28274678,-0.29,0.28,0.81
28276668,-0.29,0.28,0.81
28278717,-0.29,0.28,0.81
28280728,-0.29,0.28,0.81
28282700,-0.29,0.28,0.81
28284664,-0.28,0.30,0.85
28286664,-0.28,0.30,0.85
28288695,-0.28,0.30,0.85
28290665,-0.28,0.30,0.85
28292636,-0.28,0.30,0.85
28294639,-0.32,0.22,0.85
28296633,-0.32,0.22,0.85
28298638,-0.32,0.22,0.85
28300637,-0.32,0.22,0.85
28302637,-0.32,0.22,0.85
28304637,-0.32,0.19,0.85
28306637,-0.32,0.19,0.85
28308637,-0.32,0.19,0.85
28310638,-0.32,0.19,0.85
28312658,-0.32,0.19,0.85
28314672,-0.34,0.16,0.86
28316667,-0.34,0.16,0.86
28318666,-0.34,0.16,0.86
28320668,-0.34,0.16,0.86
28322665,-0.34,0.16,0.86
28324669,-0.34,0.10,0.86
28326664,-0.34,0.10,0.86
28328795,-0.34,0.10,0.86
28330679,-0.34,0.10,0.86
28332636,-0.34,0.10,0.86
28334636,-0.34,0.10,0.86
28336633,-0.33,0.07,0.89
28338652,-0.33,0.07,0.89
28340637,-0.33,0.07,0.89
28342638,-0.33,0.07,0.89
28344638,-0.33,0.07,0.89
28346639,-0.31,0.06,0.91
28348648,-0.31,0.06,0.91
28350639,-0.31,0.06,0.91
28352633,-0.31,0.06,0.91
28354680,-0.31,0.06,0.91
28356665,-0.32,0.05,0.92
28358667,-0.32,0.05,0.92
28360664,-0.32,0.05,0.92
28362678,-0.32,0.05,0.92
28364671,-0.32,0.05,0.92
28366668,-0.32,0.04,0.95
28368638,-0.32,0.04,0.95
28370679,-0.32,0.04,0.95
28372672,-0.32,0.04,0.95
28374711,-0.32,0.04,0.95
28376666,-0.33,0.05,0.94
28378670,-0.33,0.05,0.94
28380637,-0.33,0.05,0.94
28382637,-0.33,0.05,0.94
28384637,-0.33,0.05,0.94
28386633,-0.34,0.07,0.93
28388651,-0.34,0.07,0.93
28390637,-0.34,0.07,0.93
28392638,-0.34,0.07,0.93
28394681,-0.34,0.07,0.93
28396670,-0.36,0.09,0.90
28398662,-0.36,0.09,0.90
28400668,-0.36,0.09,0.90
28402662,-0.36,0.09,0.90
28404666,-0.36,0.09,0.90
28406666,-0.36,0.10,0.87
28408636,-0.36,0.10,0.87
28410636,-0.36,0.10,0.87
28412655,-0.36,0.10,0.87
28414638,-0.36,0.10,0.87
28416654,-0.37,0.09,0.84
28418654,-0.37,0.09,0.84
28420799,-0.37,0.09,0.84
28422680,-0.37,0.09,0.84
28424637,-0.37,0.09,0.84
28426638,-0.37,0.10,0.86
28428640,-0.37,0.10,0.86
28430637,-0.37,0.10,0.86
28432636,-0.37,0.10,0.86
28434675,-0.37,0.10,0.86
28436663,-0.37,0.11,0.90
28438693,-0.37,0.11,0.90
28440668,-0.37,0.11,0.90
28442677,-0.37,0.11,0.90
28444667,-0.37,0.11,0.90
28446667,-0.36,0.11,0.96
28448650,-0.36,0.11,0.96
28450633,-0.36,0.11,0.96
28452638,-0.36,0.11,0.96
28454636,-0.36,0.11,0.96
28456639,-0.36,0.13,0.99
28458653,-0.36,0.13,0.99
28460638,-0.36,0.13,0.99
28462657,-0.36,0.13,0.99
28464638,-0.36,0.13,0.99
28466637,-0.36,0.14,0.98
28468637,-0.36,0.14,0.98
28470636,-0.36,0.14,0.98
28472640,-0.36,0.14,0.98
28474676,-0.36,0.14,0.98
28476669,-0.37,0.13,0.94
28478698,-0.37,0.13,0.94
28480737,-0.37,0.13,0.94
28482708,-0.37,0.13,0.94
28484705,-0.37,0.13,0.94
28486664,-0.38,0.11,0.89
28488695,-0.38,0.11,0.89
28490670,-0.38,0.11,0.89
28492664,-0.38,0.11,0.89
28494637,-0.38,0.11,0.89
28496636,-0.41,0.11,0.87
28498637,-0.41,0.11,0.87
28500640,-0.41,0.11,0.87
28502637,-0.41,0.11,0.87
28504636,-0.41,0.11,0.87
28506638,-0.41,0.11,0.87
28508636,-0.43,0.14,0.89
28510638,-0.43,0.14,0.89
28512659,-0.43,0.14,0.89
28514670,-0.43,0.14,0.89
28516674,-0.43,0.14,0.89
28518669,-0.39,0.17,0.89
28520676,-0.39,0.17,0.89
28522666,-0.39,0.17,0.89
28524665,-0.39,0.17,0.89
28526665,-0.39,0.17,0.89
28528738,-0.33,0.21,0.90
28530679,-0.33,0.21,0.90
28532637,-0.33,0.21,0.90
28534638,-0.33,0.21,0.90
28536638,-0.33,0.21,0.90
28538654,-0.32,0.27,0.95
28540636,-0.32,0.27,0.95
28542636,-0.32,0.27,0.95
28544633,-0.32,0.27,0.95
28546638,-0.32,0.27,0.95
28548646,-0.32,0.34,0.96
28550636,-0.32,0.34,0.96
28552638,-0.32,0.34,0.96
28554678,-0.32,0.34,0.96
28556664,-0.32,0.34,0.96
28558666,-0.31,0.41,0.95
28560662,-0.31,0.41,0.95
28562677,-0.31,0.41,0.95
28564667,-0.31,0.41,0.95
28566663,-0.31,0.41,0.95
28568633,-0.31,0.44,0.92
28570637,-0.31,0.44,0.92
28572638,-0.31,0.44,0.92
28574649,-0.31,0.44,0.92
28576720,-0.31,0.44,0.92
28578707,-0.30,0.41,0.88
28580638,-0.30,0.41,0.88
28582652,-0.30,0.41,0.88
28584639,-0.30,0.41,0.88
28586638,-0.30,0.41,0.88
28588656,-0.27,0.40,0.84
28590637,-0.27,0.40,0.84
28592636,-0.27,0.40,0.84
28594677,-0.27,0.40,0.84
28596667,-0.27,0.40,0.84
28598665,-0.27,0.37,0.85
28600671,-0.27,0.37,0.85
28602663,-0.27,0.37,0.85
28604667,-0.27,0.37,0.85
28606661,-0.27,0.37,0.85
28608638,-0.27,0.32,0.89
28610638,-0.27,0.32,0.89
28612657,-0.27,0.32,0.89
28614640,-0.27,0.32,0.89
28616638,-0.27,0.32,0.89
28618638,-0.27,0.34,0.91
28620638,-0.27,0.34,0.91
28622772,-0.27,0.34,0.91
28624681,-0.27,0.34,0.91
28626636,-0.27,0.34,0.91
28628636,-0.25,0.36,0.91
28630639,-0.25,0.36,0.91
28632637,-0.25,0.36,0.91
28634679,-0.25,0.36,0.91
28636662,-0.25,0.36,0.91
28638693,-0.25,0.40,0.90
28640665,-0.25,0.40,0.90
28642667,-0.25,0.40,0.90
28644666,-0.25,0.40,0.90
28646667,-0.25,0.40,0.90
28648649,-0.27,0.39,0.88
28650636,-0.27,0.39,0.88
28652637,-0.27,0.39,0.88
28654638,-0.27,0.39,0.88
28656638,-0.27,0.39,0.88
28658649,-0.29,0.30,0.84
28660635,-0.29,0.30,0.84
28662659,-0.29,0.30,0.84
28664638,-0.29,0.30,0.84
28666633,-0.29,0.30,0.84
28668638,-0.32,0.17,0.80
28670638,-0.32,0.17,0.80
28672637,-0.32,0.17,0.80
28674668,-0.32,0.17,0.80
28676677,-0.32,0.17,0.80
28678731,-0.32,0.02,0.76
28680697,-0.32,0.02,0.76
28682701,-0.32,0.02,0.76
28684663,-0.32,0.02,0.76
28686661,-0.32,0.02,0.76
28688693,-0.32,0.02,0.76
28690657,-0.33,-0.16,0.73
28692639,-0.33,-0.16,0.73
28694633,-0.33,-0.16,0.73
28696633,-0.33,-0.16,0.73
28698632,-0.33,-0.16,0.73
28700638,-0.40,-0.33,0.71
28702636,-0.40,-0.33,0.71
28704629,-0.40,-0.33,0.71
28706640,-0.40,-0.33,0.71
28708636,-0.40,-0.33,0.71
28710638,-0.43,-0.45,0.66
28712652,-0.43,-0.45,0.66
28714671,-0.43,-0.45,0.66
28716667,-0.43,-0.45,0.66
28718662,-0.43,-0.45,0.66
28720665,-0.43,-0.48,0.62
28722663,-0.43,-0.48,0.62
28724665,-0.43,-0.48,0.62
28726658,-0.43,-0.48,0.62
28728725,-0.43,-0.48,0.62
28730685,-0.48,-0.48,0.59
28732652,-0.48,-0.48,0.59
28734638,-0.48,-0.48,0.59
28736637,-0.48,-0.48,0.59
28738655,-0.48,-0.48,0.59
28740638,-0.55,-0.46,0.57
28742636,-0.55,-0.46,0.57
28744636,-0.55,-0.46,0.57
28746638,-0.55,-0.46,0.57
28748644,-0.55,-0.46,0.57
28750637,-0.60,-0.45,0.58
28752633,-0.60,-0.45,0.58
28754677,-0.60,-0.45,0.58
28756664,-0.60,-0.45,0.58
28758666,-0.60,-0.45,0.58
28760663,-0.57,-0.43,0.60
28762676,-0.57,-0.43,0.60
28764672,-0.57,-0.43,0.60
28766663,-0.57,-0.43,0.60
28768640,-0.57,-0.43,0.60
28770644,-0.57,-0.36,0.63
28772637,-0.57,-0.36,0.63
28774725,-0.57,-0.36,0.63
28776684,-0.57,-0.36,0.63
28778637,-0.57,-0.36,0.63
28780680,-0.55,-0.32,0.64
28782674,-0.55,-0.32,0.64
28784637,-0.55,-0.32,0.64
28786636,-0.55,-0.32,0.64
28788655,-0.55,-0.32,0.64
28790639,-0.54,-0.27,0.66
28792637,-0.54,-0.27,0.66
28794680,-0.54,-0.27,0.66
28796668,-0.54,-0.27,0.66
28798663,-0.54,-0.27,0.66
28800663,-0.57,-0.28,0.70
28802669,-0.57,-0.28,0.70
28804665,-0.57,-0.28,0.70
28806665,-0.57,-0.28,0.70
28808637,-0.57,-0.28,0.70
28810636,-0.59,-0.34,0.73
28812746,-0.59,-0.34,0.73
28814642,-0.59,-0.34,0.73
28816637,-0.59,-0.34,0.73
28818636,-0.59,-0.34,0.73
28820770,-0.59,-0.42,0.74
28822680,-0.59,-0.42,0.74
28824636,-0.59,-0.42,0.74
28826638,-0.59,-0.42,0.74
28828633,-0.59,-0.42,0.74
28830637,-0.59,-0.49,0.75
28832633,-0.59,-0.49,0.75
28834675,-0.59,-0.49,0.75
28836665,-0.59,-0.49,0.75
28838690,-0.59,-0.49,0.75
28840663,-0.59,-0.54,0.77
28842663,-0.59,-0.54,0.77
28844669,-0.59,-0.54,0.77
28846663,-0.59,-0.54,0.77
28848650,-0.59,-0.54,0.77
28850636,-0.59,-0.54,0.77
28852637,-0.60,-0.55,0.80
28854632,-0.60,-0.55,0.80
28856638,-0.60,-0.55,0.80
28858649,-0.60,-0.55,0.80
28860636,-0.60,-0.55,0.80
28862744,-0.59,-0.52,0.76
28864647,-0.59,-0.52,0.76
28866673,-0.59,-0.52,0.76
28868711,-0.59,-0.52,0.76
28870657,-0.59,-0.52,0.76
28872636,-0.56,-0.47,0.75
28874677,-0.56,-0.47,0.75
28876666,-0.56,-0.47,0.75
28878662,-0.56,-0.47,0.75
28880665,-0.56,-0.47,0.75
28882727,-0.55,-0.40,0.74
28884691,-0.55,-0.40,0.74
28886667,-0.55,-0.40,0.74
28888695,-0.55,-0.40,0.74
28890638,-0.55,-0.40,0.74
28892638,-0.54,-0.32,0.73
28894636,-0.54,-0.32,0.73
28896637,-0.54,-0.32,0.73
28898632,-0.54,-0.32,0.73
28900636,-0.54,-0.32,0.73
28902641,-0.52,-0.24,0.73
28904637,-0.52,-0.24,0.73
28906634,-0.52,-0.24,0.73
28908637,-0.52,-0.24,0.73
28910637,-0.52,-0.24,0.73
28912655,-0.50,-0.18,0.75
28914752,-0.50,-0.18,0.75
28916707,-0.50,-0.18,0.75
28918664,-0.50,-0.18,0.75
28920670,-0.50,-0.18,0.75
28922666,-0.50,-0.14,0.80
28924663,-0.50,-0.14,0.80
28926665,-0.50,-0.14,0.80
28928671,-0.50,-0.14,0.80
28930659,-0.50,-0.14,0.80
28932637,-0.46,-0.10,0.84
28934636,-0.46,-0.10,0.84
28936636,-0.46,-0.10,0.84
28938652,-0.46,-0.10,0.84
28940638,-0.46,-0.10,0.84
28942631,-0.42,-0.02,0.87
28944632,-0.42,-0.02,0.87
28946638,-0.42,-0.02,0.87
28948645,-0.42,-0.02,0.87
28950637,-0.42,-0.02,0.87
28952633,-0.38,0.04,0.88
28954633,-0.38,0.04,0.88
28956673,-0.38,0.04,0.88
28958688,-0.38,0.04,0.88
28960722,-0.38,0.04,0.88
28962704,-0.38,0.07,0.91
28964670,-0.38,0.07,0.91
28966663,-0.38,0.07,0.91
28968664,-0.38,0.07,0.91
28970667,-0.38,0.07,0.91
28972650,-0.40,0.07,0.93
28974636,-0.40,0.07,0.93
28976637,-0.40,0.07,0.93
28978636,-0.40,0.07,0.93
28980641,-0.40,0.07,0.93
28982678,-0.37,0.05,0.93
28984652,-0.37,0.05,0.93
28986693,-0.37,0.05,0.93
28988657,-0.37,0.05,0.93
28990633,-0.37,0.05,0.93
28992637,-0.36,0.05,0.91
28994638,-0.36,0.05,0.91
28996681,-0.36,0.05,0.91
28998667,-0.36,0.05,0.91
29000668,-0.36,0.05,0.91
29002663,-0.34,0.05,0.88
29004663,-0.34,0.05,0.88
29006662,-0.34,0.05,0.88
29008662,-0.34,0.05,0.88
29010636,-0.34,0.05,0.88
29012655,-0.34,0.05,0.88
29014636,-0.34,0.07,0.89
29016637,-0.34,0.07,0.89
29018637,-0.34,0.07,0.89
29020638,-0.34,0.07,0.89
29022638,-0.34,0.07,0.89
29024637,-0.33,0.11,0.88
29026638,-0.33,0.11,0.88
29028638,-0.33,0.11,0.88
29030637,-0.33,0.11,0.88
29032639,-0.33,0.11,0.88
29034638,-0.33,0.18,0.89
29036669,-0.33,0.18,0.89
29038685,-0.33,0.18,0.89
29040662,-0.33,0.18,0.89
29042667,-0.33,0.18,0.89
29044664,-0.31,0.24,0.89
29046668,-0.31,0.24,0.89
29048663,-0.31,0.24,0.89
29050633,-0.31,0.24,0.89
29052721,-0.31,0.24,0.89
29054687,-0.31,0.29,0.90
29056639,-0.31,0.29,0.90
29058647,-0.31,0.29,0.90
29060633,-0.31,0.29,0.90
29062661,-0.31,0.29,0.90
29064639,-0.32,0.30,0.94
29066632,-0.32,0.30,0.94
29068634,-0.32,0.30,0.94
29070636,-0.32,0.30,0.94
29072633,-0.32,0.30,0.94
29074638,-0.31,0.30,0.96
29076682,-0.31,0.30,0.96
29078663,-0.31,0.30,0.96
29080669,-0.31,0.30,0.96
29082705,-0.31,0.30,0.96
29084668,-0.30,0.30,1.00
29086669,-0.30,0.30,1.00
29088746,-0.30,0.30,1.00
29090668,-0.30,0.30,1.00
29092637,-0.30,0.30,1.00
29094636,-0.29,0.31,1.01
29096638,-0.29,0.31,1.01
29098642,-0.29,0.31,1.01
29100746,-0.29,0.31,1.01
29102680,-0.29,0.31,1.01
29104637,-0.29,0.29,1.03
29106632,-0.29,0.29,1.03
29108636,-0.29,0.29,1.03
29110633,-0.29,0.29,1.03
29112659,-0.29,0.29,1.03
29114636,-0.28,0.29,1.02
29116675,-0.28,0.29,1.02
29118664,-0.28,0.29,1.02
29120669,-0.28,0.29,1.02
29122668,-0.28,0.29,1.02
29124665,-0.28,0.30,1.03
29126666,-0.28,0.30,1.03
29128668,-0.28,0.30,1.03
29130639,-0.28,0.30,1.03
29132638,-0.28,0.30,1.03
29134638,-0.29,0.31,1.00
29136637,-0.29,0.31,1.00
29138655,-0.29,0.31,1.00
29140637,-0.29,0.31,1.00
29142630,-0.29,0.31,1.00
29144638,-0.28,0.32,0.98
29146638,-0.28,0.32,0.98
29148801,-0.28,0.32,0.98
29150685,-0.28,0.32,0.98
29152637,-0.28,0.32,0.98
29154637,-0.27,0.32,0.96
29156677,-0.27,0.32,0.96
29158671,-0.27,0.32,0.96
29160669,-0.27,0.32,0.96
29162682,-0.27,0.32,0.96
29164665,-0.28,0.34,0.95
29166663,-0.28,0.34,0.95
29168663,-0.28,0.34,0.95
29170638,-0.28,0.34,0.95
29172637,-0.28,0.34,0.95
29174633,-0.28,0.34,0.95
29176632,-0.27,0.35,0.93
29178638,-0.27,0.35,0.93
29180639,-0.27,0.35,0.93
29182669,-0.27,0.35,0.93
29184637,-0.27,0.35,0.93
29186637,-0.27,0.37,0.90
29188674,-0.27,0.37,0.90
29190691,-0.27,0.37,0.90
29192637,-0.27,0.37,0.90
29194719,-0.27,0.37,0.90
29196708,-0.28,0.40,0.88
29198666,-0.28,0.40,0.88
29200663,-0.28,0.40,0.88
29202660,-0.28,0.40,0.88
29204667,-0.28,0.40,0.88
29206667,-0.28,0.40,0.86
29208666,-0.28,0.40,0.86
29210638,-0.28,0.40,0.86
29212753,-0.28,0.40,0.86
29214644,-0.28,0.40,0.86
29216637,-0.31,0.36,0.86
29218637,-0.31,0.36,0.86
29220637,-0.31,0.36,0.86
29222633,-0.31,0.36,0.86
29224637,-0.31,0.36,0.86
29226633,-0.32,0.31,0.85
29228636,-0.32,0.31,0.85
29230640,-0.32,0.31,0.85
29232653,-0.32,0.31,0.85
29234633,-0.32,0.31,0.85
29236674,-0.32,0.27,0.86
29238693,-0.32,0.27,0.86
29240714,-0.32,0.27,0.86
29242699,-0.32,0.27,0.86
29244672,-0.32,0.27,0.86
29246665,-0.32,0.25,0.87
29248669,-0.32,0.25,0.87
29250662,-0.32,0.25,0.87
29252655,-0.32,0.25,0.87
29254635,-0.32,0.25,0.87
29256640,-0.32,0.23,0.87
29258646,-0.32,0.23,0.87
29260633,-0.32,0.23,0.87
29262754,-0.32,0.23,0.87
29264645,-0.32,0.23,0.87
29266637,-0.33,0.23,0.87
29268634,-0.33,0.23,0.87
29270636,-0.33,0.23,0.87
29272636,-0.33,0.23,0.87
29274636,-0.33,0.23,0.87
29276666,-0.35,0.24,0.86
29278669,-0.35,0.24,0.86
29280663,-0.35,0.24,0.86
29282699,-0.35,0.24,0.86
29284662,-0.35,0.24,0.86
29286665,-0.35,0.24,0.86
29288748,-0.35,0.24,0.86
29290708,-0.35,0.24,0.86
29292708,-0.35,0.24,0.86
29294664,-0.35,0.24,0.86
29296639,-0.35,0.24,0.83
29298637,-0.35,0.24,0.83
29300638,-0.35,0.24,0.83
29302637,-0.35,0.24,0.83
29304636,-0.35,0.24,0.83
29306636,-0.35,0.21,0.80
29308637,-0.35,0.21,0.80
29310638,-0.35,0.21,0.80
29312658,-0.35,0.21,0.80
29314641,-0.35,0.21,0.80
29316669,-0.38,0.19,0.78
29318667,-0.38,0.19,0.78
29320663,-0.38,0.19,0.78
29322663,-0.38,0.19,0.78
29324670,-0.38,0.19,0.78
29326670,-0.40,0.18,0.76
29328651,-0.40,0.18,0.76
29330641,-0.40,0.18,0.76
29332638,-0.40,0.18,0.76
29334633,-0.40,0.18,0.76
29336636,-0.43,0.16,0.75
29338654,-0.43,0.16,0.75
29340637,-0.43,0.16,0.75
29342638,-0.43,0.16,0.75
29344636,-0.43,0.16,0.75
29346639,-0.43,0.16,0.75
29348767,-0.45,0.11,0.77
29350680,-0.45,0.11,0.77
29352636,-0.45,0.11,0.77
29354633,-0.45,0.11,0.77
29356677,-0.45,0.11,0.77
29358666,-0.45,0.08,0.80
29360668,-0.45,0.08,0.80
29362680,-0.45,0.08,0.80
29364665,-0.45,0.08,0.80
29366669,-0.45,0.08,0.80
29368664,-0.43,0.05,0.82
29370636,-0.43,0.05,0.82
29372637,-0.43,0.05,0.82
29374637,-0.43,0.05,0.82
29376633,-0.43,0.05,0.82
29378633,-0.44,0.05,0.84
29380639,-0.44,0.05,0.84
29382668,-0.44,0.05,0.84
29384636,-0.44,0.05,0.84
29386633,-0.44,0.05,0.84
29388653,-0.44,0.06,0.84
29390638,-0.44,0.06,0.84
29392637,-0.44,0.06,0.84
29394690,-0.44,0.06,0.84
29396715,-0.44,0.06,0.84
29398698,-0.41,0.11,0.85
29400669,-0.41,0.11,0.85
29402668,-0.41,0.11,0.85
29404668,-0.41,0.11,0.85
29406669,-0.41,0.11,0.85
29408669,-0.40,0.15,0.84
29410670,-0.40,0.15,0.84
29412685,-0.40,0.15,0.84
29414640,-0.40,0.15,0.84
29416650,-0.40,0.15,0.84
29418636,-0.40,0.15,0.80
29420637,-0.40,0.15,0.80
29422629,-0.40,0.15,0.80
29424634,-0.40,0.15,0.80
29426642,-0.40,0.15,0.80
29428636,-0.39,0.14,0.77
29430637,-0.39,0.14,0.77
29432638,-0.39,0.14,0.77
29434631,-0.39,0.14,0.77
29436633,-0.39,0.14,0.77
29438692,-0.40,0.11,0.75
29440667,-0.40,0.11,0.75
29442663,-0.40,0.11,0.75
29444665,-0.40,0.11,0.75
29446670,-0.40,0.11,0.75
29448667,-0.45,0.04,0.74
29450663,-0.45,0.04,0.74
29452638,-0.45,0.04,0.74
29454638,-0.45,0.04,0.74
29456640,-0.45,0.04,0.74
29458655,-0.48,-0.05,0.72
29460704,-0.48,-0.05,0.72
29462693,-0.48,-0.05,0.72
29464641,-0.48,-0.05,0.72
29466633,-0.48,-0.05,0.72
29468638,-0.48,-0.12,0.71
29470633,-0.48,-0.12,0.71
29472634,-0.48,-0.12,0.71
29474637,-0.48,-0.12,0.71
29476634,-0.48,-0.12,0.71
29478677,-0.48,-0.14,0.71
29480668,-0.48,-0.14,0.71
29482671,-0.48,-0.14,0.71
29484699,-0.48,-0.14,0.71
29486664,-0.48,-0.14,0.71
29488696,-0.49,-0.14,0.71
29490666,-0.49,-0.14,0.71
29492663,-0.49,-0.14,0.71
29494641,-0.49,-0.14,0.71
29496658,-0.49,-0.14,0.71
29498691,-0.50,-0.12,0.69
29500635,-0.50,-0.12,0.69
29502632,-0.50,-0.12,0.69
29504633,-0.50,-0.12,0.69
29506634,-0.50,-0.12,0.69
29508638,-0.49,-0.11,0.69
29510633,-0.49,-0.11,0.69
29512658,-0.49,-0.11,0.69
29514638,-0.49,-0.11,0.69
29516631,-0.49,-0.11,0.69
29518707,-0.49,-0.11,0.69
29520723,-0.50,-0.10,0.68
29522691,-0.50,-0.10,0.68
29524691,-0.50,-0.10,0.68
29526664,-0.50,-0.10,0.68
29528665,-0.50,-0.10,0.68
29530664,-0.52,-0.13,0.71
29532664,-0.52,-0.13,0.71
29534663,-0.52,-0.13,0.71
29536664,-0.52,-0.13,0.71
29538657,-0.52,-0.13,0.71
29540636,-0.53,-0.21,0.74
29542638,-0.53,-0.21,0.74
29544636,-0.53,-0.21,0.74
29546636,-0.53,-0.21,0.74
29548638,-0.53,-0.21,0.74
29550644,-0.54,-0.27,0.77
29552637,-0.54,-0.27,0.77
29554633,-0.54,-0.27,0.77
29556634,-0.54,-0.27,0.77
29558679,-0.54,-0.27,0.77
29560669,-0.53,-0.29,0.77
29562679,-0.53,-0.29,0.77
29564670,-0.53,-0.29,0.77
29566664,-0.53,-0.29,0.77
29568663,-0.53,-0.29,0.77
29570664,-0.53,-0.27,0.78
29572638,-0.53,-0.27,0.78
29574637,-0.53,-0.27,0.78
29576636,-0.53,-0.27,0.78
29578638,-0.53,-0.27,0.78
29580637,-0.53,-0.25,0.77
29582706,-0.53,-0.25,0.77
29584697,-0.53,-0.25,0.77
29586637,-0.53,-0.25,0.77
29588695,-0.53,-0.25,0.77
29590637,-0.53,-0.21,0.75
29592632,-0.53,-0.21,0.75
29594638,-0.53,-0.21,0.75
29596636,-0.53,-0.21,0.75
29598680,-0.53,-0.21,0.75
29600717,-0.54,-0.17,0.74
29602663,-0.54,-0.17,0.74
29604661,-0.54,-0.17,0.74
29606663,-0.54,-0.17,0.74
29608662,-0.54,-0.17,0.74
29610665,-0.55,-0.14,0.72
29612766,-0.55,-0.14,0.72
29614645,-0.55,-0.14,0.72
29616638,-0.55,-0.14,0.72
29618638,-0.55,-0.14,0.72
29620637,-0.55,-0.13,0.73
29622643,-0.55,-0.13,0.73
29624638,-0.55,-0.13,0.73
29626636,-0.55,-0.13,0.73
29628747,-0.55,-0.13,0.73
29630678,-0.56,-0.14,0.73
29632633,-0.56,-0.14,0.73
29634637,-0.56,-0.14,0.73
29636636,-0.56,-0.14,0.73
29638701,-0.56,-0.14,0.73
29640668,-0.56,-0.16,0.75
29642664,-0.56,-0.16,0.75
29644664,-0.56,-0.16,0.75
29646664,-0.56,-0.16,0.75
29648669,-0.56,-0.16,0.75
29650670,-0.55,-0.17,0.77
29652638,-0.55,-0.17,0.77
29654636,-0.55,-0.17,0.77
29656638,-0.55,-0.17,0.77
29658651,-0.55,-0.17,0.77
29660636,-0.54,-0.17,0.79
29662745,-0.54,-0.17,0.79
29664643,-0.54,-0.17,0.79
29666637,-0.54,-0.17,0.79
29668636,-0.54,-0.17,0.79
29670640,-0.52,-0.18,0.80
29672637,-0.52,-0.18,0.80
29674637,-0.52,-0.18,0.80
29676637,-0.52,-0.18,0.80
29678668,-0.52,-0.18,0.80
29680679,-0.52,-0.18,0.80
29682699,-0.52,-0.18,0.82
29684704,-0.52,-0.18,0.82
29686664,-0.52,-0.18,0.82
29688727,-0.52,-0.18,0.82
29690665,-0.52,-0.18,0.82
29692663,-0.51,-0.18,0.84
29694662,-0.51,-0.18,0.84
29696637,-0.51,-0.18,0.84
29698637,-0.51,-0.18,0.84
29700638,-0.51,-0.18,0.84
29702682,-0.51,-0.15,0.83
29704633,-0.51,-0.15,0.83
29706631,-0.51,-0.15,0.83
29708632,-0.51,-0.15,0.83
29710633,-0.51,-0.15,0.83
29712654,-0.50,-0.14,0.82
29714636,-0.50,-0.14,0.82
29716631,-0.50,-0.14,0.82
29718676,-0.50,-0.14,0.82
29720667,-0.50,-0.14,0.82
29722663,-0.49,-0.13,0.82
29724665,-0.49,-0.13,0.82
29726662,-0.49,-0.13,0.82
29728658,-0.49,-0.13,0.82
29730638,-0.49,-0.13,0.82
29732648,-0.48,-0.13,0.82
29734653,-0.48,-0.13,0.82
29736773,-0.48,-0.13,0.82
29738705,-0.48,-0.13,0.82
29740632,-0.48,-0.13,0.82
29742632,-0.47,-0.12,0.78
29744637,-0.47,-0.12,0.78
29746633,-0.47,-0.12,0.78
29748635,-0.47,-0.12,0.78
29750648,-0.47,-0.12,0.78
29752632,-0.45,-0.11,0.78
29754637,-0.45,-0.11,0.78
29756637,-0.45,-0.11,0.78
29758682,-0.45,-0.11,0.78
29760666,-0.45,-0.11,0.78
29762675,-0.45,-0.10,0.77
29764664,-0.45,-0.10,0.77
29766664,-0.45,-0.10,0.77
29768669,-0.45,-0.10,0.77
29770665,-0.45,-0.10,0.77
29772637,-0.45,-0.07,0.79
29774640,-0.45,-0.07,0.79
29776638,-0.45,-0.07,0.79
29778638,-0.45,-0.07,0.79
29780637,-0.45,-0.07,0.79
29782701,-0.42,-0.02,0.81
29784690,-0.42,-0.02,0.81
29786639,-0.42,-0.02,0.81
29788690,-0.42,-0.02,0.81
29790638,-0.42,-0.02,0.81
29792637,-0.39,0.02,0.84
29794637,-0.39,0.02,0.84
29796632,-0.39,0.02,0.84
29798677,-0.39,0.02,0.84
29800664,-0.39,0.02,0.84
29802668,-0.38,0.07,0.85
29804715,-0.38,0.07,0.85
29806663,-0.38,0.07,0.85
29808668,-0.38,0.07,0.85
29810667,-0.38,0.07,0.85
29812677,-0.36,0.09,0.87
29814642,-0.36,0.09,0.87
29816637,-0.36,0.09,0.87
29818636,-0.36,0.09,0.87
29820636,-0.36,0.09,0.87
29822632,-0.36,0.11,0.88
29824636,-0.36,0.11,0.88
29826637,-0.36,0.11,0.88
29828636,-0.36,0.11,0.88
29830746,-0.36,0.11,0.88
29832676,-0.37,0.08,0.90
29834633,-0.37,0.08,0.90
29836637,-0.37,0.08,0.90
29838706,-0.37,0.08,0.90
29840670,-0.37,0.08,0.90
29842666,-0.39,0.03,0.91
29844665,-0.39,0.03,0.91
29846664,-0.39,0.03,0.91
29848668,-0.39,0.03,0.91
29850671,-0.39,0.03,0.91
29852637,-0.39,0.03,0.91
29854639,-0.38,-0.02,0.89
29856639,-0.38,-0.02,0.89
29858647,-0.38,-0.02,0.89
29860637,-0.38,-0.02,0.89
29862653,-0.38,-0.02,0.89
29864638,-0.38,-0.04,0.89
29866633,-0.38,-0.04,0.89
29868638,-0.38,-0.04,0.89
29870636,-0.38,-0.04,0.89
29872637,-0.38,-0.04,0.89
29874638,-0.36,-0.03,0.89
29876747,-0.36,-0.03,0.89
29878703,-0.36,-0.03,0.89
29880669,-0.36,-0.03,0.89
29882665,-0.36,-0.03,0.89
29884667,-0.35,-0.01,0.91
29886669,-0.35,-0.01,0.91
29888728,-0.35,-0.01,0.91
29890667,-0.35,-0.01,0.91
29892664,-0.35,-0.01,0.91
29894636,-0.34,0.00,0.92
29896640,-0.34,0.00,0.92
29898638,-0.34,0.00,0.92
29900633,-0.34,0.00,0.92
29902637,-0.34,0.00,0.92
29904633,-0.30,0.02,0.93
29906689,-0.30,0.02,0.93
29908662,-0.30,0.02,0.93
29910633,-0.30,0.02,0.93
29912660,-0.30,0.02,0.93
29914637,-0.30,0.08,0.93
29916633,-0.30,0.08,0.93
29918673,-0.30,0.08,0.93
29920665,-0.30,0.08,0.93
29922683,-0.30,0.08,0.93
29924705,-0.28,0.17,0.94
29926693,-0.28,0.17,0.94
29928665,-0.28,0.17,0.94
29930664,-0.28,0.17,0.94
29932668,-0.28,0.17,0.94
29934638,-0.26,0.24,0.95
29936632,-0.26,0.24,0.95
29938655,-0.26,0.24,0.95
29940637,-0.26,0.24,0.95
29942637,-0.26,0.24,0.95
29944636,-0.27,0.29,0.96
29946633,-0.27,0.29,0.96
29948638,-0.27,0.29,0.96
29950654,-0.27,0.29,0.96
29952637,-0.27,0.29,0.96
29954633,-0.28,0.30,0.97
29956634,-0.28,0.30,0.97
29958672,-0.28,0.30,0.97
29960669,-0.28,0.30,0.97
29962680,-0.28,0.30,0.97
29964669,-0.26,0.29,0.98
29966661,-0.26,0.29,0.98
29968668,-0.26,0.29,0.98
29970662,-0.26,0.29,0.98
29972637,-0.26,0.29,0.98
29974637,-0.27,0.26,0.99
29976637,-0.27,0.26,0.99
29978636,-0.27,0.26,0.99
29980638,-0.27,0.26,0.99
29982653,-0.27,0.26,0.99
29984807,-0.26,0.23,1.00
29986676,-0.26,0.23,1.00
29988696,-0.26,0.23,1.00
29990637,-0.26,0.23,1.00
29992636,-0.26,0.23,1.00
29994636,-0.25,0.20,0.99
29996632,-0.25,0.20,0.99
29998681,-0.25,0.20,0.99
30000664,-0.25,0.20,0.99
30002663,-0.25,0.20,0.99
30004662,-0.25,0.18,0.98
30006664,-0.25,0.18,0.98
30008690,-0.25,0.18,0.98
30010715,-0.25,0.18,0.98
30012754,-0.25,0.18,0.98
30014646,-0.25,0.18,0.98
30016637,-0.25,0.18,0.97
30018638,-0.25,0.18,0.97
30020637,-0.25,0.18,0.97
30022637,-0.25,0.18,0.97
30024636,-0.25,0.18,0.97
30026636,-0.24,0.21,0.96
30028637,-0.24,0.21,0.96
30030637,-0.24,0.21,0.96
30032638,-0.24,0.21,0.96
30034671,-0.24,0.21,0.96
30036705,-0.23,0.26,0.97
30038714,-0.23,0.26,0.97
30040668,-0.23,0.26,0.97
30042666,-0.23,0.26,0.97
30044665,-0.23,0.26,0.97
30046663,-0.22,0.32,0.96
30048671,-0.22,0.32,0.96
30050679,-0.22,0.32,0.96
30052639,-0.22,0.32,0.96
30054636,-0.22,0.32,0.96
30056638,-0.22,0.36,0.95
30058646,-0.22,0.36,0.95
30060637,-0.22,0.36,0.95
30062746,-0.22,0.36,0.95
30064645,-0.22,0.36,0.95
30066637,-0.23,0.37,0.95
30068637,-0.23,0.37,0.95
30070634,-0.23,0.37,0.95
30072634,-0.23,0.37,0.95
30074637,-0.23,0.37,0.95
30076638,-0.23,0.36,0.95
30078670,-0.23,0.36,0.95
30080665,-0.23,0.36,0.95
30082664,-0.23,0.36,0.95
30084661,-0.23,0.36,0.95
30086665,-0.22,0.36,0.95
30088724,-0.22,0.36,0.95
30090665,-0.22,0.36,0.95
30092706,-0.22,0.36,0.95
30094688,-0.22,0.36,0.95
30096633,-0.22,0.34,0.96
30098636,-0.22,0.34,0.96
30100632,-0.22,0.34,0.96
30102638,-0.22,0.34,0.96
30104638,-0.22,0.34,0.96
30106634,-0.23,0.34,0.97
30108633,-0.23,0.34,0.97
30110647,-0.23,0.34,0.97
30112692,-0.23,0.34,0.97
30114639,-0.23,0.34,0.97
30116638,-0.24,0.34,0.98
30118680,-0.24,0.34,0.98
30120669,-0.24,0.34,0.98
30122663,-0.24,0.34,0.98
30124663,-0.24,0.34,0.98
30126662,-0.24,0.33,0.97
30128663,-0.24,0.33,0.97
30130663,-0.24,0.33,0.97
30132639,-0.24,0.33,0.97
30134638,-0.24,0.33,0.97
30136636,-0.23,0.32,0.98
30138743,-0.23,0.32,0.98
30140679,-0.23,0.32,0.98
30142636,-0.23,0.32,0.98
30144632,-0.23,0.32,0.98
30146639,-0.23,0.31,0.96
30148637,-0.23,0.31,0.96
30150644,-0.23,0.31,0.96
30152636,-0.23,0.31,0.96
30154630,-0.23,0.31,0.96
30156634,-0.24,0.29,0.93
30158681,-0.24,0.29,0.93
30160668,-0.24,0.29,0.93
30162684,-0.24,0.29,0.93
30164664,-0.24,0.29,0.93
30166664,-0.25,0.26,0.89
30168666,-0.25,0.26,0.89
30170666,-0.25,0.26,0.89
30172637,-0.25,0.26,0.89
30174638,-0.25,0.26,0.89
30176637,-0.25,0.25,0.87
30178636,-0.25,0.25,0.87
30180639,-0.25,0.25,0.87
30182638,-0.25,0.25,0.87
30184658,-0.25,0.25,0.87
30186709,-0.25,0.25,0.87
30188704,-0.26,0.23,0.84
30190637,-0.26,0.23,0.84
30192637,-0.26,0.23,0.84
30194632,-0.26,0.23,0.84
30196632,-0.26,0.23,0.84
30198679,-0.27,0.24,0.83
30200662,-0.27,0.24,0.83
30202664,-0.27,0.24,0.83
30204667,-0.27,0.24,0.83
30206662,-0.27,0.24,0.83
30208664,-0.28,0.25,0.81
30210661,-0.28,0.25,0.81
30212659,-0.28,0.25,0.81
30214641,-0.28,0.25,0.81
30216638,-0.28,0.25,0.81
30218637,-0.29,0.24,0.82
30220638,-0.29,0.24,0.82
30222636,-0.29,0.24,0.82
30224665,-0.29,0.24,0.82
30226693,-0.29,0.24,0.82
30228636,-0.29,0.24,0.82
30230637,-0.29,0.24,0.82
30232720,-0.29,0.24,0.82
30234676,-0.29,0.24,0.82
30236633,-0.29,0.24,0.82
30238705,-0.29,0.24,0.82
30240667,-0.29,0.24,0.82
30242667,-0.29,0.24,0.82
30244669,-0.29,0.24,0.82
30246668,-0.29,0.24,0.82
30248665,-0.30,0.24,0.83
30250671,-0.30,0.24,0.83
30252637,-0.30,0.24,0.83
30254634,-0.30,0.24,0.83
30256640,-0.30,0.24,0.83
30258647,-0.31,0.25,0.85
30260638,-0.31,0.25,0.85
30262654,-0.31,0.25,0.85
30264641,-0.31,0.25,0.85
30266636,-0.31,0.25,0.85
30268637,-0.32,0.24,0.84
30270637,-0.32,0.24,0.84
30272636,-0.32,0.24,0.84
30274637,-0.32,0.24,0.84
30276642,-0.32,0.24,0.84
30278762,-0.31,0.22,0.84
30280699,-0.31,0.22,0.84
30282663,-0.31,0.22,0.84
30284669,-0.31,0.22,0.84
30286664,-0.31,0.22,0.84
30288729,-0.32,0.20,0.82
30290667,-0.32,0.20,0.82
30292663,-0.32,0.20,0.82
30294664,-0.32,0.20,0.82
30296636,-0.32,0.20,0.82
30298633,-0.33,0.17,0.81
30300637,-0.33,0.17,0.81
30302637,-0.33,0.17,0.81
30304638,-0.33,0.17,0.81
30306637,-0.33,0.17,0.81
30308638,-0.34,0.14,0.82
30310640,-0.34,0.14,0.82
30312655,-0.34,0.14,0.82
30314639,-0.34,0.14,0.82
30316686,-0.34,0.14,0.82
30318637,-0.37,0.10,0.81
30320677,-0.37,0.10,0.81
30322673,-0.37,0.10,0.81
30324793,-0.37,0.10,0.81
30326701,-0.37,0.10,0.81
30328666,-0.38,0.05,0.79
30330666,-0.38,0.05,0.79
30332661,-0.38,0.05,0.79
30334660,-0.38,0.05,0.79
30336637,-0.38,0.05,0.79
30338655,-0.40,0.04,0.78
30340636,-0.40,0.04,0.78
30342637,-0.40,0.04,0.78
30344639,-0.40,0.04,0.78
30346638,-0.40,0.04,0.78
30348639,-0.40,0.04,0.78
30350645,-0.40,0.04,0.79
30352635,-0.40,0.04,0.79
30354638,-0.40,0.04,0.79
30356637,-0.40,0.04,0.79
30358648,-0.40,0.04,0.79
30360672,-0.41,0.05,0.79
30362682,-0.41,0.05,0.79
30364668,-0.41,0.05,0.79
30366667,-0.41,0.05,0.79
30368667,-0.41,0.05,0.79
30370664,-0.40,0.08,0.79
30372661,-0.40,0.08,0.79
30374637,-0.40,0.08,0.79
30376659,-0.40,0.08,0.79
30378737,-0.40,0.08,0.79
30380662,-0.38,0.07,0.80
30382637,-0.38,0.07,0.80
30384637,-0.38,0.07,0.80
30386638,-0.38,0.07,0.80
30388698,-0.38,0.07,0.80
30390636,-0.40,0.01,0.79
30392636,-0.40,0.01,0.79
30394638,-0.40,0.01,0.79
30396636,-0.40,0.01,0.79
30398633,-0.40,0.01,0.79
30400675,-0.45,-0.05,0.78
30402661,-0.45,-0.05,0.78
30404661,-0.45,-0.05,0.78
30406666,-0.45,-0.05,0.78
30408663,-0.45,-0.05,0.78
30410670,-0.46,-0.07,0.78
30412769,-0.46,-0.07,0.78
30414649,-0.46,-0.07,0.78
30416651,-0.46,-0.07,0.78
30418685,-0.46,-0.07,0.78
30420656,-0.49,-0.06,0.77
30422637,-0.49,-0.06,0.77
30424637,-0.49,-0.06,0.77
30426637,-0.49,-0.06,0.77
30428695,-0.49,-0.06,0.77
30430688,-0.47,-0.08,0.77
30432639,-0.47,-0.08,0.77
30434638,-0.47,-0.08,0.77
30436638,-0.47,-0.08,0.77
30438653,-0.47,-0.08,0.77
30440672,-0.47,-0.10,0.77
30442667,-0.47,-0.10,0.77
30444668,-0.47,-0.10,0.77
30446663,-0.47,-0.10,0.77
30448667,-0.47,-0.10,0.77
30450673,-0.48,-0.13,0.81
30452661,-0.48,-0.13,0.81
30454637,-0.48,-0.13,0.81
30456638,-0.48,-0.13,0.81
30458655,-0.48,-0.13,0.81
30460636,-0.48,-0.17,0.81
30462749,-0.48,-0.17,0.81
30464646,-0.48,-0.17,0.81
30466637,-0.48,-0.17,0.81
30468636,-0.48,-0.17,0.81
30470636,-0.46,-0.20,0.79
30472637,-0.46,-0.20,0.79
30474658,-0.46,-0.20,0.79
30476778,-0.46,-0.20,0.79
30478677,-0.46,-0.20,0.79
30480677,-0.47,-0.19,0.76
30482671,-0.47,-0.19,0.76
30484665,-0.47,-0.19,0.76
30486665,-0.47,-0.19,0.76
30488725,-0.47,-0.19,0.76
30490665,-0.49,-0.20,0.74
30492661,-0.49,-0.20,0.74
30494637,-0.49,-0.20,0.74
30496637,-0.49,-0.20,0.74
30498639,-0.49,-0.20,0.74
30500637,-0.51,-0.24,0.73
30502636,-0.51,-0.24,0.73
30504638,-0.51,-0.24,0.73
30506639,-0.51,-0.24,0.73
30508637,-0.51,-0.24,0.73
30510640,-0.52,-0.29,0.70
30512653,-0.52,-0.29,0.70
30514640,-0.52,-0.29,0.70
30516639,-0.52,-0.29,0.70
30518640,-0.52,-0.29,0.70
30520706,-0.53,-0.36,0.69
30522717,-0.53,-0.36,0.69
30524691,-0.53,-0.36,0.69
30526681,-0.53,-0.36,0.69
30528667,-0.53,-0.36,0.69
30530662,-0.53,-0.36,0.69
30532667,-0.55,-0.39,0.70
30534668,-0.55,-0.39,0.70
30536668,-0.55,-0.39,0.70
30538655,-0.55,-0.39,0.70
30540637,-0.55,-0.39,0.70
30542638,-0.55,-0.39,0.73
30544637,-0.55,-0.39,0.73
30546636,-0.55,-0.39,0.73
30548637,-0.55,-0.39,0.73
30550645,-0.55,-0.39,0.73
30552637,-0.54,-0.33,0.75
30554633,-0.54,-0.33,0.75
30556639,-0.54,-0.33,0.75
30558649,-0.54,-0.33,0.75
30560667,-0.54,-0.33,0.75
30562678,-0.52,-0.26,0.75
30564668,-0.52,-0.26,0.75
30566663,-0.52,-0.26,0.75
30568663,-0.52,-0.26,0.75
30570664,-0.52,-0.26,0.75
30572661,-0.50,-0.19,0.76
30574638,-0.50,-0.19,0.76
30576638,-0.50,-0.19,0.76
30578637,-0.50,-0.19,0.76
30580638,-0.50,-0.19,0.76
30582639,-0.51,-0.15,0.76
30584637,-0.51,-0.15,0.76
30586639,-0.51,-0.15,0.76
30588746,-0.51,-0.15,0.76
30590699,-0.51,-0.15,0.76
30592633,-0.51,-0.13,0.77
30594636,-0.51,-0.13,0.77
30596637,-0.51,-0.13,0.77
30598636,-0.51,-0.13,0.77
30600678,-0.51,-0.13,0.77
30602666,-0.52,-0.15,0.79
30604665,-0.52,-0.15,0.79
30606667,-0.52,-0.15,0.79
30608670,-0.52,-0.15,0.79
30610668,-0.52,-0.15,0.79
30612681,-0.53,-0.18,0.80
30614641,-0.53,-0.18,0.80
30616639,-0.53,-0.18,0.80
30618632,-0.53,-0.18,0.80
30620632,-0.53,-0.18,0.80
30622650,-0.50,-0.21,0.82
30624692,-0.50,-0.21,0.82
30626636,-0.50,-0.21,0.82
30628633,-0.50,-0.21,0.82
30630637,-0.50,-0.21,0.82
30632634,-0.50,-0.20,0.82
30634637,-0.50,-0.20,0.82
30636637,-0.50,-0.20,0.82
30638651,-0.50,-0.20,0.82
30640672,-0.50,-0.20,0.82
30642668,-0.50,-0.19,0.82
30644722,-0.50,-0.19,0.82
30646705,-0.50,-0.19,0.82
30648664,-0.50,-0.19,0.82
30650675,-0.50,-0.19,0.82
30652664,-0.51,-0.17,0.81
30654664,-0.51,-0.17,0.81
30656657,-0.51,-0.17,0.81
30658647,-0.51,-0.17,0.81
30660632,-0.51,-0.17,0.81
30662661,-0.51,-0.16,0.81
30664638,-0.51,-0.16,0.81
30666632,-0.51,-0.16,0.81
30668637,-0.51,-0.16,0.81
30670637,-0.51,-0.16,0.81
30672639,-0.52,-0.15,0.81
30674636,-0.52,-0.15,0.81
30676636,-0.52,-0.15,0.81
30678636,-0.52,-0.15,0.81
30680673,-0.52,-0.15,0.81
30682667,-0.51,-0.14,0.81
30684669,-0.51,-0.14,0.81
30686665,-0.51,-0.14,0.81
30688686,-0.51,-0.14,0.81
30690704,-0.51,-0.14,0.81
30692720,-0.51,-0.14,0.81
30694705,-0.48,-0.14,0.82
30696667,-0.48,-0.14,0.82
30698633,-0.48,-0.14,0.82
30700637,-0.48,-0.14,0.82
30702638,-0.48,-0.14,0.82
30704637,-0.47,-0.15,0.86
30706636,-0.47,-0.15,0.86
30708638,-0.47,-0.15,0.86
30710637,-0.47,-0.15,0.86
30712660,-0.47,-0.15,0.86
30714638,-0.46,-0.14,0.88
30716633,-0.46,-0.14,0.88
30718636,-0.46,-0.14,0.88
30720670,-0.46,-0.14,0.88
30722666,-0.46,-0.14,0.88
30724669,-0.44,-0.14,0.91
30726706,-0.44,-0.14,0.91
30728662,-0.44,-0.14,0.91
30730666,-0.44,-0.14,0.91
30732676,-0.44,-0.14,0.91
30734638,-0.41,-0.14,0.90
30736641,-0.41,-0.14,0.90
30738679,-0.41,-0.14,0.90
30740750,-0.41,-0.14,0.90
30742669,-0.41,-0.14,0.90
30744636,-0.39,-0.16,0.89
30746636,-0.39,-0.16,0.89
30748639,-0.39,-0.16,0.89
30750646,-0.39,-0.16,0.89
30752631,-0.39,-0.16,0.89
30754629,-0.37,-0.12,0.86
30756633,-0.37,-0.12,0.86
30758646,-0.37,-0.12,0.86
30760675,-0.37,-0.12,0.86
30762683,-0.37,-0.12,0.86
30764668,-0.35,-0.04,0.84
30766670,-0.35,-0.04,0.84
30768667,-0.35,-0.04,0.84
30770664,-0.35,-0.04,0.84
30772661,-0.35,-0.04,0.84
30774638,-0.33,0.04,0.82
30776638,-0.33,0.04,0.82
30778636,-0.33,0.04,0.82
30780637,-0.33,0.04,0.82
30782632,-0.33,0.04,0.82
30784638,-0.33,0.12,0.80
30786737,-0.33,0.12,0.80
30788692,-0.33,0.12,0.80
30790670,-0.33,0.12,0.80
30792637,-0.33,0.12,0.80
30794638,-0.33,0.15,0.80
30796636,-0.33,0.15,0.80
30798633,-0.33,0.15,0.80
30800675,-0.33,0.15,0.80
30802676,-0.33,0.15,0.80
30804664,-0.34,0.13,0.83
30806664,-0.34,0.13,0.83
30808664,-0.34,0.13,0.83
30810666,-0.34,0.13,0.83
30812684,-0.34,0.13,0.83
30814638,-0.34,0.10,0.87
30816637,-0.34,0.10,0.87
30818637,-0.34,0.10,0.87
30820637,-0.34,0.10,0.87
30822638,-0.34,0.10,0.87
30824636,-0.32,0.08,0.90
30826636,-0.32,0.08,0.90
30828692,-0.32,0.08,0.90
30830755,-0.32,0.08,0.90
30832672,-0.32,0.08,0.90
30834633,-0.32,0.09,0.94
30836633,-0.32,0.09,0.94
30838654,-0.32,0.09,0.94
30840674,-0.32,0.09,0.94
30842669,-0.32,0.09,0.94
30844668,-0.32,0.08,0.96
30846664,-0.32,0.08,0.96
30848665,-0.32,0.08,0.96
30850671,-0.32,0.08,0.96
30852667,-0.32,0.08,0.96
30854638,-0.32,0.08,0.96
30856638,-0.30,0.08,0.96
30858651,-0.30,0.08,0.96
30860633,-0.30,0.08,0.96
30862660,-0.30,0.08,0.96
30864638,-0.30,0.08,0.96
30866632,-0.29,0.09,0.94
30868637,-0.29,0.09,0.94
30870638,-0.29,0.09,0.94
30872636,-0.29,0.09,0.94
30874637,-0.29,0.09,0.94
30876746,-0.29,0.12,0.92
30878682,-0.29,0.12,0.92
30880673,-0.29,0.12,0.92
30882663,-0.29,0.12,0.92
30884663,-0.29,0.12,0.92
30886663,-0.30,0.16,0.92
30888692,-0.30,0.16,0.92
30890698,-0.30,0.16,0.92
30892668,-0.30,0.16,0.92
30894638,-0.30,0.16,0.92
30896638,-0.29,0.19,0.92
30898633,-0.29,0.19,0.92
30900637,-0.29,0.19,0.92
30902633,-0.29,0.19,0.92
30904632,-0.29,0.19,0.92
30906637,-0.28,0.21,0.89
30908637,-0.28,0.21,0.89
30910638,-0.28,0.21,0.89
30912661,-0.28,0.21,0.89
30914636,-0.28,0.21,0.89
30916637,-0.28,0.21,0.90
30918637,-0.28,0.21,0.90
30920669,-0.28,0.21,0.90
30922665,-0.28,0.21,0.90
30924663,-0.28,0.21,0.90
30926663,-0.29,0.21,0.90
30928664,-0.29,0.21,0.90
30930663,-0.29,0.21,0.90
30932659,-0.29,0.21,0.90
30934642,-0.29,0.21,0.90
30936638,-0.28,0.20,0.91
30938654,-0.28,0.20,0.91
30940658,-0.28,0.20,0.91
30942694,-0.28,0.20,0.91
30944735,-0.28,0.20,0.91
30946672,-0.28,0.21,0.93
30948637,-0.28,0.21,0.93
30950647,-0.28,0.21,0.93
30952633,-0.28,0.21,0.93
30954634,-0.28,0.21,0.93
30956638,-0.27,0.22,0.96
30958651,-0.27,0.22,0.96
30960680,-0.27,0.22,0.96
30962686,-0.27,0.22,0.96
30964666,-0.27,0.22,0.96
30966667,-0.26,0.23,0.97
30968669,-0.26,0.23,0.97
30970666,-0.26,0.23,0.97
30972665,-0.26,0.23,0.97
30974638,-0.26,0.23,0.97
30976634,-0.25,0.24,0.98
30978638,-0.25,0.24,0.98
30980638,-0.25,0.24,0.98
30982651,-0.25,0.24,0.98
30984633,-0.25,0.24,0.98
30986638,-0.25,0.25,1.00
30988650,-0.25,0.25,1.00
30990673,-0.25,0.25,1.00
30992633,-0.25,0.25,1.00
30994636,-0.25,0.25,1.00
30996638,-0.24,0.29,1.03
30998730,-0.24,0.29,1.03
31000698,-0.24,0.29,1.03
31002667,-0.24,0.29,1.03
31004664,-0.24,0.29,1.03
31006667,-0.23,0.31,1.03
31008668,-0.23,0.31,1.03
31010664,-0.23,0.31,1.03
31012685,-0.23,0.31,1.03
31014655,-0.23,0.31,1.03
31016638,-0.22,0.36,1.03
31018638,-0.22,0.36,1.03
31020636,-0.22,0.36,1.03
31022638,-0.22,0.36,1.03
31024636,-0.22,0.36,1.03
31026638,-0.22,0.36,1.03
31028638,-0.22,0.41,1.01
31030638,-0.22,0.41,1.01
31032637,-0.22,0.41,1.01
31034637,-0.22,0.41,1.01
31036636,-0.22,0.41,1.01
31038658,-0.21,0.43,0.99
31040710,-0.21,0.43,0.99
31042664,-0.21,0.43,0.99
31044679,-0.21,0.43,0.99
31046700,-0.21,0.43,0.99
31048693,-0.21,0.42,0.97
31050670,-0.21,0.42,0.97
31052667,-0.21,0.42,0.97
31054664,-0.21,0.42,0.97
31056668,-0.21,0.42,0.97
31058646,-0.23,0.39,0.96
31060636,-0.23,0.39,0.96
31062662,-0.23,0.39,0.96
31064640,-0.23,0.39,0.96
31066641,-0.23,0.39,0.96
31068637,-0.23,0.37,0.96
31070636,-0.23,0.37,0.96
31072636,-0.23,0.37,0.96
31074636,-0.23,0.37,0.96
31076636,-0.23,0.37,0.96
31078636,-0.24,0.36,0.96
31080676,-0.24,0.36,0.96
31082673,-0.24,0.36,0.96
31084663,-0.24,0.36,0.96
31086666,-0.24,0.36,0.96
31088685,-0.24,0.35,0.96
31090699,-0.24,0.35,0.96
31092662,-0.24,0.35,0.96
31094636,-0.24,0.35,0.96
31096638,-0.24,0.35,0.96
31098638,-0.25,0.34,0.95
31100633,-0.25,0.34,0.95
31102633,-0.25,0.34,0.95
31104637,-0.25,0.34,0.95
31106638,-0.25,0.34,0.95
31108730,-0.24,0.35,0.93
31110683,-0.24,0.35,0.93
31112661,-0.24,0.35,0.93
31114636,-0.24,0.35,0.93
31116633,-0.24,0.35,0.93
31118637,-0.23,0.37,0.91
31120673,-0.23,0.37,0.91
31122664,-0.23,0.37,0.91
31124661,-0.23,0.37,0.91
31126664,-0.23,0.37,0.91
31128663,-0.23,0.38,0.88
31130678,-0.23,0.38,0.88
31132662,-0.23,0.38,0.88
31134651,-0.23,0.38,0.88
31136683,-0.23,0.38,0.88
31138651,-0.22,0.37,0.84
31140636,-0.22,0.37,0.84
31142632,-0.22,0.37,0.84
31144633,-0.22,0.37,0.84
31146637,-0.22,0.37,0.84
31148637,-0.23,0.32,0.80
31150647,-0.23,0.32,0.80
31152636,-0.23,0.32,0.80
31154636,-0.23,0.32,0.80
31156640,-0.23,0.32,0.80
31158648,-0.24,0.23,0.77
31160672,-0.24,0.23,0.77
31162681,-0.24,0.23,0.77
31164669,-0.24,0.23,0.77
31166665,-0.24,0.23,0.77
31168706,-0.29,0.11,0.76
31170693,-0.29,0.11,0.76
31172683,-0.29,0.11,0.76
31174662,-0.29,0.11,0.76
31176664,-0.29,0.11,0.76
31178639,-0.34,0.00,0.74
31180636,-0.34,0.00,0.74
31182638,-0.34,0.00,0.74
31184636,-0.34,0.00,0.74
31186638,-0.34,0.00,0.74
31188654,-0.37,-0.04,0.72
31190666,-0.37,-0.04,0.72
31192633,-0.37,-0.04,0.72
31194636,-0.37,-0.04,0.72
31196640,-0.37,-0.04,0.72
31198638,-0.37,-0.04,0.72
31200672,-0.38,-0.04,0.71
31202665,-0.38,-0.04,0.71
31204665,-0.38,-0.04,0.71
31206666,-0.38,-0.04,0.71
31208664,-0.38,-0.04,0.71
31210665,-0.39,-0.00,0.71
31212686,-0.39,-0.00,0.71
31214636,-0.39,-0.00,0.71
31216631,-0.39,-0.00,0.71
31218636,-0.39,-0.00,0.71
31220631,-0.40,0.03,0.69
31222637,-0.40,0.03,0.69
31224633,-0.40,0.03,0.69
31226636,-0.40,0.03,0.69
31228638,-0.40,0.03,0.69
31230657,-0.41,0.02,0.68
31232729,-0.41,0.02,0.68
31234684,-0.41,0.02,0.68
31236632,-0.41,0.02,0.68
31238800,-0.41,0.02,0.68
31240679,-0.42,-0.02,0.66
31242667,-0.42,-0.02,0.66
31244671,-0.42,-0.02,0.66
31246665,-0.42,-0.02,0.66
31248664,-0.42,-0.02,0.66
31250673,-0.44,-0.09,0.65
31252662,-0.44,-0.09,0.65
31254636,-0.44,-0.09,0.65
31256637,-0.44,-0.09,0.65
31258643,-0.44,-0.09,0.65
31260633,-0.43,-0.21,0.64
31262741,-0.43,-0.21,0.64
31264645,-0.43,-0.21,0.64
31266637,-0.43,-0.21,0.64
31268634,-0.43,-0.21,0.64
31270638,-0.48,-0.33,0.63
31272632,-0.48,-0.33,0.63
31274634,-0.48,-0.33,0.63
31276636,-0.48,-0.33,0.63
31278637,-0.48,-0.33,0.63
31280670,-0.53,-0.42,0.66
31282665,-0.53,-0.42,0.66
31284667,-0.53,-0.42,0.66
31286665,-0.53,-0.42,0.66
31288767,-0.53,-0.42,0.66
31290704,-0.54,-0.50,0.71
31292722,-0.54,-0.50,0.71
31294700,-0.54,-0.50,0.71
31296670,-0.54,-0.50,0.71
31298636,-0.54,-0.50,0.71
31300636,-0.58,-0.57,0.74
31302636,-0.58,-0.57,0.74
31304638,-0.58,-0.57,0.74
31306637,-0.58,-0.57,0.74
31308637,-0.58,-0.57,0.74
31310637,-0.61,-0.60,0.76
31312751,-0.61,-0.60,0.76
31314645,-0.61,-0.60,0.76
31316637,-0.61,-0.60,0.76
31318633,-0.61,-0.60,0.76
31320674,-0.59,-0.58,0.75
31322668,-0.59,-0.58,0.75
31324666,-0.59,-0.58,0.75
31326672,-0.59,-0.58,0.75
31328669,-0.59,-0.58,0.75
31330666,-0.59,-0.51,0.75
31332652,-0.59,-0.51,0.75
31334639,-0.59,-0.51,0.75
31336639,-0.59,-0.51,0.75
31338737,-0.59,-0.51,0.75
31340640,-0.58,-0.44,0.75
31342725,-0.58,-0.44,0.75
31344683,-0.58,-0.44,0.75
31346638,-0.58,-0.44,0.75
31348638,-0.58,-0.44,0.75
31350649,-0.57,-0.35,0.75
31352637,-0.57,-0.35,0.75
31354633,-0.57,-0.35,0.75
31356638,-0.57,-0.35,0.75
31358650,-0.57,-0.35,0.75
31360679,-0.57,-0.35,0.75
31362768,-0.56,-0.28,0.75
31364671,-0.56,-0.28,0.75
31366664,-0.56,-0.28,0.75
31368667,-0.56,-0.28,0.75
31370669,-0.56,-0.28,0.75
31372668,-0.54,-0.25,0.74
31374637,-0.54,-0.25,0.74
31376638,-0.54,-0.25,0.74
31378638,-0.54,-0.25,0.74
31380638,-0.54,-0.25,0.74
31382638,-0.52,-0.23,0.76
31384639,-0.52,-0.23,0.76
31386635,-0.52,-0.23,0.76
31388731,-0.52,-0.23,0.76
31390668,-0.52,-0.23,0.76
31392638,-0.52,-0.23,0.80
31394637,-0.52,-0.23,0.80
31396630,-0.52,-0.23,0.80
31398636,-0.52,-0.23,0.80
31400676,-0.52,-0.23,0.80
31402706,-0.50,-0.22,0.84
31404701,-0.50,-0.22,0.84
31406688,-0.50,-0.22,0.84
31408666,-0.50,-0.22,0.84
31410663,-0.50,-0.22,0.84
31412770,-0.50,-0.20,0.87
31414672,-0.50,-0.20,0.87
31416669,-0.50,-0.20,0.87
31418636,-0.50,-0.20,0.87
31420633,-0.50,-0.20,0.87
31422637,-0.48,-0.18,0.88
31424636,-0.48,-0.18,0.88
31426633,-0.48,-0.18,0.88
31428636,-0.48,-0.18,0.88
31430637,-0.48,-0.18,0.88
31432637,-0.45,-0.20,0.89
31434637,-0.45,-0.20,0.89
31436637,-0.45,-0.20,0.89
31438734,-0.45,-0.20,0.89
31440675,-0.45,-0.20,0.89
31442700,-0.45,-0.19,0.89
31444692,-0.45,-0.19,0.89
31446666,-0.45,-0.19,0.89
31448664,-0.45,-0.19,0.89
31450671,-0.45,-0.19,0.89
31452660,-0.43,-0.20,0.91
31454651,-0.43,-0.20,0.91
31456640,-0.43,-0.20,0.91
31458653,-0.43,-0.20,0.91
31460633,-0.43,-0.20,0.91
31462779,-0.40,-0.22,0.91
31464696,-0.40,-0.22,0.91
31466656,-0.40,-0.22,0.91
31468637,-0.40,-0.22,0.91
31470637,-0.40,-0.22,0.91
31472636,-0.38,-0.21,0.92
31474636,-0.38,-0.21,0.92
31476633,-0.38,-0.21,0.92
31478636,-0.38,-0.21,0.92
31480675,-0.38,-0.21,0.92
31482674,-0.36,-0.17,0.94
31484666,-0.36,-0.17,0.94
31486667,-0.36,-0.17,0.94
31488778,-0.36,-0.17,0.94
31490704,-0.36,-0.17,0.94
31492667,-0.33,-0.08,0.93
31494643,-0.33,-0.08,0.93
31496637,-0.33,-0.08,0.93
31498636,-0.33,-0.08,0.93
31500637,-0.33,-0.08,0.93
31502638,-0.32,-0.00,0.91
31504636,-0.32,-0.00,0.91
31506636,-0.32,-0.00,0.91
31508637,-0.32,-0.00,0.91
31510637,-0.32,-0.00,0.91
31512744,-0.30,0.05,0.90
31514658,-0.30,0.05,0.90
31516731,-0.30,0.05,0.90
31518677,-0.30,0.05,0.90
31520730,-0.30,0.05,0.90
31522676,-0.28,0.09,0.89
31524669,-0.28,0.09,0.89
31526663,-0.28,0.09,0.89
31528664,-0.28,0.09,0.89
31530664,-0.28,0.09,0.89
31532667,-0.28,0.09,0.89
31534660,-0.27,0.12,0.88
31536638,-0.27,0.12,0.88
31538745,-0.27,0.12,0.88
31540635,-0.27,0.12,0.88
31542636,-0.27,0.12,0.88
31544659,-0.28,0.11,0.89
31546692,-0.28,0.11,0.89
31548641,-0.28,0.11,0.89
31550644,-0.28,0.11,0.89
31552632,-0.28,0.11,0.89
31554637,-0.29,0.07,0.90
31556635,-0.29,0.07,0.90
31558650,-0.29,0.07,0.90
31560678,-0.29,0.07,0.90
31562770,-0.29,0.07,0.90
31564670,-0.27,0.03,0.93
31566667,-0.27,0.03,0.93
31568665,-0.27,0.03,0.93
31570702,-0.27,0.03,0.93
31572688,-0.27,0.03,0.93
31574681,-0.25,0.05,0.98
31576663,-0.25,0.05,0.98
31578637,-0.25,0.05,0.98
31580637,-0.25,0.05,0.98
31582632,-0.25,0.05,0.98
31584637,-0.24,0.09,1.00
31586636,-0.24,0.09,1.00
31588752,-0.24,0.09,1.00
31590676,-0.24,0.09,1.00
31592636,-0.24,0.09,1.00
31594633,-0.23,0.15,1.00
31596636,-0.23,0.15,1.00
31598637,-0.23,0.15,1.00
31600677,-0.23,0.15,1.00
31602666,-0.23,0.15,1.00
31604667,-0.21,0.21,0.97
31606665,-0.21,0.21,0.97
31608663,-0.21,0.21,0.97
31610667,-0.21,0.21,0.97
31612761,-0.21,0.21,0.97
31614646,-0.20,0.26,0.95
31616657,-0.20,0.26,0.95
31618727,-0.20,0.26,0.95
31620678,-0.20,0.26,0.95
31622637,-0.20,0.26,0.95
31624637,-0.21,0.30,0.92
31626636,-0.21,0.30,0.92
31628633,-0.21,0.30,0.92
31630638,-0.21,0.30,0.92
31632636,-0.21,0.30,0.92
31634633,-0.23,0.29,0.92
31636636,-0.23,0.29,0.92
31638740,-0.23,0.29,0.92
31640682,-0.23,0.29,0.92
31642663,-0.23,0.29,0.92
31644663,-0.24,0.25,0.93
31646666,-0.24,0.25,0.93
31648709,-0.24,0.25,0.93
31650673,-0.24,0.25,0.93
31652672,-0.24,0.25,0.93
31654663,-0.24,0.21,0.94
31656641,-0.24,0.21,0.94
31658651,-0.24,0.21,0.94
31660636,-0.24,0.21,0.94
31662741,-0.24,0.21,0.94
31664722,-0.25,0.18,0.96
31666681,-0.25,0.18,0.96
31668637,-0.25,0.18,0.96
31670636,-0.25,0.18,0.96
31672633,-0.25,0.18,0.96
31674637,-0.25,0.14,1.00
31676638,-0.25,0.14,1.00
31678637,-0.25,0.14,1.00
31680676,-0.25,0.14,1.00
31682667,-0.25,0.14,1.00
31684667,-0.23,0.14,1.01
31686666,-0.23,0.14,1.01
31688780,-0.23,0.14,1.01
31690700,-0.23,0.14,1.01
31692667,-0.23,0.14,1.01
31694638,-0.23,0.14,1.01
31696636,-0.21,0.16,1.01
31698637,-0.21,0.16,1.01
31700637,-0.21,0.16,1.01
31702638,-0.21,0.16,1.01
31704637,-0.21,0.16,1.01
31706637,-0.21,0.21,1.01
31708655,-0.21,0.21,1.01
31710725,-0.21,0.21,1.01
31712779,-0.21,0.21,1.01
31714643,-0.21,0.21,1.01
31716633,-0.21,0.25,1.01
31718637,-0.21,0.25,1.01
31720684,-0.21,0.25,1.01
31722670,-0.21,0.25,1.01
31724667,-0.21,0.25,1.01
31726663,-0.21,0.28,0.99
31728665,-0.21,0.28,0.99
31730668,-0.21,0.28,0.99
31732673,-0.21,0.28,0.99
31734638,-0.21,0.28,0.99
31736636,-0.22,0.29,0.99
31738734,-0.22,0.29,0.99
31740636,-0.22,0.29,0.99
31742636,-0.22,0.29,0.99
31744636,-0.22,0.29,0.99
31746634,-0.24,0.28,0.99
31748636,-0.24,0.28,0.99
31750688,-0.24,0.28,0.99
31752632,-0.24,0.28,0.99
31754633,-0.24,0.28,0.99
31756638,-0.24,0.26,0.99
31758646,-0.24,0.26,0.99
31760679,-0.24,0.26,0.99
31762764,-0.24,0.26,0.99
31764669,-0.24,0.26,0.99
31766667,-0.25,0.24,0.98
31768689,-0.25,0.24,0.98
31770719,-0.25,0.24,0.98
31772705,-0.25,0.24,0.98
31774661,-0.25,0.24,0.98
31776667,-0.25,0.23,0.97
31778637,-0.25,0.23,0.97
31780637,-0.25,0.23,0.97
31782638,-0.25,0.23,0.97
31784634,-0.25,0.23,0.97
31786642,-0.25,0.22,0.95
31788751,-0.25,0.22,0.95
31790671,-0.25,0.22,0.95
31792636,-0.25,0.22,0.95
31794633,-0.25,0.22,0.95
31796633,-0.25,0.21,0.93
31798631,-0.25,0.21,0.93
31800673,-0.25,0.21,0.93
31802666,-0.25,0.21,0.93
31804665,-0.25,0.21,0.93
31806666,-0.25,0.19,0.91
31808661,-0.25,0.19,0.91
31810669,-0.25,0.19,0.91
31812743,-0.25,0.19,0.91
31814644,-0.25,0.19,0.91
31816725,-0.26,0.18,0.89
31818684,-0.26,0.18,0.89
31820636,-0.26,0.18,0.89
31822634,-0.26,0.18,0.89
31824638,-0.26,0.18,0.89
31826637,-0.27,0.18,0.89
31828636,-0.27,0.18,0.89
31830637,-0.27,0.18,0.89
31832632,-0.27,0.18,0.89
31834638,-0.27,0.18,0.89
31836638,-0.27,0.18,0.89
31838745,-0.27,0.18,0.89
31840681,-0.27,0.18,0.89
31842664,-0.27,0.18,0.89
31844665,-0.27,0.18,0.89
31846662,-0.29,0.18,0.89
31848666,-0.29,0.18,0.89
31850682,-0.29,0.18,0.89
31852709,-0.29,0.18,0.89
31854650,-0.29,0.18,0.89
31856641,-0.30,0.19,0.91
31858651,-0.30,0.19,0.91
31860632,-0.30,0.19,0.91
31862776,-0.30,0.19,0.91
31864694,-0.30,0.19,0.91
31866636,-0.30,0.19,0.91
31868637,-0.30,0.23,0.91
31870636,-0.30,0.23,0.91
31872637,-0.30,0.23,0.91
31874632,-0.30,0.23,0.91
31876636,-0.30,0.23,0.91
31878636,-0.29,0.26,0.91
31880679,-0.29,0.26,0.91
31882663,-0.29,0.26,0.91
31884666,-0.29,0.26,0.91
31886668,-0.29,0.26,0.91
31888778,-0.29,0.29,0.89
31890705,-0.29,0.29,0.89
31892668,-0.29,0.29,0.89
31894639,-0.29,0.29,0.89
31896639,-0.29,0.29,0.89
31898636,-0.30,0.29,0.88
31900639,-0.30,0.29,0.88
31902638,-0.30,0.29,0.88
31904638,-0.30,0.29,0.88
31906638,-0.30,0.29,0.88
31908695,-0.29,0.27,0.86
31910704,-0.29,0.27,0.86
31912769,-0.29,0.27,0.86
31914642,-0.29,0.27,0.86
31916639,-0.29,0.27,0.86
31918637,-0.30,0.24,0.84
31920679,-0.30,0.24,0.84
31922666,-0.30,0.24,0.84
31924664,-0.30,0.24,0.84
31926663,-0.30,0.24,0.84
31928664,-0.30,0.18,0.82
31930668,-0.30,0.18,0.82
31932660,-0.30,0.18,0.82
31934640,-0.30,0.18,0.82
31936639,-0.30,0.18,0.82
31938733,-0.32,0.10,0.80
31940638,-0.32,0.10,0.80
31942638,-0.32,0.10,0.80
31944638,-0.32,0.10,0.80
31946637,-0.32,0.10,0.80
31948638,-0.34,0.03,0.79
31950649,-0.34,0.03,0.79
31952633,-0.34,0.03,0.79
31954690,-0.34,0.03,0.79
31956721,-0.34,0.03,0.79
31958681,-0.35,0.01,0.78
31960678,-0.35,0.01,0.78
31962772,-0.35,0.01,0.78
31964672,-0.35,0.01,0.78
31966664,-0.35,0.01,0.78
31968667,-0.36,0.02,0.77
31970670,-0.36,0.02,0.77
31972666,-0.36,0.02,0.77
31974637,-0.36,0.02,0.77
31976633,-0.36,0.02,0.77
31978632,-0.33,0.09,0.75
31980639,-0.33,0.09,0.75
31982655,-0.33,0.09,0.75
31984638,-0.33,0.09,0.75
31986638,-0.33,0.09,0.75
31988732,-0.34,0.13,0.73
31990671,-0.34,0.13,0.73
31992632,-0.34,0.13,0.73
31994633,-0.34,0.13,0.73
31996632,-0.34,0.13,0.73
31998638,-0.31,0.15,0.70
32000677,-0.31,0.15,0.70
32002717,-0.31,0.15,0.70
32004700,-0.31,0.15,0.70
32006670,-0.31,0.15,0.70
32008662,-0.30,0.10,0.64
32010663,-0.30,0.10,0.64
32012773,-0.30,0.10,0.64
32014676,-0.30,0.10,0.64
32016660,-0.30,0.10,0.64
32018638,-0.32,0.03,0.61
32020637,-0.32,0.03,0.61
32022638,-0.32,0.03,0.61
32024637,-0.32,0.03,0.61
32026637,-0.32,0.03,0.61
32028637,-0.32,0.03,0.61
32030639,-0.35,-0.05,0.57
32032637,-0.35,-0.05,0.57
32034638,-0.35,-0.05,0.57
32036637,-0.35,-0.05,0.57
32038733,-0.35,-0.05,0.57
32040674,-0.40,-0.16,0.55
32042671,-0.40,-0.16,0.55
32044666,-0.40,-0.16,0.55
32046666,-0.40,-0.16,0.55
32048676,-0.40,-0.16,0.55
32050735,-0.42,-0.27,0.55
32052703,-0.42,-0.27,0.55
32054664,-0.42,-0.27,0.55
32056656,-0.42,-0.27,0.55
32058647,-0.42,-0.27,0.55
32060633,-0.47,-0.36,0.60
32062752,-0.47,-0.36,0.60
32064646,-0.47,-0.36,0.60
32066633,-0.47,-0.36,0.60
32068639,-0.47,-0.36,0.60
32070637,-0.51,-0.42,0.67
32072633,-0.51,-0.42,0.67
32074637,-0.51,-0.42,0.67
32076636,-0.51,-0.42,0.67
32078637,-0.51,-0.42,0.67
32080669,-0.53,-0.46,0.74
32082663,-0.53,-0.46,0.74
32084665,-0.53,-0.46,0.74
32086665,-0.53,-0.46,0.74
32088767,-0.53,-0.46,0.74
32090712,-0.53,-0.49,0.79
32092702,-0.53,-0.49,0.79
32094692,-0.53,-0.49,0.79
32096697,-0.53,-0.49,0.79
32098655,-0.53,-0.49,0.79
32100631,-0.52,-0.49,0.81
32102638,-0.52,-0.49,0.81
32104636,-0.52,-0.49,0.81
32106632,-0.52,-0.49,0.81
32108638,-0.52,-0.49,0.81
32110636,-0.52,-0.45,0.82
32112762,-0.52,-0.45,0.82
32114647,-0.52,-0.45,0.82
32116637,-0.52,-0.45,0.82
32118637,-0.52,-0.45,0.82
32120679,-0.55,-0.41,0.82
32122666,-0.55,-0.41,0.82
32124667,-0.55,-0.41,0.82
32126664,-0.55,-0.41,0.82
32128664,-0.55,-0.41,0.82
32130666,-0.54,-0.38,0.84
32132661,-0.54,-0.38,0.84
32134633,-0.54,-0.38,0.84
32136637,-0.54,-0.38,0.84
32138730,-0.54,-0.38,0.84
32140682,-0.54,-0.36,0.84
32142698,-0.54,-0.36,0.84
32144653,-0.54,-0.36,0.84
32146638,-0.54,-0.36,0.84
32148635,-0.54,-0.36,0.84
32150650,-0.55,-0.35,0.86
32152636,-0.55,-0.35,0.86
32154637,-0.55,-0.35,0.86
32156639,-0.55,-0.35,0.86
32158654,-0.55,-0.35,0.86
32160715,-0.55,-0.34,0.87
32162775,-0.55,-0.34,0.87
32164669,-0.55,-0.34,0.87
32166667,-0.55,-0.34,0.87
32168667,-0.55,-0.34,0.87
32170666,-0.53,-0.31,0.88
32172664,-0.53,-0.31,0.88
32174664,-0.53,-0.31,0.88
32176638,-0.53,-0.31,0.88
32178642,-0.53,-0.31,0.88
32180639,-0.51,-0.29,0.90
32182638,-0.51,-0.29,0.90
32184636,-0.51,-0.29,0.90
32186638,-0.51,-0.29,0.90
32188733,-0.51,-0.29,0.90
32190668,-0.50,-0.27,0.91
32192638,-0.50,-0.27,0.91
32194637,-0.50,-0.27,0.91
32196633,-0.50,-0.27,0.91
32198633,-0.50,-0.27,0.91
32200677,-0.50,-0.27,0.91
32202712,-0.49,-0.26,0.93
32204701,-0.49,-0.26,0.93
32206670,-0.49,-0.26,0.93
32208665,-0.49,-0.26,0.93
32210661,-0.49,-0.26,0.93
32212776,-0.49,-0.22,0.93
32214673,-0.49,-0.22,0.93
32216665,-0.49,-0.22,0.93
32218638,-0.49,-0.22,0.93
32220637,-0.49,-0.22,0.93
32222633,-0.46,-0.20,0.94
32224637,-0.46,-0.20,0.94
32226640,-0.46,-0.20,0.94
32228638,-0.46,-0.20,0.94
32230638,-0.46,-0.20,0.94
32232651,-0.44,-0.21,0.94
32234636,-0.44,-0.21,0.94
32236637,-0.44,-0.21,0.94
32238734,-0.44,-0.21,0.94
32240669,-0.44,-0.21,0.94
32242664,-0.40,-0.18,0.94
32244673,-0.40,-0.18,0.94
32246667,-0.40,-0.18,0.94
32248691,-0.40,-0.18,0.94
32250735,-0.40,-0.18,0.94
32252698,-0.37,-0.14,0.95
32254661,-0.37,-0.14,0.95
32256657,-0.37,-0.14,0.95
32258645,-0.37,-0.14,0.95
32260639,-0.37,-0.14,0.95
32262785,-0.34,-0.09,0.96
32264644,-0.34,-0.09,0.96
32266636,-0.34,-0.09,0.96
32268636,-0.34,-0.09,0.96
32270636,-0.34,-0.09,0.96
32272637,-0.32,-0.03,0.94
32274637,-0.32,-0.03,0.94
32276637,-0.32,-0.03,0.94
32278636,-0.32,-0.03,0.94
32280679,-0.32,-0.03,0.94
32282664,-0.30,0.02,0.93
32284659,-0.30,0.02,0.93
32286661,-0.30,0.02,0.93
32288767,-0.30,0.02,0.93
32290702,-0.30,0.02,0.93
32292660,-0.30,0.05,0.93
32294654,-0.30,0.05,0.93
32296727,-0.30,0.05,0.93
32298681,-0.30,0.05,0.93
32300637,-0.30,0.05,0.93
32302636,-0.29,0.08,0.91
32304637,-0.29,0.08,0.91
32306637,-0.29,0.08,0.91
32308638,-0.29,0.08,0.91
32310637,-0.29,0.08,0.91
32312749,-0.27,0.11,0.89
32314647,-0.27,0.11,0.89
32316638,-0.27,0.11,0.89
32318637,-0.27,0.11,0.89
32320685,-0.27,0.11,0.89
32322663,-0.29,0.10,0.89
32324664,-0.29,0.10,0.89
32326666,-0.29,0.10,0.89
32328667,-0.29,0.10,0.89
32330669,-0.29,0.10,0.89
32332664,-0.29,0.07,0.90
32334638,-0.29,0.07,0.90
32336638,-0.29,0.07,0.90
32338736,-0.29,0.07,0.90
32340639,-0.29,0.07,0.90
32342701,-0.28,0.05,0.91
32344686,-0.28,0.05,0.91
32346634,-0.28,0.05,0.91
32348631,-0.28,0.05,0.91
32350644,-0.28,0.05,0.91
32352636,-0.27,0.03,0.91
32354634,-0.27,0.03,0.91
32356635,-0.27,0.03,0.91
32358651,-0.27,0.03,0.91
32360680,-0.27,0.03,0.91
32362769,-0.27,0.03,0.91
32364715,-0.28,0.01,0.90
32366665,-0.28,0.01,0.90
32368663,-0.28,0.01,0.90
32370661,-0.28,0.01,0.90
32372667,-0.28,0.01,0.90
32374659,-0.27,0.01,0.91
32376644,-0.27,0.01,0.91
32378637,-0.27,0.01,0.91
32380638,-0.27,0.01,0.91
32382636,-0.27,0.01,0.91
32384636,-0.26,0.04,0.91
32386640,-0.26,0.04,0.91
32388848,-0.26,0.04,0.91
32390691,-0.26,0.04,0.91
32392633,-0.26,0.04,0.91
32394632,-0.25,0.11,0.91
32396632,-0.25,0.11,0.91
32398636,-0.25,0.11,0.91
32400683,-0.25,0.11,0.91
32402668,-0.25,0.11,0.91
32404667,-0.23,0.18,0.90
32406668,-0.23,0.18,0.90
32408667,-0.23,0.18,0.90
32410667,-0.23,0.18,0.90
32412770,-0.23,0.18,0.90
32414648,-0.24,0.24,0.90
32416652,-0.24,0.24,0.90
32418636,-0.24,0.24,0.90
32420633,-0.24,0.24,0.90
32422637,-0.24,0.24,0.90
32424638,-0.24,0.29,0.90
32426636,-0.24,0.29,0.90
32428637,-0.24,0.29,0.90
32430633,-0.24,0.29,0.90
32432636,-0.24,0.29,0.90
32434776,-0.24,0.30,0.89
32436681,-0.24,0.30,0.89
32438745,-0.24,0.30,0.89
32440693,-0.24,0.30,0.89
32442671,-0.24,0.30,0.89
32444666,-0.26,0.27,0.90
32446665,-0.26,0.27,0.90
32448664,-0.26,0.27,0.90
32450672,-0.26,0.27,0.90
32452667,-0.26,0.27,0.90
32454638,-0.27,0.22,0.93
32456641,-0.27,0.22,0.93
32458653,-0.27,0.22,0.93
32460637,-0.27,0.22,0.93
32462737,-0.27,0.22,0.93
32464644,-0.29,0.17,0.95
32466686,-0.29,0.17,0.95
32468658,-0.29,0.17,0.95
32470637,-0.29,0.17,0.95
32472637,-0.29,0.17,0.95
32474636,-0.28,0.13,0.97
32476636,-0.28,0.13,0.97
32478637,-0.28,0.13,0.97
32480702,-0.28,0.13,0.97
32482703,-0.28,0.13,0.97
32484709,-0.26,0.10,0.98
32486667,-0.26,0.10,0.98
32488777,-0.26,0.10,0.98
32490698,-0.26,0.10,0.98
32492668,-0.26,0.10,0.98
32494666,-0.26,0.09,0.98
32496665,-0.26,0.09,0.98
32498638,-0.26,0.09,0.98
32500640,-0.26,0.09,0.98
32502639,-0.26,0.09,0.98
32504638,-0.26,0.12,0.98
32506638,-0.26,0.12,0.98
32508642,-0.26,0.12,0.98
32510637,-0.26,0.12,0.98
32512743,-0.26,0.12,0.98
32514645,-0.25,0.18,0.95
32516638,-0.25,0.18,0.95
32518637,-0.25,0.18,0.95
32520681,-0.25,0.18,0.95
32522666,-0.25,0.18,0.95
32524667,-0.24,0.24,0.95
32526664,-0.24,0.24,0.95
32528724,-0.24,0.24,0.95
32530701,-0.24,0.24,0.95
32532666,-0.24,0.24,0.95
32534662,-0.24,0.24,0.95
32536662,-0.24,0.30,0.93
32538752,-0.24,0.30,0.93
32540637,-0.24,0.30,0.93
32542636,-0.24,0.30,0.93
32544636,-0.24,0.30,0.93
32546633,-0.25,0.34,0.90
32548639,-0.25,0.34,0.90
32550648,-0.25,0.34,0.90
32552636,-0.25,0.34,0.90
32554633,-0.25,0.34,0.90
32556638,-0.24,0.33,0.89
32558649,-0.24,0.33,0.89
32560669,-0.24,0.33,0.89
32562752,-0.24,0.33,0.89
32564673,-0.24,0.33,0.89
32566663,-0.26,0.30,0.90
32568688,-0.26,0.30,0.90
32570713,-0.26,0.30,0.90
32572664,-0.26,0.30,0.90
32574641,-0.26,0.30,0.90
32576636,-0.26,0.25,0.91
32578637,-0.26,0.25,0.91
32580637,-0.26,0.25,0.91
32582637,-0.26,0.25,0.91
32584638,-0.26,0.25,0.91
32586636,-0.26,0.21,0.92
32588747,-0.26,0.21,0.92
32590721,-0.26,0.21,0.92
32592696,-0.26,0.21,0.92
32594640,-0.26,0.21,0.92
32596630,-0.27,0.16,0.95
32598638,-0.27,0.16,0.95
32600682,-0.27,0.16,0.95
32602664,-0.27,0.16,0.95
32604667,-0.27,0.16,0.95
32606664,-0.29,0.13,0.95
32608663,-0.29,0.13,0.95
32610670,-0.29,0.13,0.95
32612775,-0.29,0.13,0.95
32614642,-0.29,0.13,0.95
32616636,-0.29,0.12,0.96
32618637,-0.29,0.12,0.96
32620637,-0.29,0.12,0.96
32622637,-0.29,0.12,0.96
32624636,-0.29,0.12,0.96
32626636,-0.29,0.13,0.96
32628633,-0.29,0.13,0.96
32630637,-0.29,0.13,0.96
32632636,-0.29,0.13,0.96
32634638,-0.29,0.13,0.96
32636771,-0.29,0.14,0.95
32638790,-0.29,0.14,0.95
32640678,-0.29,0.14,0.95
32642663,-0.29,0.14,0.95
32644665,-0.29,0.14,0.95
32646663,-0.28,0.18,0.95
32648664,-0.28,0.18,0.95
32650671,-0.28,0.18,0.95
32652664,-0.28,0.18,0.95
32654637,-0.28,0.18,0.95
32656639,-0.27,0.24,0.93
32658648,-0.27,0.24,0.93
32660633,-0.27,0.24,0.93
32662740,-0.27,0.24,0.93
32664644,-0.27,0.24,0.93
32666638,-0.27,0.28,0.93
32668633,-0.27,0.28,0.93
32670650,-0.27,0.28,0.93
32672682,-0.27,0.28,0.93
32674638,-0.27,0.28,0.93
32676636,-0.27,0.30,0.91
32678634,-0.27,0.30,0.91
32680678,-0.27,0.30,0.91
32682713,-0.27,0.30,0.91
32684704,-0.27,0.30,0.91
32686663,-0.28,0.28,0.88
32688782,-0.28,0.28,0.88
32690666,-0.28,0.28,0.88
32692694,-0.28,0.28,0.88
32694666,-0.28,0.28,0.88
32696665,-0.28,0.28,0.88
32698639,-0.30,0.25,0.86
32700638,-0.30,0.25,0.86
32702638,-0.30,0.25,0.86
32704637,-0.30,0.25,0.86
32706637,-0.30,0.25,0.86
32708637,-0.33,0.18,0.84
32710637,-0.33,0.18,0.84
32712743,-0.33,0.18,0.84
32714645,-0.33,0.18,0.84
32716638,-0.33,0.18,0.84
32718637,-0.36,0.11,0.83
32720671,-0.36,0.11,0.83
32722664,-0.36,0.11,0.83
32724665,-0.36,0.11,0.83
32726671,-0.36,0.11,0.83
32728724,-0.38,0.04,0.82
32730711,-0.38,0.04,0.82
32732672,-0.38,0.04,0.82
32734662,-0.38,0.04,0.82
32736664,-0.38,0.04,0.82
32738753,-0.39,0.00,0.84
32740638,-0.39,0.00,0.84
32742633,-0.39,0.00,0.84
32744638,-0.39,0.00,0.84
32746638,-0.39,0.00,0.84
32748638,-0.39,-0.02,0.85
32750651,-0.39,-0.02,0.85
32752638,-0.39,-0.02,0.85
32754637,-0.39,-0.02,0.85
32756638,-0.39,-0.02,0.85
32758651,-0.39,-0.02,0.84
32760672,-0.39,-0.02,0.84
32762755,-0.39,-0.02,0.84
32764671,-0.39,-0.02,0.84
32766667,-0.39,-0.02,0.84
32768668,-0.36,0.00,0.84
32770664,-0.36,0.00,0.84
32772669,-0.36,0.00,0.84
32774691,-0.36,0.00,0.84
32776791,-0.36,0.00,0.84
32778671,-0.34,0.05,0.82
32780631,-0.34,0.05,0.82
32782638,-0.34,0.05,0.82
32784638,-0.34,0.05,0.82
32786636,-0.34,0.05,0.82
32788747,-0.33,0.09,0.79
32790638,-0.33,0.09,0.79
32792668,-0.33,0.09,0.79
32794633,-0.33,0.09,0.79
32796633,-0.33,0.09,0.79
32798636,-0.35,0.13,0.76
32800682,-0.35,0.13,0.76
32802664,-0.35,0.13,0.76
32804662,-0.35,0.13,0.76
32806663,-0.35,0.13,0.76
32808668,-0.36,0.10,0.73
32810664,-0.36,0.10,0.73
32812761,-0.36,0.10,0.73
32814642,-0.36,0.10,0.73
32816638,-0.36,0.10,0.73
32818638,-0.37,0.00,0.68
32820636,-0.37,0.00,0.68
32822668,-0.37,0.00,0.68
32824713,-0.37,0.00,0.68
32826666,-0.37,0.00,0.68
32828637,-0.42,-0.07,0.64
32830637,-0.42,-0.07,0.64
32832636,-0.42,-0.07,0.64
32834639,-0.42,-0.07,0.64
32836633,-0.42,-0.07,0.64
32838746,-0.44,-0.16,0.59
32840683,-0.44,-0.16,0.59
32842664,-0.44,-0.16,0.59
32844665,-0.44,-0.16,0.59
32846662,-0.44,-0.16,0.59
32848664,-0.43,-0.21,0.57
32850672,-0.43,-0.21,0.57
32852663,-0.43,-0.21,0.57
32854639,-0.43,-0.21,0.57
32856638,-0.43,-0.21,0.57
32858647,-0.45,-0.24,0.59
32860637,-0.45,-0.24,0.59
32862739,-0.45,-0.24,0.59
32864644,-0.45,-0.24,0.59
32866638,-0.45,-0.24,0.59
32868669,-0.45,-0.24,0.59
32870702,-0.48,-0.28,0.62
32872657,-0.48,-0.28,0.62
32874637,-0.48,-0.28,0.62
32876681,-0.48,-0.28,0.62
32878636,-0.48,-0.28,0.62
32880682,-0.50,-0.31,0.69
32882665,-0.50,-0.31,0.69
32884664,-0.50,-0.31,0.69
32886667,-0.50,-0.31,0.69
32888777,-0.50,-0.31,0.69
32890672,-0.50,-0.35,0.74
32892690,-0.50,-0.35,0.74
32894640,-0.50,-0.35,0.74
32896638,-0.50,-0.35,0.74
32898638,-0.50,-0.35,0.74
32900641,-0.50,-0.38,0.75
32902636,-0.50,-0.38,0.75
32904636,-0.50,-0.38,0.75
32906638,-0.50,-0.38,0.75
32908636,-0.50,-0.38,0.75
32910637,-0.50,-0.41,0.75
32912741,-0.50,-0.41,0.75
32914643,-0.50,-0.41,0.75
32916638,-0.50,-0.41,0.75
32918724,-0.50,-0.41,0.75
32920704,-0.50,-0.43,0.73
32922668,-0.50,-0.43,0.73
32924670,-0.50,-0.43,0.73
32926666,-0.50,-0.43,0.73
32928665,-0.50,-0.43,0.73
32930663,-0.51,-0.43,0.72
32932662,-0.51,-0.43,0.72
32934634,-0.51,-0.43,0.72
32936637,-0.51,-0.43,0.72
32938746,-0.51,-0.43,0.72
32940637,-0.54,-0.44,0.71
32942637,-0.54,-0.44,0.71
32944634,-0.54,-0.44,0.71
32946637,-0.54,-0.44,0.71
32948639,-0.54,-0.44,0.71
32950649,-0.57,-0.45,0.72
32952633,-0.57,-0.45,0.72
32954630,-0.57,-0.45,0.72
32956638,-0.57,-0.45,0.72
32958650,-0.57,-0.45,0.72
32960671,-0.55,-0.48,0.72
32962760,-0.55,-0.48,0.72
32964680,-0.55,-0.48,0.72
32966667,-0.55,-0.48,0.72
32968665,-0.55,-0.48,0.72
32970666,-0.59,-0.50,0.77
32972664,-0.59,-0.50,0.77
32974636,-0.59,-0.50,0.77
32976638,-0.59,-0.50,0.77
32978637,-0.59,-0.50,0.77
32980705,-0.60,-0.52,0.84
32982715,-0.60,-0.52,0.84
32984684,-0.60,-0.52,0.84
32986636,-0.60,-0.52,0.84
32988750,-0.60,-0.52,0.84
32990638,-0.55,-0.51,0.89
32992666,-0.55,-0.51,0.89
32994635,-0.55,-0.51,0.89
32996637,-0.55,-0.51,0.89
32998637,-0.55,-0.51,0.89
33000681,-0.53,-0.48,0.91
33002668,-0.53,-0.48,0.91
33004666,-0.53,-0.48,0.91
33006666,-0.53,-0.48,0.91
33008666,-0.53,-0.48,0.91
33010666,-0.50,-0.43,0.92
33012765,-0.50,-0.43,0.92
33014642,-0.50,-0.43,0.92
33016636,-0.50,-0.43,0.92
33018633,-0.50,-0.43,0.92
33020637,-0.49,-0.35,0.92
33022639,-0.49,-0.35,0.92
33024636,-0.49,-0.35,0.92
33026639,-0.49,-0.35,0.92
33028638,-0.49,-0.35,0.92
33030640,-0.49,-0.35,0.92
33032640,-0.48,-0.30,0.90
33034637,-0.48,-0.30,0.90
33036637,-0.48,-0.30,0.90
33038808,-0.48,-0.30,0.90
33040696,-0.48,-0.30,0.90
33042669,-0.46,-0.29,0.87
33044667,-0.46,-0.29,0.87
33046661,-0.46,-0.29,0.87
33048665,-0.46,-0.29,0.87
33050666,-0.46,-0.29,0.87
33052664,-0.44,-0.29,0.82
33054662,-0.44,-0.29,0.82
33056637,-0.44,-0.29,0.82
33058647,-0.44,-0.29,0.82
33060636,-0.44,-0.29,0.82
33062749,-0.43,-0.29,0.79
33064646,-0.43,-0.29,0.79
33066633,-0.43,-0.29,0.79
33068634,-0.43,-0.29,0.79
33070634,-0.43,-0.29,0.79
33072638,-0.43,-0.30,0.78
33074637,-0.43,-0.30,0.78
33076632,-0.43,-0.30,0.78
33078634,-0.43,-0.30,0.78
33080670,-0.43,-0.30,0.78
33082711,-0.41,-0.30,0.81
33084667,-0.41,-0.30,0.81
33086663,-0.41,-0.30,0.81
33088769,-0.41,-0.30,0.81
33090666,-0.41,-0.30,0.81
33092702,-0.37,-0.26,0.90
33094663,-0.37,-0.26,0.90
33096649,-0.37,-0.26,0.90
33098636,-0.37,-0.26,0.90
33100637,-0.37,-0.26,0.90
33102636,-0.32,-0.16,0.95
33104727,-0.32,-0.16,0.95
33106682,-0.32,-0.16,0.95
33108638,-0.32,-0.16,0.95
33110636,-0.32,-0.16,0.95
33112752,-0.28,-0.04,0.96
33114646,-0.28,-0.04,0.96
33116637,-0.28,-0.04,0.96
33118637,-0.28,-0.04,0.96
33120681,-0.28,-0.04,0.96
33122668,-0.26,0.04,0.96
33124664,-0.26,0.04,0.96
33126664,-0.26,0.04,0.96
33128664,-0.26,0.04,0.96
33130665,-0.26,0.04,0.96
33132665,-0.27,0.07,0.94
33134638,-0.27,0.07,0.94
33136636,-0.27,0.07,0.94
33138730,-0.27,0.07,0.94
33140636,-0.27,0.07,0.94
33142636,-0.26,0.08,0.92
33144636,-0.26,0.08,0.92
33146633,-0.26,0.08,0.92
33148634,-0.26,0.08,0.92
33150650,-0.26,0.08,0.92
33152633,-0.25,0.07,0.89
33154633,-0.25,0.07,0.89
33156639,-0.25,0.07,0.89
33158652,-0.25,0.07,0.89
33160669,-0.25,0.07,0.89
33162787,-0.25,0.05,0.89
33164722,-0.25,0.05,0.89
33166704,-0.25,0.05,0.89
33168669,-0.25,0.05,0.89
33170663,-0.25,0.05,0.89
33172665,-0.25,0.04,0.93
33174664,-0.25,0.04,0.93
33176657,-0.25,0.04,0.93
33178639,-0.25,0.04,0.93
33180638,-0.25,0.04,0.93
33182647,-0.25,0.04,0.98
33184684,-0.25,0.04,0.98
33186638,-0.25,0.04,0.98
33188750,-0.25,0.04,0.98
33190639,-0.25,0.04,0.98
33192667,-0.24,0.10,1.02
33194636,-0.24,0.10,1.02
33196636,-0.24,0.10,1.02
33198633,-0.24,0.10,1.02
33200686,-0.24,0.10,1.02
33202668,-0.24,0.10,1.02
33204668,-0.23,0.15,1.04
33206668,-0.23,0.15,1.04
33208663,-0.23,0.15,1.04
33210666,-0.23,0.15,1.04
33212762,-0.23,0.15,1.04
33214644,-0.24,0.20,1.03
33216636,-0.24,0.20,1.03
33218637,-0.24,0.20,1.03
33220638,-0.24,0.20,1.03
33222637,-0.24,0.20,1.03
33224653,-0.23,0.22,1.00
33226727,-0.23,0.22,1.00
33228681,-0.23,0.22,1.00
33230633,-0.23,0.22,1.00
33232653,-0.23,0.22,1.00
33234639,-0.24,0.21,0.98
33236636,-0.24,0.21,0.98
33238748,-0.24,0.21,0.98
33240680,-0.24,0.21,0.98
33242671,-0.24,0.21,0.98
33244666,-0.25,0.18,0.96
33246668,-0.25,0.18,0.96
33248665,-0.25,0.18,0.96
33250675,-0.25,0.18,0.96
33252663,-0.25,0.18,0.96
33254633,-0.25,0.14,0.94
33256637,-0.25,0.14,0.94
33258646,-0.25,0.14,0.94
33260633,-0.25,0.14,0.94
33262737,-0.25,0.14,0.94
33264647,-0.25,0.10,0.93
33266636,-0.25,0.10,0.93
33268636,-0.25,0.10,0.93
33270637,-0.25,0.10,0.93
33272636,-0.25,0.10,0.93
33274636,-0.25,0.06,0.96
33276633,-0.25,0.06,0.96
33278638,-0.25,0.06,0.96
33280674,-0.25,0.06,0.96
33282664,-0.25,0.06,0.96
33284678,-0.26,0.03,0.98
33286709,-0.26,0.03,0.98
33288829,-0.26,0.03,0.98
33290707,-0.26,0.03,0.98
33292701,-0.26,0.03,0.98
33294664,-0.26,0.03,0.99
33296664,-0.26,0.03,0.99
33298652,-0.26,0.03,0.99
33300636,-0.26,0.03,0.99
33302637,-0.26,0.03,0.99
33304637,-0.27,0.08,1.00
33306633,-0.27,0.08,1.00
33308637,-0.27,0.08,1.00
33310637,-0.27,0.08,1.00
33312749,-0.27,0.08,1.00
33314644,-0.26,0.14,1.01
33316638,-0.26,0.14,1.01
33318637,-0.26,0.14,1.01
33320672,-0.26,0.14,1.01
33322666,-0.26,0.14,1.01
33324663,-0.25,0.20,1.01
33326664,-0.25,0.20,1.01
33328665,-0.25,0.20,1.01
33330663,-0.25,0.20,1.01
33332637,-0.25,0.20,1.01
33334636,-0.25,0.23,0.99
33336637,-0.25,0.23,0.99
33338733,-0.25,0.23,0.99
33340638,-0.25,0.23,0.99
33342636,-0.25,0.23,0.99
33344636,-0.24,0.27,0.97
33346638,-0.24,0.27,0.97
33348727,-0.24,0.27,0.97
33350687,-0.24,0.27,0.97
33352637,-0.24,0.27,0.97
33354636,-0.24,0.29,0.95
33356638,-0.24,0.29,0.95
33358645,-0.24,0.29,0.95
33360682,-0.24,0.29,0.95
33362768,-0.24,0.29,0.95
33364667,-0.24,0.29,0.95
33366663,-0.24,0.30,0.92
33368664,-0.24,0.30,0.92
33370665,-0.24,0.30,0.92
33372666,-0.24,0.30,0.92
33374638,-0.24,0.30,0.92
33376636,-0.23,0.29,0.91
33378637,-0.23,0.29,0.91
33380637,-0.23,0.29,0.91
33382638,-0.23,0.29,0.91
33384638,-0.23,0.29,0.91
33386633,-0.24,0.27,0.88
33388795,-0.24,0.27,0.88
33390637,-0.24,0.27,0.88
33392672,-0.24,0.27,0.88
33394726,-0.24,0.27,0.88
33396678,-0.26,0.24,0.88
33398636,-0.26,0.24,0.88
33400680,-0.26,0.24,0.88
33402664,-0.26,0.24,0.88
33404666,-0.26,0.24,0.88
33406670,-0.27,0.22,0.89
33408665,-0.27,0.22,0.89
33410665,-0.27,0.22,0.89
33412772,-0.27,0.22,0.89
33414643,-0.27,0.22,0.89
33416650,-0.25,0.21,0.88
33418637,-0.25,0.21,0.88
33420637,-0.25,0.21,0.88
33422637,-0.25,0.21,0.88
33424638,-0.25,0.21,0.88
33426638,-0.26,0.24,0.89
33428636,-0.26,0.24,0.89
33430637,-0.26,0.24,0.89
33432633,-0.26,0.24,0.89
33434633,-0.26,0.24,0.89
33436632,-0.25,0.24,0.89
33438710,-0.25,0.24,0.89
33440669,-0.25,0.24,0.89
33442665,-0.25,0.24,0.89
33444665,-0.25,0.24,0.89
33446666,-0.26,0.23,0.88
33448665,-0.26,0.23,0.88
33450671,-0.26,0.23,0.88
33452667,-0.26,0.23,0.88
33454721,-0.26,0.23,0.88
33456682,-0.29,0.17,0.85
33458656,-0.29,0.17,0.85
33460636,-0.29,0.17,0.85
33462748,-0.29,0.17,0.85
33464645,-0.29,0.17,0.85
33466636,-0.30,0.11,0.84
33468633,-0.30,0.11,0.84
33470631,-0.30,0.11,0.84
33472636,-0.30,0.11,0.84
33474633,-0.30,0.11,0.84
33476637,-0.30,0.07,0.84
33478633,-0.30,0.07,0.84
33480684,-0.30,0.07,0.84
33482675,-0.30,0.07,0.84
33484666,-0.30,0.07,0.84
33486668,-0.30,0.06,0.85
33488768,-0.30,0.06,0.85
33490700,-0.30,0.06,0.85
33492715,-0.30,0.06,0.85
33494670,-0.30,0.06,0.85
33496656,-0.31,0.07,0.84
33498637,-0.31,0.07,0.84
33500633,-0.31,0.07,0.84
33502772,-0.31,0.07,0.84
33504676,-0.31,0.07,0.84
33506638,-0.32,0.10,0.83
33508638,-0.32,0.10,0.83
33510637,-0.32,0.10,0.83
33512751,-0.32,0.10,0.83
33514643,-0.32,0.10,0.83
33516636,-0.34,0.14,0.82
33518638,-0.34,0.14,0.82
33520724,-0.34,0.14,0.82
33522676,-0.34,0.14,0.82
33524665,-0.34,0.14,0.82
33526661,-0.34,0.18,0.83
33528662,-0.34,0.18,0.83
33530661,-0.34,0.18,0.83
33532666,-0.34,0.18,0.83
33534663,-0.34,0.18,0.83
33536638,-0.34,0.18,0.83
33538747,-0.33,0.16,0.81
33540637,-0.33,0.16,0.81
33542637,-0.33,0.16,0.81
33544637,-0.33,0.16,0.81
33546637,-0.33,0.16,0.81
33548638,-0.34,0.10,0.79
33550651,-0.34,0.10,0.79
33552636,-0.34,0.10,0.79
33554636,-0.34,0.10,0.79
33556640,-0.34,0.10,0.79
33558652,-0.35,0.02,0.76
33560684,-0.35,0.02,0.76
33562775,-0.35,0.02,0.76
33564697,-0.35,0.02,0.76
33566670,-0.35,0.02,0.76
33568669,-0.38,-0.07,0.71
33570663,-0.38,-0.07,0.71
33572667,-0.38,-0.07,0.71
33574667,-0.38,-0.07,0.71
33576651,-0.38,-0.07,0.71
33578638,-0.40,-0.14,0.66
33580637,-0.40,-0.14,0.66
33582640,-0.40,-0.14,0.66
33584636,-0.40,-0.14,0.66
33586639,-0.40,-0.14,0.66
33588747,-0.42,-0.16,0.64
33590638,-0.42,-0.16,0.64
33592701,-0.42,-0.16,0.64
33594693,-0.42,-0.16,0.64
33596637,-0.42,-0.16,0.64
33598633,-0.45,-0.18,0.62
33600685,-0.45,-0.18,0.62
33602667,-0.45,-0.18,0.62
33604667,-0.45,-0.18,0.62
33606665,-0.45,-0.18,0.62
33608665,-0.46,-0.18,0.64
33610664,-0.46,-0.18,0.64
33612769,-0.46,-0.18,0.64
33614642,-0.46,-0.18,0.64
33616636,-0.46,-0.18,0.64
33618637,-0.50,-0.19,0.66
33620635,-0.50,-0.19,0.66
33622691,-0.50,-0.19,0.66
33624698,-0.50,-0.19,0.66
33626629,-0.50,-0.19,0.66
33628633,-0.50,-0.22,0.69
33630634,-0.50,-0.22,0.69
33632633,-0.50,-0.22,0.69
33634632,-0.50,-0.22,0.69
33636637,-0.50,-0.22,0.69
33638741,-0.48,-0.26,0.73
33640680,-0.48,-0.26,0.73
33642665,-0.48,-0.26,0.73
33644664,-0.48,-0.26,0.73
33646667,-0.48,-0.26,0.73
33648664,-0.49,-0.26,0.76
33650672,-0.49,-0.26,0.76
33652663,-0.49,-0.26,0.76
33654638,-0.49,-0.26,0.76
33656638,-0.49,-0.26,0.76
33658644,-0.47,-0.27,0.80
33660631,-0.47,-0.27,0.80
33662736,-0.47,-0.27,0.80
33664644,-0.47,-0.27,0.80
33666636,-0.47,-0.27,0.80
33668635,-0.46,-0.28,0.82
33670636,-0.46,-0.28,0.82
33672636,-0.46,-0.28,0.82
33674633,-0.46,-0.28,0.82
33676636,-0.46,-0.28,0.82
33678636,-0.48,-0.32,0.82
33680671,-0.48,-0.32,0.82
33682665,-0.48,-0.32,0.82
33684721,-0.48,-0.32,0.82
33686704,-0.48,-0.32,0.82
33688780,-0.49,-0.35,0.82
33690665,-0.49,-0.35,0.82
33692697,-0.49,-0.35,0.82
33694663,-0.49,-0.35,0.82
33696717,-0.49,-0.35,0.82
33698664,-0.50,-0.36,0.82
33700638,-0.50,-0.36,0.82
33702637,-0.50,-0.36,0.82
33704637,-0.50,-0.36,0.82
33706639,-0.50,-0.36,0.82
33708633,-0.50,-0.36,0.82
33710636,-0.52,-0.36,0.86
33712749,-0.52,-0.36,0.86
33714645,-0.52,-0.36,0.86
33716638,-0.52,-0.36,0.86
33718638,-0.52,-0.36,0.86
33720670,-0.52,-0.32,0.91
33722667,-0.52,-0.32,0.91
33724666,-0.52,-0.32,0.91
33726663,-0.52,-0.32,0.91
33728665,-0.52,-0.32,0.91
33730666,-0.51,-0.28,0.92
33732665,-0.51,-0.28,0.92
33734716,-0.51,-0.28,0.92
33736685,-0.51,-0.28,0.92
33738747,-0.51,-0.28,0.92
33740637,-0.49,-0.25,0.90
33742636,-0.49,-0.25,0.90
33744637,-0.49,-0.25,0.90
33746637,-0.49,-0.25,0.90
33748639,-0.49,-0.25,0.90
33750651,-0.46,-0.23,0.91
33752639,-0.46,-0.23,0.91
33754637,-0.46,-0.23,0.91
33756635,-0.46,-0.23,0.91
33758650,-0.46,-0.23,0.91
33760682,-0.47,-0.21,0.91
33762753,-0.47,-0.21,0.91
33764673,-0.47,-0.21,0.91
33766663,-0.47,-0.21,0.91
33768666,-0.47,-0.21,0.91
33770671,-0.48,-0.19,0.91
33772663,-0.48,-0.19,0.91
33774640,-0.48,-0.19,0.91
33776638,-0.48,-0.19,0.91
33778651,-0.48,-0.19,0.91
33780756,-0.46,-0.21,0.90
33782680,-0.46,-0.21,0.90
33784632,-0.46,-0.21,0.90
33786633,-0.46,-0.21,0.90
33788743,-0.46,-0.21,0.90
33790633,-0.45,-0.21,0.89
33792672,-0.45,-0.21,0.89
33794637,-0.45,-0.21,0.89
33796637,-0.45,-0.21,0.89
33798689,-0.45,-0.21,0.89
33800680,-0.42,-0.19,0.87
33802667,-0.42,-0.19,0.87
33804668,-0.42,-0.19,0.87
33806669,-0.42,-0.19,0.87
33808665,-0.42,-0.19,0.87
33810666,-0.39,-0.17,0.86
33812771,-0.39,-0.17,0.86
33814645,-0.39,-0.17,0.86
33816647,-0.39,-0.17,0.86
33818638,-0.39,-0.17,0.86
33820638,-0.39,-0.14,0.88
33822636,-0.39,-0.14,0.88
33824638,-0.39,-0.14,0.88
33826718,-0.39,-0.14,0.88
33828680,-0.39,-0.14,0.88
33830629,-0.37,-0.11,0.91
33832633,-0.37,-0.11,0.91
33834637,-0.37,-0.11,0.91
33836634,-0.37,-0.11,0.91
33838746,-0.37,-0.11,0.91
33840678,-0.34,-0.07,0.91
33842664,-0.34,-0.07,0.91
33844661,-0.34,-0.07,0.91
33846662,-0.34,-0.07,0.91
33848664,-0.34,-0.07,0.91
33850675,-0.32,-0.01,0.90
33852666,-0.32,-0.01,0.90
33854637,-0.32,-0.01,0.90
33856640,-0.32,-0.01,0.90
33858646,-0.32,-0.01,0.90
33860632,-0.31,0.00,0.89
33862734,-0.31,0.00,0.89
33864646,-0.31,0.00,0.89
33866637,-0.31,0.00,0.89
33868633,-0.31,0.00,0.89
33870636,-0.31,0.00,0.89
33872642,-0.31,0.01,0.90
33874765,-0.31,0.01,0.90
33876673,-0.31,0.01,0.90
33878637,-0.31,0.01,0.90
33880679,-0.31,0.01,0.90
33882670,-0.30,0.00,0.89
33884667,-0.30,0.00,0.89
33886664,-0.30,0.00,0.89
33888782,-0.30,0.00,0.89
33890668,-0.30,0.00,0.89
33892693,-0.32,0.00,0.88
33894640,-0.32,0.00,0.88
33896639,-0.32,0.00,0.88
33898638,-0.32,0.00,0.88
33900689,-0.32,0.00,0.88
33902631,-0.31,-0.03,0.88
33904632,-0.31,-0.03,0.88
33906632,-0.31,-0.03,0.88
33908637,-0.31,-0.03,0.88
33910638,-0.31,-0.03,0.88
33912747,-0.31,-0.04,0.89
33914644,-0.31,-0.04,0.89
33916633,-0.31,-0.04,0.89
33918642,-0.31,-0.04,0.89
33920732,-0.31,-0.04,0.89
33922706,-0.29,-0.04,0.92
33924666,-0.29,-0.04,0.92
33926668,-0.29,-0.04,0.92
33928662,-0.29,-0.04,0.92
33930664,-0.29,-0.04,0.92
33932666,-0.27,0.02,0.95
33934664,-0.27,0.02,0.95
33936637,-0.27,0.02,0.95
33938747,-0.27,0.02,0.95
33940637,-0.27,0.02,0.95
33942637,-0.26,0.09,0.96
33944636,-0.26,0.09,0.96
33946637,-0.26,0.09,0.96
33948646,-0.26,0.09,0.96
33950651,-0.26,0.09,0.96
33952632,-0.25,0.13,0.95
33954633,-0.25,0.13,0.95
33956634,-0.25,0.13,0.95
33958652,-0.25,0.13,0.95
33960638,-0.25,0.13,0.95
33962763,-0.26,0.15,0.92
33964672,-0.26,0.15,0.92
33966722,-0.26,0.15,0.92
33968700,-0.26,0.15,0.92
33970664,-0.26,0.15,0.92
33972662,-0.27,0.15,0.91
33974665,-0.27,0.15,0.91
33976664,-0.27,0.15,0.91
33978652,-0.27,0.15,0.91
33980638,-0.27,0.15,0.91
33982653,-0.28,0.14,0.89
33984632,-0.28,0.14,0.89
33986637,-0.28,0.14,0.89
33988753,-0.28,0.14,0.89
33990639,-0.28,0.14,0.89
33992669,-0.27,0.12,0.89
33994637,-0.27,0.12,0.89
33996636,-0.27,0.12,0.89
33998632,-0.27,0.12,0.89
34000636,-0.27,0.12,0.89
34002713,-0.26,0.11,0.89
34004690,-0.26,0.11,0.89
34006664,-0.26,0.11,0.89
34008665,-0.26,0.11,0.89
34010664,-0.26,0.11,0.89
34012769,-0.26,0.10,0.93
34014674,-0.26,0.10,0.93
34016664,-0.26,0.10,0.93
34018636,-0.26,0.10,0.93
34020638,-0.26,0.10,0.93
34022638,-0.25,0.12,0.98
34024637,-0.25,0.12,0.98
34026637,-0.25,0.12,0.98
34028636,-0.25,0.12,0.98
34030634,-0.25,0.12,0.98
34032633,-0.25,0.12,0.98
34034631,-0.23,0.16,0.99
34036631,-0.23,0.16,0.99
34038730,-0.23,0.16,0.99
34040637,-0.23,0.16,0.99
34042680,-0.23,0.16,0.99
34044756,-0.21,0.22,1.00
34046705,-0.21,0.22,1.00
34048666,-0.21,0.22,1.00
34050672,-0.21,0.22,1.00
34052668,-0.21,0.22,1.00
34054661,-0.23,0.26,1.00
34056662,-0.23,0.26,1.00
34058644,-0.23,0.26,1.00
34060637,-0.23,0.26,1.00
34062754,-0.23,0.26,1.00
34064646,-0.24,0.28,1.00
34066635,-0.24,0.28,1.00
34068638,-0.24,0.28,1.00
34070633,-0.24,0.28,1.00
34072636,-0.24,0.28,1.00
34074638,-0.23,0.28,0.98
34076636,-0.23,0.28,0.98
34078639,-0.23,0.28,0.98
34080640,-0.23,0.28,0.98
34082669,-0.23,0.28,0.98
34084664,-0.23,0.26,0.98
34086662,-0.23,0.26,0.98
34088773,-0.23,0.26,0.98
34090721,-0.23,0.26,0.98
34092714,-0.23,0.26,0.98
34094667,-0.23,0.24,0.97
34096662,-0.23,0.24,0.97
34098661,-0.23,0.24,0.97
34100637,-0.23,0.24,0.97
34102638,-0.23,0.24,0.97
34104665,-0.23,0.22,0.96
34106690,-0.23,0.22,0.96
34108636,-0.23,0.22,0.96
34110633,-0.23,0.22,0.96
34112745,-0.23,0.22,0.96
34114644,-0.25,0.22,0.96
34116634,-0.25,0.22,0.96
34118638,-0.25,0.22,0.96
34120637,-0.25,0.22,0.96
34122681,-0.25,0.22,0.96
34124665,-0.25,0.22,0.99
34126667,-0.25,0.22,0.99
34128668,-0.25,0.22,0.99
34130663,-0.25,0.22,0.99
34132667,-0.25,0.22,0.99
34134648,-0.24,0.25,1.00
34136654,-0.24,0.25,1.00
34138865,-0.24,0.25,1.00
34140669,-0.24,0.25,1.00
34142637,-0.24,0.25,1.00
34144638,-0.25,0.26,1.01
34146637,-0.25,0.26,1.01
34148638,-0.25,0.26,1.01
34150650,-0.25,0.26,1.01
34152633,-0.25,0.26,1.01
34154637,-0.25,0.27,1.00
34156638,-0.25,0.27,1.00
34158651,-0.25,0.27,1.00
34160636,-0.25,0.27,1.00
34162774,-0.25,0.27,1.00
34164669,-0.25,0.27,0.98
34166663,-0.25,0.27,0.98
34168664,-0.25,0.27,0.98
34170662,-0.25,0.27,0.98
34172665,-0.25,0.27,0.98
34174669,-0.26,0.25,0.95
34176638,-0.26,0.25,0.95
34178638,-0.26,0.25,0.95
34180635,-0.26,0.25,0.95
34182666,-0.26,0.25,0.95
34184782,-0.26,0.22,0.92
34186674,-0.26,0.22,0.92
34188747,-0.26,0.22,0.92
34190639,-0.26,0.22,0.92
34192671,-0.26,0.22,0.92
34194637,-0.28,0.20,0.87
34196632,-0.28,0.20,0.87
34198631,-0.28,0.20,0.87
34200632,-0.28,0.20,0.87
34202683,-0.28,0.20,0.87
34204667,-0.28,0.20,0.87
34206667,-0.28,0.18,0.84
34208713,-0.28,0.18,0.84
34210666,-0.28,0.18,0.84
34212769,-0.28,0.18,0.84
34214675,-0.28,0.18,0.84
34216663,-0.29,0.16,0.84
34218633,-0.29,0.16,0.84
34220637,-0.29,0.16,0.84
34222637,-0.29,0.16,0.84
34224636,-0.29,0.16,0.84
34226636,-0.30,0.16,0.82
34228638,-0.30,0.16,0.82
34230639,-0.30,0.16,0.82
34232717,-0.30,0.16,0.82
34234682,-0.30,0.16,0.82
34236637,-0.30,0.16,0.82
34238750,-0.30,0.16,0.82
34240638,-0.30,0.16,0.82
34242682,-0.30,0.16,0.82
34244666,-0.30,0.16,0.82
34246665,-0.30,0.16,0.80
34248667,-0.30,0.16,0.80
34250672,-0.30,0.16,0.80
34252667,-0.30,0.16,0.80
34254667,-0.30,0.16,0.80
34256638,-0.32,0.17,0.79
34258645,-0.32,0.17,0.79
34260635,-0.32,0.17,0.79
34262742,-0.32,0.17,0.79
34264647,-0.32,0.17,0.79
34266638,-0.32,0.17,0.78
34268636,-0.32,0.17,0.78
34270636,-0.32,0.17,0.78
34272636,-0.32,0.17,0.78
34274638,-0.32,0.17,0.78
34276640,-0.33,0.18,0.76
34278637,-0.33,0.18,0.76
34280637,-0.33,0.18,0.76
34282672,-0.33,0.18,0.76
34284667,-0.33,0.18,0.76
34286666,-0.34,0.16,0.75
34288765,-0.34,0.16,0.75
34290708,-0.34,0.16,0.75
34292695,-0.34,0.16,0.75
34294708,-0.34,0.16,0.75
34296666,-0.36,0.12,0.75
34298663,-0.36,0.12,0.75
34300641,-0.36,0.12,0.75
34302639,-0.36,0.12,0.75
34304638,-0.36,0.12,0.75
34306637,-0.38,0.06,0.75
34308637,-0.38,0.06,0.75
34310689,-0.38,0.06,0.75
34312752,-0.38,0.06,0.75
34314644,-0.38,0.06,0.75
34316637,-0.39,0.01,0.74
34318633,-0.39,0.01,0.74
34320637,-0.39,0.01,0.74
34322679,-0.39,0.01,0.74
34324664,-0.39,0.01,0.74
34326667,-0.39,-0.02,0.73
34328668,-0.39,-0.02,0.73
34330666,-0.39,-0.02,0.73
34332665,-0.39,-0.02,0.73
34334662,-0.39,-0.02,0.73
34336636,-0.38,-0.04,0.71
34338727,-0.38,-0.04,0.71
34340637,-0.38,-0.04,0.71
34342783,-0.38,-0.04,0.71
34344674,-0.38,-0.04,0.71
34346633,-0.39,-0.06,0.68
34348635,-0.39,-0.06,0.68
34350643,-0.39,-0.06,0.68
34352637,-0.39,-0.06,0.68
34354634,-0.39,-0.06,0.68
34356635,-0.39,-0.08,0.65
34358649,-0.39,-0.08,0.65
34360637,-0.39,-0.08,0.65
34362776,-0.39,-0.08,0.65
34364674,-0.39,-0.08,0.65
34366664,-0.42,-0.11,0.64
34368660,-0.42,-0.11,0.64
34370663,-0.42,-0.11,0.64
34372665,-0.42,-0.11,0.64
34374660,-0.42,-0.11,0.64
34376636,-0.42,-0.11,0.64
34378636,-0.45,-0.15,0.64
34380636,-0.45,-0.15,0.64
34382633,-0.45,-0.15,0.64
34384638,-0.45,-0.15,0.64
34386637,-0.45,-0.15,0.64
34388736,-0.47,-0.21,0.67
34390637,-0.47,-0.21,0.67
34392638,-0.47,-0.21,0.67
34394673,-0.47,-0.21,0.67
34396655,-0.47,-0.21,0.67
34398753,-0.48,-0.25,0.68
34400681,-0.48,-0.25,0.68
34402675,-0.48,-0.25,0.68
34404665,-0.48,-0.25,0.68
34406676,-0.48,-0.25,0.68
34408669,-0.48,-0.25,0.70
34410665,-0.48,-0.25,0.70
34412781,-0.48,-0.25,0.70
34414671,-0.48,-0.25,0.70
34416666,-0.48,-0.25,0.70
34418638,-0.49,-0.26,0.73
34420639,-0.49,-0.26,0.73
34422637,-0.49,-0.26,0.73
34424637,-0.49,-0.26,0.73
34426637,-0.49,-0.26,0.73
34428640,-0.49,-0.30,0.73
34430638,-0.49,-0.30,0.73
34432638,-0.49,-0.30,0.73
34434637,-0.49,-0.30,0.73
34436636,-0.49,-0.30,0.73
34438736,-0.49,-0.31,0.75
34440636,-0.49,-0.31,0.75
34442713,-0.49,-0.31,0.75
34444705,-0.49,-0.31,0.75
34446666,-0.49,-0.31,0.75
34448668,-0.50,-0.30,0.77
34450671,-0.50,-0.30,0.77
34452663,-0.50,-0.30,0.77
34454661,-0.50,-0.30,0.77
34456666,-0.50,-0.30,0.77
34458655,-0.50,-0.33,0.78
34460636,-0.50,-0.33,0.78
34462751,-0.50,-0.33,0.78
34464644,-0.50,-0.33,0.78
34466636,-0.50,-0.33,0.78
34468638,-0.50,-0.34,0.80
34470637,-0.50,-0.34,0.80
34472644,-0.50,-0.34,0.80
34474638,-0.50,-0.34,0.80
34476636,-0.50,-0.34,0.80
34478636,-0.50,-0.34,0.85
34480641,-0.50,-0.34,0.85
34482676,-0.50,-0.34,0.85
34484668,-0.50,-0.34,0.85
34486664,-0.50,-0.34,0.85
34488790,-0.49,-0.32,0.88
34490716,-0.49,-0.32,0.88
34492705,-0.49,-0.32,0.88
34494703,-0.49,-0.32,0.88
34496666,-0.49,-0.32,0.88
34498665,-0.48,-0.29,0.89
34500638,-0.48,-0.29,0.89
34502640,-0.48,-0.29,0.89
34504639,-0.48,-0.29,0.89
34506638,-0.48,-0.29,0.89
34508641,-0.46,-0.25,0.91
34510640,-0.46,-0.25,0.91
34512755,-0.46,-0.25,0.91
34514696,-0.46,-0.25,0.91
34516657,-0.46,-0.25,0.91
34518633,-0.45,-0.23,0.91
34520654,-0.45,-0.23,0.91
34522680,-0.45,-0.23,0.91
34524667,-0.45,-0.23,0.91
34526666,-0.45,-0.23,0.91
34528665,-0.45,-0.20,0.93
34530665,-0.45,-0.20,0.93
34532663,-0.45,-0.20,0.93
34534661,-0.45,-0.20,0.93
34536637,-0.45,-0.20,0.93
34538743,-0.45,-0.18,0.93
34540638,-0.45,-0.18,0.93
34542636,-0.45,-0.18,0.93
34544637,-0.45,-0.18,0.93
34546633,-0.45,-0.18,0.93
34548639,-0.45,-0.18,0.93
34550649,-0.43,-0.16,0.94
34552637,-0.43,-0.16,0.94
34554631,-0.43,-0.16,0.94
34556638,-0.43,-0.16,0.94
34558651,-0.43,-0.16,0.94
34560637,-0.40,-0.15,0.94
34562778,-0.40,-0.15,0.94
34564700,-0.40,-0.15,0.94
34566667,-0.40,-0.15,0.94
34568663,-0.40,-0.15,0.94
34570665,-0.38,-0.15,0.95
34572659,-0.38,-0.15,0.95
34574664,-0.38,-0.15,0.95
34576661,-0.38,-0.15,0.95
34578636,-0.38,-0.15,0.95
34580636,-0.38,-0.16,0.94
34582638,-0.38,-0.16,0.94
34584634,-0.38,-0.16,0.94
34586638,-0.38,-0.16,0.94
34588748,-0.38,-0.16,0.94
34590638,-0.37,-0.16,0.94
34592635,-0.37,-0.16,0.94
34594669,-0.37,-0.16,0.94
34596638,-0.37,-0.16,0.94
34598637,-0.37,-0.16,0.94
34600638,-0.36,-0.17,0.94
34602673,-0.36,-0.17,0.94
34604667,-0.36,-0.17,0.94
34606664,-0.36,-0.17,0.94
34608667,-0.36,-0.17,0.94
34610664,-0.32,-0.15,0.93
34612775,-0.32,-0.15,0.93
34614699,-0.32,-0.15,0.93
34616672,-0.32,-0.15,0.93
34618707,-0.32,-0.15,0.93
34620645,-0.29,-0.09,0.91
34622631,-0.29,-0.09,0.91
34624639,-0.29,-0.09,0.91
34626632,-0.29,-0.09,0.91
34628637,-0.29,-0.09,0.91
34630637,-0.28,-0.05,0.90
34632637,-0.28,-0.05,0.90
34634637,-0.28,-0.05,0.90
34636638,-0.28,-0.05,0.90
34638751,-0.28,-0.05,0.90
34640633,-0.28,-0.01,0.89
34642667,-0.28,-0.01,0.89
34644666,-0.28,-0.01,0.89
34646662,-0.28,-0.01,0.89
34648666,-0.28,-0.01,0.89
34650672,-0.29,0.01,0.91
34652660,-0.29,0.01,0.91
34654640,-0.29,0.01,0.91
34656639,-0.29,0.01,0.91
34658648,-0.29,0.01,0.91
34660632,-0.27,0.04,0.93
34662739,-0.27,0.04,0.93
34664646,-0.27,0.04,0.93
34666638,-0.27,0.04,0.93
34668642,-0.27,0.04,0.93
34670639,-0.25,0.09,0.96
34672638,-0.25,0.09,0.96
34674751,-0.25,0.09,0.96
34676680,-0.25,0.09,0.96
34678639,-0.25,0.09,0.96
34680637,-0.24,0.12,0.98
34682671,-0.24,0.12,0.98
34684664,-0.24,0.12,0.98
34686665,-0.24,0.12,0.98
34688778,-0.24,0.12,0.98
34690666,-0.24,0.12,1.00
34692669,-0.24,0.12,1.00
34694696,-0.24,0.12,1.00
34696636,-0.24,0.12,1.00
34698636,-0.24,0.12,1.00
34700637,-0.23,0.11,1.00
34702633,-0.23,0.11,1.00
34704637,-0.23,0.11,1.00
34706637,-0.23,0.11,1.00
34708638,-0.23,0.11,1.00
34710639,-0.23,0.11,1.00
34712745,-0.24,0.10,1.00
34714645,-0.24,0.10,1.00
34716637,-0.24,0.10,1.00
34718651,-0.24,0.10,1.00
34720723,-0.24,0.10,1.00
34722702,-0.23,0.11,1.00
34724668,-0.23,0.11,1.00
34726665,-0.23,0.11,1.00
34728661,-0.23,0.11,1.00
34730665,-0.23,0.11,1.00
34732677,-0.22,0.13,0.98
34734669,-0.22,0.13,0.98
34736663,-0.22,0.13,0.98
34738753,-0.22,0.13,0.98
34740638,-0.22,0.13,0.98
34742637,-0.20,0.15,0.96
34744637,-0.20,0.15,0.96
34746638,-0.20,0.15,0.96
34748639,-0.20,0.15,0.96
34750649,-0.20,0.15,0.96
34752636,-0.20,0.17,0.95
34754630,-0.20,0.17,0.95
34756635,-0.20,0.17,0.95
34758652,-0.20,0.17,0.95
34760638,-0.20,0.17,0.95
34762761,-0.20,0.18,0.95
34764671,-0.20,0.18,0.95
34766726,-0.20,0.18,0.95
34768700,-0.20,0.18,0.95
34770662,-0.20,0.18,0.95
34772663,-0.21,0.18,0.94
34774662,-0.21,0.18,0.94
34776662,-0.21,0.18,0.94
34778648,-0.21,0.18,0.94
34780638,-0.21,0.18,0.94
34782640,-0.20,0.20,0.94
34784639,-0.20,0.20,0.94
34786638,-0.20,0.20,0.94
34788753,-0.20,0.20,0.94
34790637,-0.20,0.20,0.94
34792634,-0.20,0.23,0.95
34794667,-0.20,0.23,0.95
34796636,-0.20,0.23,0.95
34798633,-0.20,0.23,0.95
34800646,-0.20,0.23,0.95
34802676,-0.20,0.26,0.95
34804666,-0.20,0.26,0.95
34806666,-0.20,0.26,0.95
34808667,-0.20,0.26,0.95
34810665,-0.20,0.26,0.95
34812783,-0.19,0.27,0.95
34814706,-0.19,0.27,0.95
34816669,-0.19,0.27,0.95
34818657,-0.19,0.27,0.95
34820636,-0.19,0.27,0.95
34822683,-0.18,0.29,0.94
34824635,-0.18,0.29,0.94
34826636,-0.18,0.29,0.94
34828638,-0.18,0.29,0.94
34830638,-0.18,0.29,0.94
34832636,-0.19,0.29,0.93
34834633,-0.19,0.29,0.93
34836634,-0.19,0.29,0.93
34838745,-0.19,0.29,0.93
34840636,-0.19,0.29,0.93
34842681,-0.19,0.29,0.93
34844666,-0.19,0.29,0.93
34846666,-0.19,0.29,0.93
34848665,-0.19,0.29,0.93
34850673,-0.19,0.29,0.93
34852665,-0.20,0.27,0.93
34854664,-0.20,0.27,0.93
34856638,-0.20,0.27,0.93
34858663,-0.20,0.27,0.93
34860742,-0.20,0.27,0.93
34862781,-0.20,0.24,0.93
34864641,-0.20,0.24,0.93
34866640,-0.20,0.24,0.93
34868637,-0.20,0.24,0.93
34870638,-0.20,0.24,0.93
34872638,-0.20,0.24,0.93
34874637,-0.20,0.21,0.95
34876635,-0.20,0.21,0.95
34878636,-0.20,0.21,0.95
34880636,-0.20,0.21,0.95
34882673,-0.20,0.21,0.95
34884663,-0.20,0.19,0.96
34886662,-0.20,0.19,0.96
34888765,-0.20,0.19,0.96
34890666,-0.20,0.19,0.96
34892666,-0.20,0.19,0.96
34894693,-0.21,0.19,0.96
34896638,-0.21,0.19,0.96
34898638,-0.21,0.19,0.96
34900637,-0.21,0.19,0.96
34902636,-0.21,0.19,0.96
34904638,-0.21,0.20,0.95
34906638,-0.21,0.20,0.95
34908712,-0.21,0.20,0.95
34910684,-0.21,0.20,0.95
34912753,-0.21,0.20,0.95
34914642,-0.22,0.21,0.95
34916636,-0.22,0.21,0.95
34918636,-0.22,0.21,0.95
34920634,-0.22,0.21,0.95
34922682,-0.22,0.21,0.95
34924706,-0.23,0.23,0.95
34926668,-0.23,0.23,0.95
34928663,-0.23,0.23,0.95
34930665,-0.23,0.23,0.95
34932670,-0.23,0.23,0.95
34934666,-0.23,0.24,0.93
34936654,-0.23,0.24,0.93
34938741,-0.23,0.24,0.93
34940632,-0.23,0.24,0.93
34942638,-0.23,0.24,0.93
34944637,-0.23,0.25,0.92
34946636,-0.23,0.25,0.92
34948638,-0.23,0.25,0.92
34950646,-0.23,0.25,0.92
34952633,-0.23,0.25,0.92
34954632,-0.22,0.29,0.91
34956634,-0.22,0.29,0.91
34958653,-0.22,0.29,0.91
34960636,-0.22,0.29,0.91
34962762,-0.22,0.29,0.91
34964669,-0.23,0.30,0.91
34966664,-0.23,0.30,0.91
34968795,-0.23,0.30,0.91
34970700,-0.23,0.30,0.91
34972664,-0.23,0.30,0.91
34974667,-0.23,0.30,0.89
34976663,-0.23,0.30,0.89
34978657,-0.23,0.30,0.89
34980638,-0.23,0.30,0.89
34982649,-0.23,0.30,0.89
34984637,-0.24,0.28,0.89
34986634,-0.24,0.28,0.89
34988753,-0.24,0.28,0.89
34990637,-0.24,0.28,0.89
34992638,-0.24,0.28,0.89
34994670,-0.24,0.25,0.89
34996639,-0.24,0.25,0.89
34998636,-0.24,0.25,0.89
35000636,-0.24,0.25,0.89
35002679,-0.24,0.25,0.89
35004666,-0.24,0.22,0.89
35006667,-0.24,0.22,0.89
35008662,-0.24,0.22,0.89
35010667,-0.24,0.22,0.89
35012760,-0.24,0.22,0.89
35014724,-0.25,0.20,0.89
35016704,-0.25,0.20,0.89
35018651,-0.25,0.20,0.89
35020637,-0.25,0.20,0.89
35022638,-0.25,0.20,0.89
35024637,-0.25,0.18,0.88
35026685,-0.25,0.18,0.88
35028657,-0.25,0.18,0.88
35030638,-0.25,0.18,0.88
35032637,-0.25,0.18,0.88
35034631,-0.26,0.17,0.86
35036638,-0.26,0.17,0.86
35038746,-0.26,0.17,0.86
35040638,-0.26,0.17,0.86
35042682,-0.26,0.17,0.86
35044663,-0.26,0.17,0.86
35046668,-0.28,0.16,0.86
35048668,-0.28,0.16,0.86
35050670,-0.28,0.16,0.86
35052669,-0.28,0.16,0.86
35054663,-0.28,0.16,0.86
35056638,-0.29,0.16,0.85
35058726,-0.29,0.16,0.85
35060683,-0.29,0.16,0.85
35062751,-0.29,0.16,0.85
35064646,-0.29,0.16,0.85
35066633,-0.29,0.16,0.83
35068634,-0.29,0.16,0.83
35070634,-0.29,0.16,0.83
35072637,-0.29,0.16,0.83
35074635,-0.29,0.16,0.83
35076637,-0.28,0.18,0.80
35078634,-0.28,0.18,0.80
35080638,-0.28,0.18,0.80
35082676,-0.28,0.18,0.80
35084662,-0.28,0.18,0.80
35086664,-0.27,0.21,0.78
35088762,-0.27,0.21,0.78
35090669,-0.27,0.21,0.78
35092666,-0.27,0.21,0.78
35094697,-0.27,0.21,0.78
35096636,-0.29,0.21,0.76
35098637,-0.29,0.21,0.76
35100637,-0.29,0.21,0.76
35102636,-0.29,0.21,0.76
35104658,-0.29,0.21,0.76
35106810,-0.29,0.18,0.74
35108677,-0.29,0.18,0.74
35110637,-0.29,0.18,0.74
35112749,-0.29,0.18,0.74
35114643,-0.29,0.18,0.74
35116637,-0.29,0.09,0.70
35118636,-0.29,0.09,0.70
35120636,-0.29,0.09,0.70
35122680,-0.29,0.09,0.70
35124663,-0.29,0.09,0.70
35126670,-0.33,0.01,0.67
35128667,-0.33,0.01,0.67
35130664,-0.33,0.01,0.67
35132665,-0.33,0.01,0.67
35134668,-0.33,0.01,0.67
35136687,-0.36,-0.07,0.63
35138766,-0.36,-0.07,0.63
35140636,-0.36,-0.07,0.63
35142633,-0.36,-0.07,0.63
35144636,-0.36,-0.07,0.63
35146632,-0.39,-0.14,0.63
35148635,-0.39,-0.14,0.63
35150656,-0.39,-0.14,0.63
35152737,-0.39,-0.14,0.63
35154666,-0.39,-0.14,0.63
35156638,-0.43,-0.21,0.65
35158649,-0.43,-0.21,0.65
35160636,-0.43,-0.21,0.65
35162780,-0.43,-0.21,0.65
35164670,-0.43,-0.21,0.65
35166668,-0.46,-0.24,0.70
35168668,-0.46,-0.24,0.70
35170662,-0.46,-0.24,0.70
35172667,-0.46,-0.24,0.70
35174663,-0.46,-0.24,0.70
35176638,-0.48,-0.25,0.73
35178639,-0.48,-0.25,0.73
35180637,-0.48,-0.25,0.73
35182636,-0.48,-0.25,0.73
35184638,-0.48,-0.25,0.73
35186638,-0.49,-0.26,0.76
35188733,-0.49,-0.26,0.76
35190637,-0.49,-0.26,0.76
35192639,-0.49,-0.26,0.76
35194670,-0.49,-0.26,0.76
35196636,-0.46,-0.26,0.79
35198636,-0.46,-0.26,0.79
35200636,-0.46,-0.26,0.79
35202675,-0.46,-0.26,0.79
35204669,-0.46,-0.26,0.79
35206664,-0.46,-0.26,0.79
35208663,-0.44,-0.24,0.82
35210668,-0.44,-0.24,0.82
35212760,-0.44,-0.24,0.82
35214666,-0.44,-0.24,0.82
35216659,-0.44,-0.24,0.82
35218726,-0.43,-0.21,0.86
35220680,-0.43,-0.21,0.86
35222636,-0.43,-0.21,0.86
35224632,-0.43,-0.21,0.86
35226637,-0.43,-0.21,0.86
35228637,-0.45,-0.26,0.88
35230644,-0.45,-0.26,0.88
35232686,-0.45,-0.26,0.88
35234636,-0.45,-0.26,0.88
35236635,-0.45,-0.26,0.88
35238753,-0.48,-0.29,0.90
35240636,-0.48,-0.29,0.90
35242678,-0.48,-0.29,0.90
35244669,-0.48,-0.29,0.90
35246670,-0.48,-0.29,0.90
35248666,-0.46,-0.30,0.92
35250669,-0.46,-0.30,0.92
35252670,-0.46,-0.30,0.92
35254658,-0.46,-0.30,0.92
35256636,-0.46,-0.30,0.92
35258653,-0.47,-0.32,0.92
35260640,-0.47,-0.32,0.92
35262735,-0.47,-0.32,0.92
35264645,-0.47,-0.32,0.92
35266637,-0.47,-0.32,0.92
35268637,-0.50,-0.33,0.95
35270637,-0.50,-0.33,0.95
35272634,-0.50,-0.33,0.95
35274634,-0.50,-0.33,0.95
35276636,-0.50,-0.33,0.95
35278636,-0.48,-0.31,0.97
35280637,-0.48,-0.31,0.97
35282671,-0.48,-0.31,0.97
35284665,-0.48,-0.31,0.97
35286662,-0.48,-0.31,0.97
35288764,-0.46,-0.27,0.98
35290665,-0.46,-0.27,0.98
35292665,-0.46,-0.27,0.98
35294701,-0.46,-0.27,0.98
35296638,-0.46,-0.27,0.98
35298640,-0.45,-0.23,0.98
35300729,-0.45,-0.23,0.98
35302683,-0.45,-0.23,0.98
35304633,-0.45,-0.23,0.98
35306633,-0.45,-0.23,0.98
35308633,-0.41,-0.17,0.97
35310636,-0.41,-0.17,0.97
35312748,-0.41,-0.17,0.97
35314643,-0.41,-0.17,0.97
35316633,-0.41,-0.17,0.97
35318636,-0.38,-0.13,0.95
35320636,-0.38,-0.13,0.95
35322683,-0.38,-0.13,0.95
35324678,-0.38,-0.13,0.95
35326664,-0.38,-0.13,0.95
35328663,-0.37,-0.08,0.93
35330664,-0.37,-0.08,0.93
35332669,-0.37,-0.08,0.93
35334703,-0.37,-0.08,0.93
35336638,-0.37,-0.08,0.93
35338743,-0.34,-0.05,0.90
35340634,-0.34,-0.05,0.90
35342637,-0.34,-0.05,0.90
35344636,-0.34,-0.05,0.90
35346631,-0.34,-0.05,0.90
35348661,-0.29,-0.01,0.85
35350796,-0.29,-0.01,0.85
35352670,-0.29,-0.01,0.85
35354636,-0.29,-0.01,0.85
35356638,-0.29,-0.01,0.85
35358645,-0.26,-0.01,0.80
35360633,-0.26,-0.01,0.80
35362782,-0.26,-0.01,0.80
35364674,-0.26,-0.01,0.80
35366669,-0.26,-0.01,0.80
35368663,-0.25,-0.02,0.77
35370668,-0.25,-0.02,0.77
35372668,-0.25,-0.02,0.77
35374666,-0.25,-0.02,0.77
35376636,-0.25,-0.02,0.77
35378636,-0.25,-0.02,0.77
35380636,-0.27,-0.01,0.78
35382636,-0.27,-0.01,0.78
35384637,-0.27,-0.01,0.78
35386637,-0.27,-0.01,0.78
35388734,-0.27,-0.01,0.78
35390640,-0.25,-0.01,0.82
35392640,-0.25,-0.01,0.82
35394699,-0.25,-0.01,0.82
35396726,-0.25,-0.01,0.82
35398689,-0.25,-0.01,0.82
35400633,-0.22,0.02,0.86
35402677,-0.22,0.02,0.86
35404663,-0.22,0.02,0.86
35406665,-0.22,0.02,0.86
35408664,-0.22,0.02,0.86
35410665,-0.19,0.09,0.89
35412777,-0.19,0.09,0.89
35414669,-0.19,0.09,0.89
35416652,-0.19,0.09,0.89
35418635,-0.19,0.09,0.89
35420632,-0.17,0.16,0.92
35422636,-0.17,0.16,0.92
35424637,-0.17,0.16,0.92
35426636,-0.17,0.16,0.92
35428637,-0.17,0.16,0.92
35430636,-0.17,0.21,0.93
35432637,-0.17,0.21,0.93
35434638,-0.17,0.21,0.93
35436689,-0.17,0.21,0.93
35438745,-0.17,0.21,0.93
35440636,-0.16,0.24,0.96
35442679,-0.16,0.24,0.96
35444666,-0.16,0.24,0.96
35446664,-0.16,0.24,0.96
35448666,-0.16,0.24,0.96
35450670,-0.15,0.26,0.98
35452664,-0.15,0.26,0.98
35454661,-0.15,0.26,0.98
35456644,-0.15,0.26,0.98
35458714,-0.15,0.26,0.98
35460689,-0.14,0.26,1.00
35462750,-0.14,0.26,1.00
35464643,-0.14,0.26,1.00
35466638,-0.14,0.26,1.00
35468636,-0.14,0.26,1.00
35470636,-0.12,0.26,1.00
35472636,-0.12,0.26,1.00
35474633,-0.12,0.26,1.00
35476632,-0.12,0.26,1.00
35478633,-0.12,0.26,1.00
35480638,-0.13,0.25,1.01
35482691,-0.13,0.25,1.01
35484670,-0.13,0.25,1.01
35486670,-0.13,0.25,1.01
35488764,-0.13,0.25,1.01
35490673,-0.13,0.25,1.02
35492670,-0.13,0.25,1.02
35494704,-0.13,0.25,1.02
35496671,-0.13,0.25,1.02
35498637,-0.13,0.25,1.02
35500637,-0.12,0.27,1.02
35502633,-0.12,0.27,1.02
35504636,-0.12,0.27,1.02
35506638,-0.12,0.27,1.02
35508638,-0.12,0.27,1.02
35510633,-0.12,0.32,1.01
35512739,-0.12,0.32,1.01
35514642,-0.12,0.32,1.01
35516638,-0.12,0.32,1.01
35518674,-0.12,0.32,1.01
35520728,-0.12,0.36,0.98
35522699,-0.12,0.36,0.98
35524696,-0.12,0.36,0.98
35526667,-0.12,0.36,0.98
35528666,-0.12,0.36,0.98
35530666,-0.12,0.38,0.96
35532662,-0.12,0.38,0.96
35534665,-0.12,0.38,0.96
35536665,-0.12,0.38,0.96
35538816,-0.12,0.38,0.96
35540654,-0.12,0.38,0.96
35542637,-0.12,0.36,0.96
35544633,-0.12,0.36,0.96
35546637,-0.12,0.36,0.96
35548638,-0.12,0.36,0.96
35550650,-0.12,0.36,0.96
35552636,-0.11,0.33,0.96
35554637,-0.11,0.33,0.96
35556638,-0.11,0.33,0.96
35558648,-0.11,0.33,0.96
35560633,-0.11,0.33,0.96
35562729,-0.12,0.29,0.98
35564681,-0.12,0.29,0.98
35566667,-0.12,0.29,0.98
35568670,-0.12,0.29,0.98
35570671,-0.12,0.29,0.98
35572662,-0.13,0.24,0.99
35574665,-0.13,0.24,0.99
35576663,-0.13,0.24,0.99
35578637,-0.13,0.24,0.99
35580652,-0.13,0.24,0.99
35582723,-0.14,0.18,1.00
35584682,-0.14,0.18,1.00
35586639,-0.14,0.18,1.00
35588753,-0.14,0.18,1.00
35590636,-0.14,0.18,1.00
35592638,-0.16,0.16,1.00
35594667,-0.16,0.16,1.00
35596633,-0.16,0.16,1.00
35598633,-0.16,0.16,1.00
35600636,-0.16,0.16,1.00
35602633,-0.16,0.16,1.00
35604686,-0.16,0.16,1.00
35606670,-0.16,0.16,1.00
35608665,-0.16,0.16,1.00
35610667,-0.16,0.16,1.00
35612762,-0.18,0.18,0.98
35614676,-0.18,0.18,0.98
35616664,-0.18,0.18,0.98
35618637,-0.18,0.18,0.98
35620632,-0.18,0.18,0.98
35622638,-0.16,0.19,0.94
35624637,-0.16,0.19,0.94
35626638,-0.16,0.19,0.94
35628632,-0.16,0.19,0.94
35630636,-0.16,0.19,0.94
35632633,-0.16,0.22,0.92
35634636,-0.16,0.22,0.92
35636637,-0.16,0.22,0.92
35638731,-0.16,0.22,0.92
35640654,-0.16,0.22,0.92
35642722,-0.18,0.23,0.88
35644702,-0.18,0.23,0.88
35646673,-0.18,0.23,0.88
35648669,-0.18,0.23,0.88
35650672,-0.18,0.23,0.88
35652668,-0.20,0.24,0.86
35654661,-0.20,0.24,0.86
35656665,-0.20,0.24,0.86
35658671,-0.20,0.24,0.86
35660640,-0.20,0.24,0.86
35662754,-0.19,0.24,0.83
35664644,-0.19,0.24,0.83
35666638,-0.19,0.24,0.83
35668639,-0.19,0.24,0.83
35670637,-0.19,0.24,0.83
35672637,-0.20,0.23,0.80
35674639,-0.20,0.23,0.80
35676638,-0.20,0.23,0.80
35678636,-0.20,0.23,0.80
35680636,-0.20,0.23,0.80
35682637,-0.22,0.20,0.81
35684670,-0.22,0.20,0.81
35686664,-0.22,0.20,0.81
35688757,-0.22,0.20,0.81
35690666,-0.22,0.20,0.81
35692665,-0.25,0.14,0.86
35694701,-0.25,0.14,0.86
35696667,-0.25,0.14,0.86
35698640,-0.25,0.14,0.86
35700633,-0.25,0.14,0.86
35702633,-0.25,0.14,0.86
35704637,-0.24,0.13,0.90
35706638,-0.24,0.13,0.90
35708653,-0.24,0.13,0.90
35710725,-0.24,0.13,0.90
35712779,-0.24,0.13,0.90
35714640,-0.23,0.13,0.94
35716637,-0.23,0.13,0.94
35718640,-0.23,0.13,0.94
35720637,-0.23,0.13,0.94
35722633,-0.23,0.13,0.94
35724682,-0.25,0.12,0.96
35726668,-0.25,0.12,0.96
35728668,-0.25,0.12,0.96
35730666,-0.25,0.12,0.96
35732677,-0.25,0.12,0.96
35734668,-0.25,0.08,0.97
35736667,-0.25,0.08,0.97
35738736,-0.25,0.08,0.97
35740638,-0.25,0.08,0.97
35742656,-0.25,0.08,0.97
35744686,-0.27,0.01,0.96
35746636,-0.27,0.01,0.96
35748638,-0.27,0.01,0.96
35750647,-0.27,0.01,0.96
35752636,-0.27,0.01,0.96
35754637,-0.29,-0.05,0.93
35756638,-0.29,-0.05,0.93
35758648,-0.29,-0.05,0.93
35760632,-0.29,-0.05,0.93
35762738,-0.29,-0.05,0.93
35764678,-0.29,-0.08,0.89
35766780,-0.29,-0.08,0.89
35768707,-0.29,-0.08,0.89
35770666,-0.29,-0.08,0.89
35772662,-0.29,-0.08,0.89
35774661,-0.29,-0.10,0.83
35776665,-0.29,-0.10,0.83
35778668,-0.29,-0.10,0.83
35780638,-0.29,-0.10,0.83
35782636,-0.29,-0.10,0.83
35784637,-0.30,-0.10,0.79
35786638,-0.30,-0.10,0.79
35788748,-0.30,-0.10,0.79
35790637,-0.30,-0.10,0.79
35792639,-0.30,-0.10,0.79
35794668,-0.30,-0.09,0.80
35796636,-0.30,-0.09,0.80
35798633,-0.30,-0.09,0.80
35800636,-0.30,-0.09,0.80
35802637,-0.30,-0.09,0.80
35804676,-0.30,-0.04,0.82
35806663,-0.30,-0.04,0.82
35808665,-0.30,-0.04,0.82
35810662,-0.30,-0.04,0.82
35812761,-0.30,-0.04,0.82
35814668,-0.26,0.06,0.85
35816650,-0.26,0.06,0.85
35818638,-0.26,0.06,0.85
35820637,-0.26,0.06,0.85
35822636,-0.26,0.06,0.85
35824637,-0.23,0.21,0.87
35826726,-0.23,0.21,0.87
35828685,-0.23,0.21,0.87
35830634,-0.23,0.21,0.87
35832636,-0.23,0.21,0.87
35834638,-0.20,0.34,0.91
35836631,-0.20,0.34,0.91
35838745,-0.20,0.34,0.91
35840636,-0.20,0.34,0.91
35842632,-0.20,0.34,0.91
35844677,-0.19,0.43,0.94
35846706,-0.19,0.43,0.94
35848664,-0.19,0.43,0.94
35850672,-0.19,0.43,0.94
35852664,-0.19,0.43,0.94
35854665,-0.19,0.43,0.96
35856670,-0.19,0.43,0.96
35858647,-0.19,0.43,0.96
35860633,-0.19,0.43,0.96
35862749,-0.19,0.43,0.96
35864644,-0.18,0.39,0.99
35866636,-0.18,0.39,0.99
35868636,-0.18,0.39,0.99
35870633,-0.18,0.39,0.99
35872638,-0.18,0.39,0.99
35874635,-0.18,0.39,0.99
35876633,-0.17,0.30,0.98
35878633,-0.17,0.30,0.98
35880637,-0.17,0.30,0.98
35882636,-0.17,0.30,0.98
35884669,-0.17,0.30,0.98
35886671,-0.18,0.22,0.96
35888864,-0.18,0.22,0.96
35890700,-0.18,0.22,0.96
35892666,-0.18,0.22,0.96
35894695,-0.18,0.22,0.96
35896662,-0.20,0.14,0.94
35898668,-0.20,0.14,0.94
35900662,-0.20,0.14,0.94
35902638,-0.20,0.14,0.94
35904637,-0.20,0.14,0.94
35906637,-0.20,0.13,0.90
35908633,-0.20,0.13,0.90
35910633,-0.20,0.13,0.90
35912748,-0.20,0.13,0.90
35914646,-0.20,0.13,0.90
35916637,-0.16,0.21,0.87
35918636,-0.16,0.21,0.87
35920638,-0.16,0.21,0.87
35922632,-0.16,0.21,0.87
35924668,-0.16,0.21,0.87
35926668,-0.14,0.30,0.84
35928669,-0.14,0.30,0.84
35930669,-0.14,0.30,0.84
35932711,-0.14,0.30,0.84
35934694,-0.14,0.30,0.84
35936676,-0.14,0.31,0.82
35938775,-0.14,0.31,0.82
35940636,-0.14,0.31,0.82
35942636,-0.14,0.31,0.82
35944638,-0.14,0.31,0.82
35946637,-0.18,0.28,0.83
35948689,-0.18,0.28,0.83
35950648,-0.18,0.28,0.83
35952636,-0.18,0.28,0.83
35954633,-0.18,0.28,0.83
35956639,-0.21,0.22,0.84
35958649,-0.21,0.22,0.84
35960633,-0.21,0.22,0.84
35962732,-0.21,0.22,0.84
35964677,-0.21,0.22,0.84
35966666,-0.19,0.14,0.84
35968666,-0.19,0.14,0.84
35970671,-0.19,0.14,0.84
35972665,-0.19,0.14,0.84
35974665,-0.19,0.14,0.84
35976661,-0.20,0.06,0.84
35978681,-0.20,0.06,0.84
35980704,-0.20,0.06,0.84
35982665,-0.20,0.06,0.84
35984634,-0.20,0.06,0.84
35986636,-0.24,0.01,0.83
35988747,-0.24,0.01,0.83
35990638,-0.24,0.01,0.83
35992633,-0.24,0.01,0.83
35994668,-0.24,0.01,0.83
35996633,-0.25,-0.02,0.81
35998636,-0.25,-0.02,0.81
36000631,-0.25,-0.02,0.81
36002630,-0.25,-0.02,0.81
36004679,-0.25,-0.02,0.81
36006664,-0.26,-0.08,0.78
36008663,-0.26,-0.08,0.78
36010663,-0.26,-0.08,0.78
36012764,-0.26,-0.08,0.78
36014674,-0.26,-0.08,0.78
36016663,-0.29,-0.11,0.75
36018637,-0.29,-0.11,0.75
36020637,-0.29,-0.11,0.75
36022637,-0.29,-0.11,0.75
36024638,-0.29,-0.11,0.75
36026637,-0.31,-0.14,0.77
36028637,-0.31,-0.14,0.77
36030638,-0.31,-0.14,0.77
36032638,-0.31,-0.14,0.77
36034638,-0.31,-0.14,0.77
36036637,-0.31,-0.14,0.77
36038734,-0.33,-0.17,0.79
36040723,-0.33,-0.17,0.79
36042689,-0.33,-0.17,0.79
36044677,-0.33,-0.17,0.79
36046666,-0.33,-0.17,0.79
36048669,-0.34,-0.16,0.80
36050699,-0.34,-0.16,0.80
36052686,-0.34,-0.16,0.80
36054665,-0.34,-0.16,0.80
36056666,-0.34,-0.16,0.80
36058665,-0.33,-0.14,0.79
36060637,-0.33,-0.14,0.79
36062752,-0.33,-0.14,0.79
36064650,-0.33,-0.14,0.79
36066637,-0.33,-0.14,0.79
36068638,-0.34,-0.15,0.80
36070638,-0.34,-0.15,0.80
36072638,-0.34,-0.15,0.80
36074636,-0.34,-0.15,0.80
36076639,-0.34,-0.15,0.80
36078637,-0.36,-0.16,0.81
36080638,-0.36,-0.16,0.81
36082637,-0.36,-0.16,0.81
36084670,-0.36,-0.16,0.81
36086663,-0.36,-0.16,0.81
36088764,-0.36,-0.16,0.84
36090665,-0.36,-0.16,0.84
36092662,-0.36,-0.16,0.84
36094702,-0.36,-0.16,0.84
36096660,-0.36,-0.16,0.84
36098638,-0.39,-0.20,0.92
36100649,-0.39,-0.20,0.92
36102727,-0.39,-0.20,0.92
36104681,-0.39,-0.20,0.92
36106637,-0.39,-0.20,0.92
36108632,-0.41,-0.23,1.01
36110639,-0.41,-0.23,1.01
36112755,-0.41,-0.23,1.01
36114646,-0.41,-0.23,1.01
36116636,-0.41,-0.23,1.01
36118637,-0.35,-0.22,1.05
36120638,-0.35,-0.22,1.05
36122633,-0.35,-0.22,1.05
36124683,-0.35,-0.22,1.05
36126664,-0.35,-0.22,1.05
36128668,-0.32,-0.18,1.08
36130666,-0.32,-0.18,1.08
36132662,-0.32,-0.18,1.08
36134664,-0.32,-0.18,1.08
36136662,-0.32,-0.18,1.08
36138731,-0.32,-0.16,1.10
36140636,-0.32,-0.16,1.10
36142638,-0.32,-0.16,1.10
36144633,-0.32,-0.16,1.10
36146637,-0.32,-0.16,1.10
36148635,-0.32,-0.14,1.10
36150645,-0.32,-0.14,1.10
36152633,-0.32,-0.14,1.10
36154633,-0.32,-0.14,1.10
36156687,-0.32,-0.14,1.10
36158665,-0.32,-0.15,1.08
36160638,-0.32,-0.15,1.08
36162756,-0.32,-0.15,1.08
36164726,-0.32,-0.15,1.08
36166698,-0.32,-0.15,1.08
36168669,-0.31,-0.17,1.05
36170665,-0.31,-0.17,1.05
36172663,-0.31,-0.17,1.05
36174666,-0.31,-0.17,1.05
36176668,-0.31,-0.17,1.05
36178667,-0.28,-0.18,1.02
36180662,-0.28,-0.18,1.02
36182636,-0.28,-0.18,1.02
36184638,-0.28,-0.18,1.02
36186636,-0.28,-0.18,1.02
36188752,-0.27,-0.16,0.98
36190638,-0.27,-0.16,0.98
36192638,-0.27,-0.16,0.98
36194669,-0.27,-0.16,0.98
36196637,-0.27,-0.16,0.98
36198637,-0.25,-0.15,0.99
36200633,-0.25,-0.15,0.99
36202636,-0.25,-0.15,0.99
36204636,-0.25,-0.15,0.99
36206676,-0.25,-0.15,0.99
36208668,-0.25,-0.15,0.99
36210667,-0.25,-0.13,0.99
36212763,-0.25,-0.13,0.99
36214673,-0.25,-0.13,0.99
36216666,-0.25,-0.13,0.99
36218666,-0.25,-0.13,0.99
36220633,-0.23,-0.07,1.00
36222637,-0.23,-0.07,1.00
36224727,-0.23,-0.07,1.00
36226687,-0.23,-0.07,1.00
36228632,-0.23,-0.07,1.00
36230636,-0.20,-0.01,1.00
36232651,-0.20,-0.01,1.00
36234636,-0.20,-0.01,1.00
36236632,-0.20,-0.01,1.00
36238748,-0.20,-0.01,1.00
36240637,-0.18,0.02,1.00
36242637,-0.18,0.02,1.00
36244633,-0.18,0.02,1.00
36246678,-0.18,0.02,1.00
36248664,-0.18,0.02,1.00
36250668,-0.16,0.05,1.00
36252666,-0.16,0.05,1.00
36254666,-0.16,0.05,1.00
36256715,-0.16,0.05,1.00
36258667,-0.16,0.05,1.00
36260663,-0.16,0.10,0.98
36262749,-0.16,0.10,0.98
36264641,-0.16,0.10,0.98
36266637,-0.16,0.10,0.98
36268636,-0.16,0.10,0.98
36270639,-0.14,0.14,0.96
36272747,-0.14,0.14,0.96
36274677,-0.14,0.14,0.96
36276637,-0.14,0.14,0.96
36278637,-0.14,0.14,0.96
36280638,-0.13,0.18,0.95
36282638,-0.13,0.18,0.95
36284637,-0.13,0.18,0.95
36286673,-0.13,0.18,0.95
36288779,-0.13,0.18,0.95
36290668,-0.12,0.25,0.96
36292664,-0.12,0.25,0.96
36294699,-0.12,0.25,0.96
36296667,-0.12,0.25,0.96
36298664,-0.12,0.25,0.96
36300640,-0.10,0.35,0.96
36302639,-0.10,0.35,0.96
36304637,-0.10,0.35,0.96
36306639,-0.10,0.35,0.96
36308642,-0.10,0.35,0.96
36310637,-0.10,0.43,0.95
36312742,-0.10,0.43,0.95
36314645,-0.10,0.43,0.95
36316636,-0.10,0.43,0.95
36318725,-0.10,0.43,0.95
36320680,-0.11,0.45,0.96
36322636,-0.11,0.45,0.96
36324638,-0.11,0.45,0.96
36326678,-0.11,0.45,0.96
36328664,-0.11,0.45,0.96
36330664,-0.12,0.43,0.96
36332668,-0.12,0.43,0.96
36334663,-0.12,0.43,0.96
36336668,-0.12,0.43,0.96
36338783,-0.12,0.43,0.96
36340636,-0.11,0.38,0.97
36342635,-0.11,0.38,0.97
36344636,-0.11,0.38,0.97
36346634,-0.11,0.38,0.97
36348634,-0.11,0.38,0.97
36350646,-0.11,0.33,0.96
36352636,-0.11,0.33,0.96
36354634,-0.11,0.33,0.96
36356636,-0.11,0.33,0.96
36358691,-0.11,0.33,0.96
36360641,-0.10,0.29,0.94
36362735,-0.10,0.29,0.94
36364643,-0.10,0.29,0.94
36366673,-0.10,0.29,0.94
36368666,-0.10,0.29,0.94
36370666,-0.11,0.25,0.93
36372668,-0.11,0.25,0.93
36374663,-0.11,0.25,0.93
36376663,-0.11,0.25,0.93
36378702,-0.11,0.25,0.93
36380695,-0.11,0.25,0.93
36382656,-0.10,0.25,0.92
36384633,-0.10,0.25,0.92
36386637,-0.10,0.25,0.92
36388753,-0.10,0.25,0.92
36390635,-0.10,0.25,0.92
36392635,-0.08,0.25,0.92
36394666,-0.08,0.25,0.92
36396636,-0.08,0.25,0.92
36398638,-0.08,0.25,0.92
36400637,-0.08,0.25,0.92
36402633,-0.10,0.30,0.93
36404636,-0.10,0.30,0.93
36406686,-0.10,0.30,0.93
36408665,-0.10,0.30,0.93
36410663,-0.10,0.30,0.93
36412765,-0.09,0.36,0.93
36414672,-0.09,0.36,0.93
36416672,-0.09,0.36,0.93
36418666,-0.09,0.36,0.93
36420638,-0.09,0.36,0.93
36422637,-0.09,0.39,0.91
36424636,-0.09,0.39,0.91
36426638,-0.09,0.39,0.91
36428636,-0.09,0.39,0.91
36430638,-0.09,0.39,0.91
36432640,-0.11,0.40,0.91
36434637,-0.11,0.40,0.91
36436638,-0.11,0.40,0.91
36438739,-0.11,0.40,0.91
36440639,-0.11,0.40,0.91
36442638,-0.12,0.38,0.89
36444773,-0.12,0.38,0.89
36446702,-0.12,0.38,0.89
